,id,report_number,origin,filer_id,filer_name,type,funding_source_id,funding_source_name,filing_period,receipt_date,employer_id,employer_name,compensation,sub_lobbyist_compensation,net_compensation,personal_expenses,entertainment,contributions,advertising,political_ads,other,total_expenses,net_total,employment_registration_id,employment_type,contractor_id,contractor_name,url,legislation_subject_matter,issue_bill_number,committee_lobbied
0,107199-19578,107199,FE,17944,MICHAEL V SCHWISOW,Employer,19578,COLUMBIA BASIN DEVELOPMENT LEAGUE,07/2023,08/04/2023,16335.0,COLUMBIA BASIN DEVELOPMENT LEAGUE,4166.66,0.0,4166.66,0.0,0.0,0.0,0.0,0.0,0.0,0.0,4166.66,19578.0,Direct,,,View report (https://accesshub.pdc.wa.gov/node/107199),Fiscal,Ground water replacement funding,House Capital Budget & Senate Ways & Means
1,107199-19579,107199,FE,17944,MICHAEL V SCHWISOW,Employer,19579,Washington Winegrowers Association,07/2023,08/04/2023,17210.0,Washington Winegrowers Association,2500.0,0.0,2500.0,0.0,0.0,0.0,0.0,0.0,0.0,0.0,2500.0,19579.0,Direct,,,View report (https://accesshub.pdc.wa.gov/node/107199),Labor,Overtime seasonality,"House Labor & Workplace Standards, Senate Labor & Commerce"
2,107199-19580,107199,FE,17944,MICHAEL V SCHWISOW,Employer,19580,WA ST WATER RESOURCES ASSN,07/2023,08/04/2023,17292.0,WA ST WATER RESOURCES ASSN,5313.41,0.0,5313.41,0.0,0.0,0.0,0.0,0.0,0.0,0.0,5313.41,19580.0,Direct,,,View report (https://accesshub.pdc.wa.gov/node/107199),Local government,Special purpose government administration,Senate Housing & Local Government - House State Govt & Tribal Affairs
3,107199-17944,107199,FE,17944,MICHAEL V SCHWISOW,Lobbyist,17944,MICHAEL V SCHWISOW (Self),07/2023,08/04/2023,,,0.0,0.0,0.0,0.0,0.0,0.0,0.0,0.0,0.0,0.0,0.0,,,,,View report (https://accesshub.pdc.wa.gov/node/107199),,,
6,107201-94265,107201,FE,94264,John Ulric Seng,Employer,94265,Spark Northwest,07/2023,08/04/2023,16720.0,Spark Northwest,17.8,0.0,17.8,0.0,0.0,0.0,0.0,0.0,0.0,0.0,17.8,94265.0,Direct,,,View report (https://accesshub.pdc.wa.gov/node/107201),Energy and utilities,Net metering,legislature
7,107201-94264,107201,FE,94264,John Ulric Seng,Lobbyist,94264,John Ulric Seng (Self),07/2023,08/04/2023,,,0.0,0.0,0.0,0.0,0.0,0.0,0.0,0.0,0.0,0.0,0.0,,,,,View report (https://accesshub.pdc.wa.gov/node/107201),,,
8,107202-56481,107202,FE,49483,Alan Burke,Employer,56481,WA ST SCHOOL RETIREES ASSN,07/2023,08/04/2023,17286.0,WA ST SCHOOL RETIREES ASSN,0.0,0.0,0.0,0.0,0.0,0.0,0.0,0.0,0.0,0.0,0.0,56481.0,Direct,,,View report (https://accesshub.pdc.wa.gov/node/107202),,,
9,107202-49483,107202,FE,49483,Alan Burke,Lobbyist,49483,Alan Burke (Self),07/2023,08/04/2023,,,0.0,0.0,0.0,0.0,0.0,0.0,0.0,0.0,0.0,0.0,0.0,,,,,View report (https://accesshub.pdc.wa.gov/node/107202),,,
10,106754-47744,106754,FE,17967,Bud Sizemore,Employer,47744,WA ST COUNCIL OF FIRE FIGHTERS,06/2023,08/04/2023,17232.0,WA ST COUNCIL OF FIRE FIGHTERS,3852.64,0.0,3852.64,0.0,0.0,0.0,0.0,0.0,0.0,0.0,3852.64,47744.0,Direct,,,View report (https://accesshub.pdc.wa.gov/node/106754),Labor,Fire Service Issues,House of Representatives/Senate
11,106754-17967,106754,FE,17967,Bud Sizemore,Lobbyist,17967,Bud Sizemore (Self),06/2023,08/04/2023,,,0.0,0.0,0.0,0.0,0.0,500.0,0.0,0.0,0.0,500.0,500.0,,,,,View report (https://accesshub.pdc.wa.gov/node/106754),,,
12,107204-50205,107204,FE,28264,Randazzo LLC,Employer,50205,Snoqualmie Tribe ,06/2023,08/04/2023,31273.0,Snoqualmie Tribe ,4000.0,0.0,4000.0,0.0,0.0,0.0,0.0,0.0,0.0,0.0,4000.0,50205.0,Direct,,,View report (https://accesshub.pdc.wa.gov/node/107204),,,
13,107204-28264,107204,FE,28264,Randazzo LLC,Lobbyist,28264,Randazzo LLC (Self),06/2023,08/04/2023,,,0.0,0.0,0.0,0.0,0.0,0.0,0.0,0.0,0.0,0.0,0.0,,,,,View report (https://accesshub.pdc.wa.gov/node/107204),,,
24,107212-82431,107212,FE,82430,Tracy Yeung,Employer,82431,WA ST BUDGET & POLICY CENTER,07/2023,08/05/2023,16213.0,WA ST BUDGET & POLICY CENTER,22.54,0.0,22.54,0.0,0.0,0.0,0.0,0.0,0.0,0.0,22.54,82431.0,Direct,,,View report (https://accesshub.pdc.wa.gov/node/107212),Fiscal,"SB5125, HB1094",WA Future Fund meeting
25,107212-82430,107212,FE,82430,Tracy Yeung,Lobbyist,82430,Tracy Yeung (Self),07/2023,08/05/2023,,,0.0,0.0,0.0,0.0,0.0,0.0,0.0,0.0,0.0,0.0,0.0,,,,,View report (https://accesshub.pdc.wa.gov/node/107212),,,
26,103191-73019,103191,FE,67155,FMS Global Strategies,Employer,73019,Doxiedor LLC,03/2023,08/05/2023,72662.0,Doxiedor LLC,10000.0,0.0,10000.0,0.0,0.0,0.0,0.0,0.0,0.0,0.0,10000.0,73019.0,Direct,,,View report (https://accesshub.pdc.wa.gov/node/103191),,,
27,107205-50205,107205,FE,28264,Randazzo LLC,Employer,50205,Snoqualmie Tribe ,07/2023,08/04/2023,31273.0,Snoqualmie Tribe ,4000.0,0.0,4000.0,0.0,0.0,0.0,0.0,0.0,0.0,0.0,4000.0,50205.0,Direct,,,View report (https://accesshub.pdc.wa.gov/node/107205),,,
28,107205-28264,107205,FE,28264,Randazzo LLC,Lobbyist,28264,Randazzo LLC (Self),07/2023,08/04/2023,,,0.0,0.0,0.0,0.0,0.0,0.0,0.0,0.0,0.0,0.0,0.0,,,,,View report (https://accesshub.pdc.wa.gov/node/107205),,,
31,103191-73796,103191,FE,67155,FMS Global Strategies,Employer,73796,WA Build Back Black Alliance,03/2023,08/05/2023,73022.0,WA Build Back Black Alliance,12000.0,0.0,12000.0,0.0,0.0,0.0,0.0,0.0,0.0,0.0,12000.0,73796.0,Direct,,,View report (https://accesshub.pdc.wa.gov/node/103191),State government,5286,Labor and Commerce
32,103191-84916,103191,FE,67155,FMS Global Strategies,Employer,84916,UNITED WAY OF KING CO,03/2023,08/05/2023,17018.0,UNITED WAY OF KING CO,2000.0,0.0,2000.0,0.0,0.0,0.0,0.0,0.0,0.0,0.0,2000.0,84916.0,Direct,,,View report (https://accesshub.pdc.wa.gov/node/103191),,,
33,103191-91396,103191,FE,67155,FMS Global Strategies,Employer,91396,BTA Holdings LLC,03/2023,08/05/2023,91395.0,BTA Holdings LLC,4166.67,0.0,4166.67,0.0,0.0,0.0,0.0,0.0,0.0,0.0,4166.67,91396.0,Direct,,,View report (https://accesshub.pdc.wa.gov/node/103191),,,
34,103191-67155,103191,FE,67155,FMS Global Strategies,Lobbyist,67155,FMS Global Strategies (Self),03/2023,08/05/2023,,,0.0,0.0,0.0,0.0,0.0,0.0,0.0,0.0,0.0,0.0,0.0,,,,,View report (https://accesshub.pdc.wa.gov/node/103191),,,
35,107213-19895,107213,FE,18091,Kristin Wiggins,Employer,19895,COUNCIL FOR A STRONG AMERICA,07/2023,09/12/2023,16372.0,COUNCIL FOR A STRONG AMERICA,0.0,0.0,0.0,700.0,0.0,0.0,0.0,0.0,0.0,700.0,700.0,19895.0,Direct,,,View report (https://accesshub.pdc.wa.gov/node/107213),Education,"State PreK, early learning facilities",Various legislators
36,107213-49495,107213,FE,18091,Kristin Wiggins,Employer,49495,WA ST ASSN OF HEADSTART ECEAP,07/2023,09/12/2023,16495.0,WA ST ASSN OF HEADSTART ECEAP,0.0,0.0,0.0,0.0,0.0,0.0,0.0,0.0,0.0,0.0,0.0,49495.0,Direct,,,View report (https://accesshub.pdc.wa.gov/node/107213),,,
37,107213-61925,107213,FE,18091,Kristin Wiggins,Employer,61925,Inatai Foundation,07/2023,09/12/2023,61438.0,Inatai Foundation,0.0,0.0,0.0,5000.0,0.0,0.0,0.0,0.0,0.0,5000.0,5000.0,61925.0,Direct,,,View report (https://accesshub.pdc.wa.gov/node/107213),,,
38,107213-67772,107213,FE,18091,Kristin Wiggins,Employer,67772,Perigee Fund,07/2023,09/12/2023,62592.0,Perigee Fund,0.0,0.0,0.0,300.0,378.44,0.0,0.0,0.0,0.0,678.44,678.44,67772.0,Direct,,,View report (https://accesshub.pdc.wa.gov/node/107213),Human services,Perinatal - 5 years issues,"Various legislators, Governor's office, DCYF, HCA"
39,107213-71135,107213,FE,18091,Kristin Wiggins,Employer,71135,Children's Therapy Center,07/2023,09/12/2023,71133.0,Children's Therapy Center,0.0,0.0,0.0,0.0,0.0,0.0,0.0,0.0,0.0,0.0,0.0,71135.0,Direct,,,View report (https://accesshub.pdc.wa.gov/node/107213),Human services,Early Support for Infants and Toddlers,"Various legislators, DCYF, HCA"
40,107213-85467,107213,FE,18091,Kristin Wiggins,Employer,85467,ONEAMERICA,07/2023,09/12/2023,16494.0,ONEAMERICA,0.0,0.0,0.0,200.0,0.0,0.0,0.0,0.0,0.0,200.0,200.0,85467.0,Direct,,,View report (https://accesshub.pdc.wa.gov/node/107213),,,
41,107213-93994,107213,FE,18091,Kristin Wiggins,Employer,93994,The Imagine Institute,07/2023,09/12/2023,62368.0,The Imagine Institute,0.0,0.0,0.0,200.0,0.0,0.0,0.0,0.0,0.0,200.0,200.0,93994.0,Direct,,,View report (https://accesshub.pdc.wa.gov/node/107213),Human services,Early learning workforce,"Various legislators, Governor's office, DCYF"
42,107213-106143,107213,FE,18091,Kristin Wiggins,Employer,106143,Equity in Education Coalition,07/2023,09/12/2023,16420.0,Equity in Education Coalition,0.0,0.0,0.0,200.0,0.0,0.0,0.0,0.0,0.0,200.0,200.0,106143.0,Direct,,,View report (https://accesshub.pdc.wa.gov/node/107213),Human services,Guarantees basic income,Various legislators
43,107154-18151,107154,FE,17339,Amber D Lewis Consulting LLC,Employer,18151,PORT OF CENTRALIA,07/2023,09/30/2023,16795.0,PORT OF CENTRALIA,2500.0,0.0,2500.0,0.0,0.0,0.0,0.0,0.0,0.0,0.0,2500.0,18151.0,Direct,,,View report (https://accesshub.pdc.wa.gov/node/107154),Transportation,budget,Transportation and fiscal committees
44,107154-18154,107154,FE,17339,Amber D Lewis Consulting LLC,Employer,18154,WA ASSN FOR MARRIAGE & FAMILY THERAPY,07/2023,09/30/2023,17150.0,WA ASSN FOR MARRIAGE & FAMILY THERAPY,1835.0,0.0,1835.0,0.0,0.0,0.0,0.0,0.0,0.0,0.0,1835.0,18154.0,Direct,,,View report (https://accesshub.pdc.wa.gov/node/107154),Health Care,health care,"health care committees, DoH, OIC"
45,107154-28146,107154,FE,17339,Amber D Lewis Consulting LLC,Employer,28146,PORT MADISON ENTERPRISES AN AGENCY OF THE SUQUAMISH TRIBE,07/2023,09/30/2023,16801.0,PORT MADISON ENTERPRISES AN AGENCY OF THE SUQUAMISH TRIBE,8000.0,0.0,8000.0,0.0,0.0,0.0,0.0,0.0,0.0,0.0,8000.0,28146.0,Direct,,,View report (https://accesshub.pdc.wa.gov/node/107154),Environmental Affairs - natural resources - parks,tribal matters,"Commerce and Gaming, Tribal Affairs, Environment"
46,107154-49861,107154,FE,17339,Amber D Lewis Consulting LLC,Employer,49861,CVS HEALTH,07/2023,09/30/2023,16229.0,CVS HEALTH,6666.67,0.0,6666.67,0.0,0.0,0.0,0.0,0.0,0.0,0.0,6666.67,49861.0,Direct,,,View report (https://accesshub.pdc.wa.gov/node/107154),Health Care,health care,"health care committees, DoH, OIC, HCA"
47,107154-73097,107154,FE,17339,Amber D Lewis Consulting LLC,Employer,73097,Weidner Property Management,07/2023,09/30/2023,27172.0,Weidner Property Management,4000.0,0.0,4000.0,0.0,0.0,0.0,0.0,0.0,0.0,0.0,4000.0,73097.0,Direct,,,View report (https://accesshub.pdc.wa.gov/node/107154),Local government,Landlord / Tennant,All House Senate
48,107154-73099,107154,FE,17339,Amber D Lewis Consulting LLC,Employer,73099,CONSOLIDATED BOOKKEEPING & MANAGEMENT SERVICES INC,07/2023,09/30/2023,16357.0,CONSOLIDATED BOOKKEEPING & MANAGEMENT SERVICES INC,3000.0,0.0,3000.0,0.0,0.0,0.0,0.0,0.0,0.0,0.0,3000.0,73099.0,Direct,,,View report (https://accesshub.pdc.wa.gov/node/107154),Business and consumer affairs,LCB matters,"WA State Liquor and Cannabis board, Labor and Industries"
49,107154-73610,107154,FE,17339,Amber D Lewis Consulting LLC,Employer,73610,AAA Washington,07/2023,09/30/2023,16058.0,AAA Washington,3000.0,0.0,3000.0,0.0,0.0,0.0,0.0,0.0,0.0,0.0,3000.0,73610.0,Direct,,,View report (https://accesshub.pdc.wa.gov/node/107154),Transportation,Independent contractor and transportation issues,"Transportation and Labor committees, Labor and Industries, tow truck issues"
50,107154-98236,107154,FE,17339,Amber D Lewis Consulting LLC,Employer,98236,"Baldwin Risk Partners, LLC",07/2023,09/30/2023,98208.0,"Baldwin Risk Partners, LLC",4000.0,0.0,4000.0,0.0,0.0,0.0,0.0,0.0,0.0,0.0,4000.0,98236.0,Direct,,,View report (https://accesshub.pdc.wa.gov/node/107154),,,
51,107154-100256,107154,FE,17339,Amber D Lewis Consulting LLC,Employer,100256,Kinship Health,07/2023,09/30/2023,100214.0,Kinship Health,4500.0,0.0,4500.0,0.0,0.0,0.0,0.0,0.0,0.0,0.0,4500.0,100256.0,Direct,,,View report (https://accesshub.pdc.wa.gov/node/107154),,,
52,107154-17339,107154,FE,17339,Amber D Lewis Consulting LLC,Lobbyist,17339,Amber D Lewis Consulting LLC (Self),07/2023,09/30/2023,,,0.0,0.0,0.0,0.0,0.0,0.0,0.0,0.0,0.0,0.0,0.0,,,,,View report (https://accesshub.pdc.wa.gov/node/107154),,,
53,107214-95915,107214,FE,18007,JOHN STUHLMILLER,Employer,95915,WA ST WATER RESOURCES ASSN,07/2023,08/06/2023,17292.0,WA ST WATER RESOURCES ASSN,1000.0,0.0,1000.0,0.0,0.0,0.0,0.0,0.0,0.0,0.0,1000.0,95915.0,Direct,,,View report (https://accesshub.pdc.wa.gov/node/107214),Agriculture,Various water resource issues,"Various state agencies including Ecology, Fish and Wildlife, and Agriculture"
54,107214-95916,107214,FE,18007,JOHN STUHLMILLER,Employer,95916,SYNGENTA,07/2023,08/06/2023,16964.0,SYNGENTA,2000.0,0.0,2000.0,0.0,0.0,0.0,0.0,0.0,0.0,0.0,2000.0,95916.0,Direct,,,View report (https://accesshub.pdc.wa.gov/node/107214),Environmental Affairs - natural resources - parks,Regulatory and environmental issues,"Various agencies including Ecology, Agriculture, and Health"
55,107214-18007,107214,FE,18007,JOHN STUHLMILLER,Lobbyist,18007,JOHN STUHLMILLER (Self),07/2023,08/06/2023,,,0.0,0.0,0.0,0.0,0.0,0.0,0.0,0.0,0.0,0.0,0.0,,,,,View report (https://accesshub.pdc.wa.gov/node/107214),,,
56,107215-18636,107215,FE,17511,TOM ECHOLS,Employer,18636,CIGAR ASSN OF AMERICA,07/2023,08/06/2023,16262.0,CIGAR ASSN OF AMERICA,3458.33,0.0,3458.33,0.0,0.0,0.0,0.0,0.0,0.0,0.0,3458.33,18636.0,Direct,,,View report (https://accesshub.pdc.wa.gov/node/107215),Business and consumer affairs,Cigars and Pipe Tobacco,H&S Business Committees
57,107215-18637,107215,FE,17511,TOM ECHOLS,Employer,18637,COALITION OF COASTAL FISHERIES,07/2023,08/06/2023,16331.0,COALITION OF COASTAL FISHERIES,1750.0,0.0,1750.0,0.0,0.0,0.0,0.0,0.0,0.0,0.0,1750.0,18637.0,Direct,,,View report (https://accesshub.pdc.wa.gov/node/107215),Environmental Affairs - natural resources - parks,Commercial Fishing,H&S Agriculture and Natural Resources Committees
58,107215-18638,107215,FE,17511,TOM ECHOLS,Employer,18638,HUNTERS HERITAGE COUNCIL,07/2023,08/06/2023,16515.0,HUNTERS HERITAGE COUNCIL,0.0,0.0,0.0,0.0,0.0,0.0,0.0,0.0,0.0,0.0,0.0,18638.0,Direct,,,View report (https://accesshub.pdc.wa.gov/node/107215),,,
59,107215-18639,107215,FE,17511,TOM ECHOLS,Employer,18639,PURSE SEINE VESSEL OWNERS ASSN,07/2023,08/06/2023,16834.0,PURSE SEINE VESSEL OWNERS ASSN,2000.0,0.0,2000.0,0.0,0.0,0.0,0.0,0.0,0.0,0.0,2000.0,18639.0,Direct,,,View report (https://accesshub.pdc.wa.gov/node/107215),Environmental Affairs - natural resources - parks,Commercial Fishing,H&S Agriculture and Natural Resources COmmittees
60,107215-92588,107215,FE,17511,TOM ECHOLS,Employer,92588,7-ELEVEN INC,07/2023,08/06/2023,16931.0,7-ELEVEN INC,6000.0,0.0,6000.0,0.0,0.0,0.0,0.0,0.0,0.0,0.0,6000.0,92588.0,Direct,,,View report (https://accesshub.pdc.wa.gov/node/107215),Business and consumer affairs,Consumer Retail,H&S Business Committees
61,107215-103482,107215,FE,17511,TOM ECHOLS,Employer,103482,PMI Global Services Inc. and Affiliates,07/2023,08/06/2023,103480.0,PMI Global Services Inc. and Affiliates,6000.0,0.0,6000.0,0.0,0.0,0.0,0.0,0.0,0.0,0.0,6000.0,103482.0,Direct,,,View report (https://accesshub.pdc.wa.gov/node/107215),,,
62,107215-17511,107215,FE,17511,TOM ECHOLS,Lobbyist,17511,TOM ECHOLS (Self),07/2023,08/06/2023,,,0.0,0.0,0.0,0.0,0.0,0.0,0.0,0.0,0.0,0.0,0.0,,,,,View report (https://accesshub.pdc.wa.gov/node/107215),,,
63,107067-19359,107067,FE,17848,THE NEXUS GROUP LLC*,Employer,19359,ASSN OF WA SCHOOL PRINCIPALS,07/2023,08/06/2023,16173.0,ASSN OF WA SCHOOL PRINCIPALS,1500.0,0.0,1500.0,0.0,0.0,0.0,0.0,0.0,0.0,0.0,1500.0,19359.0,Direct,,,View report (https://accesshub.pdc.wa.gov/node/107067),Fiscal,Health Care Pensions Benefits,SCPP PFC SAO APPS SEBB PEBB HCA ESD
64,107067-19362,107067,FE,17848,THE NEXUS GROUP LLC*,Employer,19362,WA ASSN OF SCHOOL ADMINISTRATORS,07/2023,08/06/2023,17186.0,WA ASSN OF SCHOOL ADMINISTRATORS,3000.0,0.0,3000.0,0.0,0.0,0.0,0.0,0.0,0.0,0.0,3000.0,19362.0,Direct,,,View report (https://accesshub.pdc.wa.gov/node/107067),Fiscal,Health Care Pensions Benefits,SCPP PFC SAO APPS SEBB PEBB HCA ESD
65,107067-19363,107067,FE,17848,THE NEXUS GROUP LLC*,Employer,19363,WA ST SCHOOL RETIREES ASSN,07/2023,08/06/2023,17286.0,WA ST SCHOOL RETIREES ASSN,6194.0,0.0,6194.0,0.0,0.0,0.0,0.0,0.0,0.0,0.0,6194.0,19363.0,Direct,,,View report (https://accesshub.pdc.wa.gov/node/107067),Fiscal,Health Care Pensions Benefits,SCPP PFC SAO APPS SEBB PEBB HCA
66,107067-17848,107067,FE,17848,THE NEXUS GROUP LLC*,Lobbyist,17848,THE NEXUS GROUP LLC* (Self),07/2023,08/06/2023,,,0.0,0.0,0.0,0.0,0.0,100.0,0.0,0.0,3000.0,3100.0,3100.0,,,,,View report (https://accesshub.pdc.wa.gov/node/107067),,,
67,107218-19468,107218,FE,17897,POTTS & ASSOC*,Employer,19468,FERRY CO COMMISSION,07/2023,08/06/2023,16440.0,FERRY CO COMMISSION,0.0,0.0,0.0,0.0,0.0,0.0,0.0,0.0,0.0,0.0,0.0,19468.0,Direct,,,View report (https://accesshub.pdc.wa.gov/node/107218),Local government,"Agriculture, land use, permitting, growth management, transportation.","Legislators, staff, & agency personnel"
68,107218-19469,107218,FE,17897,POTTS & ASSOC*,Employer,19469,FRANKLIN CO COMMISSION,07/2023,08/06/2023,16453.0,FRANKLIN CO COMMISSION,440.0,0.0,440.0,0.0,0.0,0.0,0.0,0.0,0.0,0.0,440.0,19469.0,Direct,,,View report (https://accesshub.pdc.wa.gov/node/107218),,,
69,107218-19470,107218,FE,17897,POTTS & ASSOC*,Employer,19470,GRANT CO COMMISSION,07/2023,08/06/2023,16479.0,GRANT CO COMMISSION,0.0,0.0,0.0,0.0,0.0,0.0,0.0,0.0,0.0,0.0,0.0,19470.0,Direct,,,View report (https://accesshub.pdc.wa.gov/node/107218),Local government,"Agriculture, land use, permitting, growth management, transportation.","Legislators, staff, & agency personnel"
70,107218-19471,107218,FE,17897,POTTS & ASSOC*,Employer,19471,KLICKITAT CO COMMISSION,07/2023,08/06/2023,16583.0,KLICKITAT CO COMMISSION,275.0,0.0,275.0,0.0,0.0,0.0,0.0,0.0,0.0,0.0,275.0,19471.0,Direct,,,View report (https://accesshub.pdc.wa.gov/node/107218),Local government,"Agriculture, land use, permitting, growth management, transportation.","Legislators, staff, & agency personnel"
71,107218-19472,107218,FE,17897,POTTS & ASSOC*,Employer,19472,LINCOLN CO COMMISSION,07/2023,08/06/2023,16608.0,LINCOLN CO COMMISSION,0.0,0.0,0.0,0.0,0.0,0.0,0.0,0.0,0.0,0.0,0.0,19472.0,Direct,,,View report (https://accesshub.pdc.wa.gov/node/107218),Local government,"Agriculture, land use, permitting, growth management, transportation.","Legislators, staff, & agency personnel"
72,107218-19473,107218,FE,17897,POTTS & ASSOC*,Employer,19473,OKANOGAN CO COMMISSION,07/2023,08/06/2023,16732.0,OKANOGAN CO COMMISSION,0.0,0.0,0.0,0.0,0.0,0.0,0.0,0.0,0.0,0.0,0.0,19473.0,Direct,,,View report (https://accesshub.pdc.wa.gov/node/107218),Local government,"Agriculture, land use, permitting, growth management, transportation.","Legislators, staff, & agency personnel"
73,107218-19474,107218,FE,17897,POTTS & ASSOC*,Employer,19474,PEND OREILLE CO COMMISSION,07/2023,08/06/2023,16771.0,PEND OREILLE CO COMMISSION,0.0,0.0,0.0,0.0,0.0,0.0,0.0,0.0,0.0,0.0,0.0,19474.0,Direct,,,View report (https://accesshub.pdc.wa.gov/node/107218),Local government,"Agriculture, land use, permitting, growth management, transportation.","Legislators, staff, & agency personnel"
74,107218-17897,107218,FE,17897,POTTS & ASSOC*,Lobbyist,17897,POTTS & ASSOC* (Self),07/2023,08/06/2023,,,0.0,0.0,0.0,0.0,0.0,0.0,0.0,0.0,0.0,0.0,0.0,,,,,View report (https://accesshub.pdc.wa.gov/node/107218),,,
75,107220-18277,107220,FE,17397,PATRICK S BOSS (Cascade Consulting Group),Employer,18277,COLUMBIA BASIN RAILROAD(CBR)/CENTRAL WA RAILROAD (CWR),06/2023,08/07/2023,16336.0,COLUMBIA BASIN RAILROAD(CBR)/CENTRAL WA RAILROAD (CWR),2000.0,0.0,2000.0,0.0,0.0,0.0,0.0,0.0,0.0,0.0,2000.0,18277.0,Direct,,,View report (https://accesshub.pdc.wa.gov/node/107220),Transportation,Rail Transportation,"WSDOT, Department of Ecology, Senate and House Transportation Committees"
76,107220-18281,107220,FE,17397,PATRICK S BOSS (Cascade Consulting Group),Employer,18281,PORT OF GRANT CO DIST 01 - Quincy,06/2023,08/07/2023,16803.0,PORT OF GRANT CO DIST 01 - Quincy,2500.0,0.0,2500.0,0.0,0.0,0.0,0.0,0.0,0.0,0.0,2500.0,18281.0,Direct,,,View report (https://accesshub.pdc.wa.gov/node/107220),Fiscal,"Freight Mobility, Economic Development","WSDOT, Dept. of Commerce, Senate Ways & Means Committee, House Capital Budget Committee"
77,107220-17397,107220,FE,17397,PATRICK S BOSS (Cascade Consulting Group),Lobbyist,17397,PATRICK S BOSS (Cascade Consulting Group) (Self),06/2023,08/07/2023,,,0.0,0.0,0.0,0.0,0.0,0.0,0.0,0.0,0.0,0.0,0.0,,,,,View report (https://accesshub.pdc.wa.gov/node/107220),,,
78,107221-18277,107221,FE,17397,PATRICK S BOSS (Cascade Consulting Group),Employer,18277,COLUMBIA BASIN RAILROAD(CBR)/CENTRAL WA RAILROAD (CWR),07/2023,08/07/2023,16336.0,COLUMBIA BASIN RAILROAD(CBR)/CENTRAL WA RAILROAD (CWR),2000.0,0.0,2000.0,0.0,0.0,0.0,0.0,0.0,0.0,0.0,2000.0,18277.0,Direct,,,View report (https://accesshub.pdc.wa.gov/node/107221),Transportation,Rail Transportation,"WSDOT, Department of Ecology, Senate and House Transportation Committees"
79,107221-18281,107221,FE,17397,PATRICK S BOSS (Cascade Consulting Group),Employer,18281,PORT OF GRANT CO DIST 01 - Quincy,07/2023,08/07/2023,16803.0,PORT OF GRANT CO DIST 01 - Quincy,2500.0,0.0,2500.0,0.0,0.0,0.0,0.0,0.0,0.0,0.0,2500.0,18281.0,Direct,,,View report (https://accesshub.pdc.wa.gov/node/107221),Fiscal,"Freight Mobility, Economic Development","WSDOT, Dept. of Commerce, Senate Ways & Means Committee, House Capital Budget Committee"
80,107221-17397,107221,FE,17397,PATRICK S BOSS (Cascade Consulting Group),Lobbyist,17397,PATRICK S BOSS (Cascade Consulting Group) (Self),07/2023,08/07/2023,,,0.0,0.0,0.0,0.0,0.0,0.0,0.0,0.0,0.0,0.0,0.0,,,,,View report (https://accesshub.pdc.wa.gov/node/107221),,,
87,107160-76691,107160,FE,76690,Brett Swift,Employer,76691,The Pew Charitable Trusts,07/2023,08/07/2023,58352.0,The Pew Charitable Trusts,39.43,0.0,39.43,0.0,0.0,0.0,0.0,0.0,0.0,0.0,39.43,76691.0,Direct,,,View report (https://accesshub.pdc.wa.gov/node/107160),Environmental Affairs - natural resources - parks,WA Outstanding Resource Water,Department of Ecology
88,107160-76690,107160,FE,76690,Brett Swift,Lobbyist,76690,Brett Swift (Self),07/2023,08/07/2023,,,0.0,0.0,0.0,0.0,0.0,0.0,0.0,0.0,0.0,0.0,0.0,,,,,View report (https://accesshub.pdc.wa.gov/node/107160),,,
91,107224-19318,107224,FE,17825,CAREY L MORRIS,Employer,19318,EQUAL RIGHTS WA,07/2023,08/07/2023,16419.0,EQUAL RIGHTS WA,0.0,0.0,0.0,0.0,0.0,0.0,0.0,0.0,0.0,0.0,0.0,19318.0,Direct,,,View report (https://accesshub.pdc.wa.gov/node/107224),Human services,LGBTQ+ Civil Rights,"Humane Services, Judiciary, Fiscal, Health Care, Education"
92,107224-19321,107224,FE,17825,CAREY L MORRIS,Employer,19321,LEAGUE OF EDUCATION VOTERS,07/2023,08/07/2023,16589.0,LEAGUE OF EDUCATION VOTERS,0.0,0.0,0.0,0.0,0.0,0.0,0.0,0.0,0.0,0.0,0.0,19321.0,Direct,,,View report (https://accesshub.pdc.wa.gov/node/107224),,,
93,107224-19324,107224,FE,17825,CAREY L MORRIS,Employer,19324,WA ST COALITION  AGAINST DOMESTIC VIOLENCE,07/2023,08/07/2023,17227.0,WA ST COALITION  AGAINST DOMESTIC VIOLENCE,3859.0,0.0,3859.0,0.0,0.0,0.0,0.0,0.0,0.0,0.0,3859.0,19324.0,Direct,,,View report (https://accesshub.pdc.wa.gov/node/107224),,,
94,107224-62845,107224,FE,17825,CAREY L MORRIS,Employer,62845,Start Early,07/2023,08/07/2023,61435.0,Start Early,2500.0,0.0,2500.0,0.0,0.0,0.0,0.0,0.0,0.0,0.0,2500.0,62845.0,Direct,,,View report (https://accesshub.pdc.wa.gov/node/107224),Human services,Home Visiting,"Early Learning Coalitions, Health Care Authority, DCYF, DOH, OSPI"
95,107224-74601,107224,FE,17825,CAREY L MORRIS,Employer,74601,BUILDING CHANGES,07/2023,08/07/2023,16214.0,BUILDING CHANGES,2760.0,0.0,2760.0,0.0,0.0,0.0,0.0,0.0,0.0,0.0,2760.0,74601.0,Direct,,,View report (https://accesshub.pdc.wa.gov/node/107224),Education,Students Experiencing Homelessness,"OSPI, DCYF, Commerce, fiscal committees, housing issues, health care"
96,107224-83346,107224,FE,17825,CAREY L MORRIS,Employer,83346,WA ASSN OF NATUROPATHIC PHYSICIANS,07/2023,08/07/2023,17154.0,WA ASSN OF NATUROPATHIC PHYSICIANS,3000.0,0.0,3000.0,0.0,0.0,0.0,0.0,0.0,0.0,0.0,3000.0,83346.0,Direct,,,View report (https://accesshub.pdc.wa.gov/node/107224),Health Care,5411,"Healthcare, Workforce"
97,107224-95720,107224,FE,17825,CAREY L MORRIS,Employer,95720,Washington State Charter School Commission,07/2023,08/07/2023,60009.0,Washington State Charter School Commission,3500.0,0.0,3500.0,0.0,0.0,0.0,0.0,0.0,0.0,0.0,3500.0,95720.0,Direct,,,View report (https://accesshub.pdc.wa.gov/node/107224),Education,Charter Schools,"Education, Fiscal"
98,107224-17825,107224,FE,17825,CAREY L MORRIS,Lobbyist,17825,CAREY L MORRIS (Self),07/2023,08/07/2023,,,0.0,0.0,0.0,0.0,0.0,0.0,0.0,0.0,0.0,0.0,0.0,,,,,View report (https://accesshub.pdc.wa.gov/node/107224),,,
101,107228-70293,107228,FE,17587,JON GOULD,Employer,70293,CHILDHAVEN,07/2023,08/07/2023,16257.0,CHILDHAVEN,500.0,0.0,500.0,0.0,0.0,0.0,0.0,0.0,0.0,0.0,500.0,70293.0,Direct,,,View report (https://accesshub.pdc.wa.gov/node/107228),Human services,multiple health and human service,"DCYF and mulitiple members of the Leg, house and senate committees"
102,107228-17587,107228,FE,17587,JON GOULD,Lobbyist,17587,JON GOULD (Self),07/2023,08/07/2023,,,0.0,0.0,0.0,0.0,0.0,0.0,0.0,0.0,0.0,0.0,0.0,,,,,View report (https://accesshub.pdc.wa.gov/node/107228),,,
103,107229-85177,107229,FE,83766,Resource Public Affairs LLC,Employer,85177,"Fire Boss, LLC",07/2023,08/07/2023,85160.0,"Fire Boss, LLC",2500.0,0.0,2500.0,0.0,0.0,0.0,0.0,0.0,0.0,0.0,2500.0,85177.0,Direct,,,View report (https://accesshub.pdc.wa.gov/node/107229),Environmental Affairs - natural resources - parks,Wildland Fire,"Governor's Office, WA DNR, Wildland Fire Caucus"
104,107229-93207,107229,FE,83766,Resource Public Affairs LLC,Employer,93207,"Divert, Inc.",07/2023,08/07/2023,93206.0,"Divert, Inc.",5000.0,0.0,5000.0,0.0,0.0,0.0,0.0,0.0,0.0,0.0,5000.0,93207.0,Direct,,,View report (https://accesshub.pdc.wa.gov/node/107229),Energy and utilities,Food Waste and Renewable Energy,"Governor's Office, Commerce, State Legislature"
105,107229-93369,107229,FE,83766,Resource Public Affairs LLC,Employer,93369,Perimeter Solutions,07/2023,08/07/2023,93348.0,Perimeter Solutions,2500.0,0.0,2500.0,0.0,0.0,0.0,0.0,0.0,0.0,0.0,2500.0,93369.0,Direct,,,View report (https://accesshub.pdc.wa.gov/node/107229),Environmental Affairs - natural resources - parks,Wildland Fire,"Governor's Office, WA DNR, Wildland Fire Caucus"
106,107229-83766,107229,FE,83766,Resource Public Affairs LLC,Lobbyist,83766,Resource Public Affairs LLC (Self),07/2023,08/07/2023,,,0.0,0.0,0.0,0.0,0.0,250.0,0.0,0.0,0.0,250.0,250.0,,,,,View report (https://accesshub.pdc.wa.gov/node/107229),,,
107,107232-19249,107232,FE,17792,DAN MCGRADY,Employer,19249,PEMCO Insurance,07/2023,08/07/2023,16770.0,PEMCO Insurance,4750.0,0.0,4750.0,0.0,0.0,2500.0,0.0,0.0,0.0,2500.0,7250.0,19249.0,Direct,,,View report (https://accesshub.pdc.wa.gov/node/107232),Financial institutions and insurance,Insurance,"OIC, Senate and House Committee members"
108,107232-17792,107232,FE,17792,DAN MCGRADY,Lobbyist,17792,DAN MCGRADY (Self),07/2023,08/07/2023,,,0.0,0.0,0.0,0.0,0.0,0.0,0.0,0.0,0.0,0.0,0.0,,,,,View report (https://accesshub.pdc.wa.gov/node/107232),,,
109,107231-50642,107231,FE,50641,Karen Lang,Employer,50642,PEMCO Insurance,07/2023,08/07/2023,16770.0,PEMCO Insurance,500.0,0.0,500.0,0.0,0.0,0.0,0.0,0.0,0.0,0.0,500.0,50642.0,Direct,,,View report (https://accesshub.pdc.wa.gov/node/107231),Business and consumer affairs,Insurance,"Consumer Protection and Business committee, OIC"
110,107231-50641,107231,FE,50641,Karen Lang,Lobbyist,50641,Karen Lang (Self),07/2023,08/07/2023,,,0.0,0.0,0.0,0.0,0.0,0.0,0.0,0.0,0.0,0.0,0.0,,,,,View report (https://accesshub.pdc.wa.gov/node/107231),,,
119,107240-19326,107240,FE,17827,STEPHEN F MULLIN,Employer,19326,WA ROUNDTABLE,07/2023,08/07/2023,17178.0,WA ROUNDTABLE,1750.0,0.0,1750.0,0.0,0.0,0.0,0.0,0.0,0.0,0.0,1750.0,19326.0,Direct,,,View report (https://accesshub.pdc.wa.gov/node/107240),Education,Various,Various
120,107240-17827,107240,FE,17827,STEPHEN F MULLIN,Lobbyist,17827,STEPHEN F MULLIN (Self),07/2023,08/07/2023,,,0.0,0.0,0.0,0.0,0.0,0.0,0.0,0.0,0.0,0.0,0.0,,,,,View report (https://accesshub.pdc.wa.gov/node/107240),,,
121,107241-19716,107241,FE,18000,NEIL STREGE,Employer,19716,WA ROUNDTABLE,07/2023,08/07/2023,17178.0,WA ROUNDTABLE,3098.35,0.0,3098.35,0.0,0.0,0.0,0.0,0.0,0.0,0.0,3098.35,19716.0,Direct,,,View report (https://accesshub.pdc.wa.gov/node/107241),Education,Various,Various
122,107241-18000,107241,FE,18000,NEIL STREGE,Lobbyist,18000,NEIL STREGE (Self),07/2023,08/07/2023,,,0.0,0.0,0.0,0.0,0.0,0.0,0.0,0.0,0.0,0.0,0.0,,,,,View report (https://accesshub.pdc.wa.gov/node/107241),,,
147,107225-73891,107225,FE,73890,Charles Knutson,Employer,73891,AMAZON.COM SERVICES LLC,07/2023,08/07/2023,16088.0,AMAZON.COM SERVICES LLC,531.18,0.0,531.18,0.0,0.0,75600.0,0.0,0.0,0.0,75600.0,76131.18,73891.0,Direct,,,View report (https://accesshub.pdc.wa.gov/node/107225),Education,HB 1140/SB 5187,Legislature
148,107225-73890,107225,FE,73890,Charles Knutson,Lobbyist,73890,Charles Knutson (Self),07/2023,08/07/2023,,,0.0,0.0,0.0,0.0,0.0,0.0,0.0,0.0,0.0,0.0,0.0,,,,,View report (https://accesshub.pdc.wa.gov/node/107225),,,
149,107247-50751,107247,FE,50747,Maggie Glennon,Employer,50751,Code.org ,07/2023,08/07/2023,46972.0,Code.org ,114.22,0.0,114.22,0.0,0.0,0.0,0.0,0.0,0.0,0.0,114.22,50751.0,Direct,,,View report (https://accesshub.pdc.wa.gov/node/107247),,,
150,107247-50747,107247,FE,50747,Maggie Glennon,Lobbyist,50747,Maggie Glennon (Self),07/2023,08/07/2023,,,0.0,0.0,0.0,0.0,0.0,0.0,0.0,0.0,0.0,0.0,0.0,,,,,View report (https://accesshub.pdc.wa.gov/node/107247),,,
157,107265-18118,107265,FE,17329,"Advocates, Inc.",Employer,18118,PUYALLUP TRIBE OF INDIANS,07/2023,08/07/2023,16835.0,PUYALLUP TRIBE OF INDIANS,7000.0,0.0,7000.0,0.0,0.0,0.0,0.0,0.0,0.0,0.0,7000.0,18118.0,Direct,,,View report (https://accesshub.pdc.wa.gov/node/107265),Environmental Affairs - natural resources - parks,various,various
158,107265-99963,107265,FE,17329,"Advocates, Inc.",Employer,99963,Wild Salmon Center,07/2023,08/07/2023,38990.0,Wild Salmon Center,2500.0,0.0,2500.0,0.0,0.0,0.0,0.0,0.0,0.0,0.0,2500.0,99963.0,Direct,,,View report (https://accesshub.pdc.wa.gov/node/107265),Fiscal,various,various
159,107265-17329,107265,FE,17329,"Advocates, Inc.",Lobbyist,17329,"Advocates, Inc. (Self)",07/2023,08/07/2023,,,0.0,0.0,0.0,0.0,0.0,1200.0,0.0,0.0,0.0,1200.0,1200.0,,,,,View report (https://accesshub.pdc.wa.gov/node/107265),,,
160,107266-100089,107266,FE,99286,Johanna Lundahl,Employer,100089,Evergreen Social Impact,06/2023,08/07/2023,83343.0,Evergreen Social Impact,0.0,0.0,0.0,0.0,0.0,0.0,0.0,0.0,0.0,0.0,0.0,100089.0,Direct,,,View report (https://accesshub.pdc.wa.gov/node/107266),,,
161,107266-99286,107266,FE,99286,Johanna Lundahl,Lobbyist,99286,Johanna Lundahl (Self),06/2023,08/07/2023,,,0.0,0.0,0.0,0.0,0.0,0.0,0.0,0.0,0.0,0.0,0.0,,,,,View report (https://accesshub.pdc.wa.gov/node/107266),,,
166,107255-78754,107255,FE,78525,Jaspreet Chowdhary,Employer,78754,Compassion & Choices Action Network,07/2023,08/07/2023,72787.0,Compassion & Choices Action Network,417.63,0.0,417.63,0.0,0.0,0.0,0.0,0.0,0.0,0.0,417.63,78754.0,Direct,,,View report (https://accesshub.pdc.wa.gov/node/107255),Health Care,Medical Aid in Dying,Washington State Legislature
167,107255-78525,107255,FE,78525,Jaspreet Chowdhary,Lobbyist,78525,Jaspreet Chowdhary (Self),07/2023,08/07/2023,,,0.0,0.0,0.0,0.0,0.0,0.0,0.0,0.0,0.0,0.0,0.0,,,,,View report (https://accesshub.pdc.wa.gov/node/107255),,,
174,107267-18559,107267,FE,17490,DIEDRICK GOVERNMENTAL AFFAIRS LLC,Employer,18559,WA ST SCHOOL RETIREES ASSN,07/2023,08/07/2023,17286.0,WA ST SCHOOL RETIREES ASSN,4500.0,0.0,4500.0,50.0,0.0,0.0,0.0,0.0,0.0,50.0,4550.0,18559.0,Direct,,,View report (https://accesshub.pdc.wa.gov/node/107267),Fiscal,School Retiree Pensions & Health Benefits,Select Committee on Pension Policy
175,107267-98035,107267,FE,17490,DIEDRICK GOVERNMENTAL AFFAIRS LLC,Employer,98035,Certification Board for Music Therapists,07/2023,08/07/2023,97953.0,Certification Board for Music Therapists,2000.0,0.0,2000.0,0.0,0.0,0.0,0.0,0.0,0.0,0.0,2000.0,98035.0,Direct,,,View report (https://accesshub.pdc.wa.gov/node/107267),Health Care,HB 1247,WA State Department of Health
176,107267-17490,107267,FE,17490,DIEDRICK GOVERNMENTAL AFFAIRS LLC,Lobbyist,17490,DIEDRICK GOVERNMENTAL AFFAIRS LLC (Self),07/2023,08/07/2023,,,0.0,0.0,0.0,0.0,0.0,7.0,0.0,0.0,0.0,7.0,7.0,,,,,View report (https://accesshub.pdc.wa.gov/node/107267),,,
177,107269-18738,107269,FE,17554,DAVID S FOSTER,Employer,18738,PACIFIC SCIENCE CENTER,07/2023,08/07/2023,16758.0,PACIFIC SCIENCE CENTER,4500.0,0.0,4500.0,0.0,0.0,0.0,0.0,0.0,0.0,0.0,4500.0,18738.0,Direct,,,View report (https://accesshub.pdc.wa.gov/node/107269),Education,Science Education,"Education, Appropriations, Ways & Means"
178,107269-18740,107269,FE,17554,DAVID S FOSTER,Employer,18740,SEATTLE AQUARIUM SOCIETY,07/2023,08/07/2023,16888.0,SEATTLE AQUARIUM SOCIETY,4000.0,0.0,4000.0,0.0,0.0,0.0,0.0,0.0,0.0,0.0,4000.0,18740.0,Direct,,,View report (https://accesshub.pdc.wa.gov/node/107269),Fiscal,Capital Budget,"Capital Budget, Ways & Means"
179,107269-18742,107269,FE,17554,DAVID S FOSTER,Employer,18742,Washington State Alliance of YMCAs,07/2023,08/07/2023,17323.0,Washington State Alliance of YMCAs,3300.0,0.0,3300.0,0.0,0.0,0.0,0.0,0.0,0.0,0.0,3300.0,18742.0,Direct,,,View report (https://accesshub.pdc.wa.gov/node/107269),Human services,"Childcare, Early Learning","Early Learning, Appropriations, Way & Means"
180,107269-25544,107269,FE,17554,DAVID S FOSTER,Employer,25544,INTERCITY TRANSIT,07/2023,08/07/2023,16542.0,INTERCITY TRANSIT,2000.0,0.0,2000.0,0.0,0.0,0.0,0.0,0.0,0.0,0.0,2000.0,25544.0,Direct,,,View report (https://accesshub.pdc.wa.gov/node/107269),Transportation,Transit,Transportation
181,107269-31666,107269,FE,17554,DAVID S FOSTER,Employer,31666,American Behavioral Health Systems Inc,07/2023,08/07/2023,30616.0,American Behavioral Health Systems Inc,5000.0,0.0,5000.0,0.0,0.0,0.0,0.0,0.0,0.0,0.0,5000.0,31666.0,Direct,,,View report (https://accesshub.pdc.wa.gov/node/107269),Health Care,Behavioral Health,"Health Care, Appropriations, Ways & Means"
182,107269-43392,107269,FE,17554,DAVID S FOSTER,Employer,43392,"KinderCare Learning Companies, LLC",07/2023,08/07/2023,43391.0,"KinderCare Learning Companies, LLC",3500.0,0.0,3500.0,0.0,0.0,0.0,0.0,0.0,0.0,0.0,3500.0,43392.0,Direct,,,View report (https://accesshub.pdc.wa.gov/node/107269),Human services,"Early Learning, Childcare","Early Learning, Appropriations, Ways & Means"
183,107269-47215,107269,FE,17554,DAVID S FOSTER,Employer,47215,KING CO COUNCIL,07/2023,08/07/2023,16575.0,KING CO COUNCIL,11000.0,-5500.0,5500.0,0.0,0.0,0.0,0.0,0.0,0.0,0.0,5500.0,47215.0,Direct,,,View report (https://accesshub.pdc.wa.gov/node/107269),Local government,Local Government,"Local Government, Transportation, Appropriations, Ways & Means"
184,107269-48563,107269,FE,17554,DAVID S FOSTER,Employer,48563,City of Tukwila,07/2023,08/07/2023,28150.0,City of Tukwila,3250.0,0.0,3250.0,0.0,0.0,0.0,0.0,0.0,0.0,0.0,3250.0,48563.0,Direct,,,View report (https://accesshub.pdc.wa.gov/node/107269),Local government,Local Government,"Local Government, Transportation, Appropriations, Ways & Means"
185,107269-48785,107269,FE,17554,DAVID S FOSTER,Employer,48785,Sound,07/2023,08/07/2023,47810.0,Sound,4500.0,0.0,4500.0,0.0,0.0,0.0,0.0,0.0,0.0,0.0,4500.0,48785.0,Direct,,,View report (https://accesshub.pdc.wa.gov/node/107269),Health Care,Behavioral Health,"Health Care, Appropriations, Ways & Means"
186,107269-60201,107269,FE,17554,DAVID S FOSTER,Employer,60201,Tobacco-Free Action Fund ,07/2023,08/07/2023,60200.0,Tobacco-Free Action Fund ,4500.0,0.0,4500.0,0.0,0.0,0.0,0.0,0.0,0.0,0.0,4500.0,60201.0,Direct,,,View report (https://accesshub.pdc.wa.gov/node/107269),,,
187,107269-96863,107269,FE,17554,DAVID S FOSTER,Employer,96863,CITY OF RENTON,07/2023,08/07/2023,16306.0,CITY OF RENTON,5500.0,0.0,5500.0,0.0,0.0,0.0,0.0,0.0,0.0,0.0,5500.0,96863.0,Direct,,,View report (https://accesshub.pdc.wa.gov/node/107269),Local government,Local Government,"Local Gov, Transportation, Appropriations, Ways & Means"
188,107269-17554,107269,FE,17554,DAVID S FOSTER,Lobbyist,17554,DAVID S FOSTER (Self),07/2023,08/07/2023,,,0.0,0.0,0.0,100.0,0.0,0.0,0.0,0.0,0.0,100.0,100.0,,,,,View report (https://accesshub.pdc.wa.gov/node/107269),,,
191,107270-35793,107270,FE,35792,Irene Plenefisch,Employer,35793,MICROSOFT CORP,07/2023,08/07/2023,16636.0,MICROSOFT CORP,3000.0,0.0,3000.0,10.0,0.0,0.0,0.0,0.0,0.0,10.0,3010.0,35793.0,Direct,,,View report (https://accesshub.pdc.wa.gov/node/107270),Energy and utilities,"Sustainability, Access to Clean Energy","Environment, Energy and Technology"
192,107270-35792,107270,FE,35792,Irene Plenefisch,Lobbyist,35792,Irene Plenefisch (Self),07/2023,08/07/2023,,,0.0,0.0,0.0,0.0,0.0,0.0,0.0,0.0,0.0,0.0,0.0,,,,,View report (https://accesshub.pdc.wa.gov/node/107270),,,
193,107272-103967,107272,FE,103966,Colleen Kerr,Employer,103967,MICROSOFT CORP,07/2023,10/04/2023,16636.0,MICROSOFT CORP,5000.0,0.0,5000.0,1753.78,46.16,5000.0,0.0,0.0,0.0,6799.94,11799.94,103967.0,Direct,,,View report (https://accesshub.pdc.wa.gov/node/107272),Technology,Data Privacy/Artificial Intelligence,"Senate Environment, Energy and Technology, House Civil Rights & Judiciary"
194,107272-103966,107272,FE,103966,Colleen Kerr,Lobbyist,103966,Colleen Kerr (Self),07/2023,10/04/2023,,,0.0,0.0,0.0,0.0,0.0,0.0,0.0,0.0,0.0,0.0,0.0,,,,,View report (https://accesshub.pdc.wa.gov/node/107272),,,
195,106824-78045,106824,FE,17581,GORDON THOMAS HONEYWELL GOV AFFAIRS*,Employer,78045,Evergreen Forest Stewards,06/2023,08/21/2023,78037.0,Evergreen Forest Stewards,5000.0,0.0,5000.0,0.0,0.0,0.0,0.0,0.0,0.0,0.0,5000.0,78045.0,Direct,,,View report (https://accesshub.pdc.wa.gov/node/106824),Environmental Affairs - natural resources - parks,"Tax issues,Natural resources,Carbon regulation",Legislative
196,106824-81709,106824,FE,17581,GORDON THOMAS HONEYWELL GOV AFFAIRS*,Employer,81709,INLAND POWER & LIGHT,06/2023,08/21/2023,16532.0,INLAND POWER & LIGHT,4000.0,0.0,4000.0,0.0,0.0,0.0,0.0,0.0,0.0,0.0,4000.0,81709.0,Direct,,,View report (https://accesshub.pdc.wa.gov/node/106824),Energy and utilities,"Energy Issues and Climate Change, Utility Issues",Legislative
197,106824-82830,106824,FE,17581,GORDON THOMAS HONEYWELL GOV AFFAIRS*,Employer,82830,City of Sultan,06/2023,08/21/2023,82803.0,City of Sultan,3000.0,0.0,3000.0,0.0,0.0,0.0,0.0,0.0,0.0,0.0,3000.0,82830.0,Direct,,,View report (https://accesshub.pdc.wa.gov/node/106824),Local government,"Transportation funding,Capital budget requests,Local fiscal issues,Economic Develompent tools,Local law enforcement issues,Other local government/city issues",Legislative
198,106824-83345,106824,FE,17581,GORDON THOMAS HONEYWELL GOV AFFAIRS*,Employer,83345,City of Newcastle,06/2023,08/21/2023,83342.0,City of Newcastle,3000.0,0.0,3000.0,0.0,0.0,0.0,0.0,0.0,0.0,0.0,3000.0,83345.0,Direct,,,View report (https://accesshub.pdc.wa.gov/node/106824),Local government,"Transportation funding,Capital budget requests,Local fiscal issues,Economic Development tools,Other local government/city issues",Legislative
199,106824-85864,106824,FE,17581,GORDON THOMAS HONEYWELL GOV AFFAIRS*,Employer,85864,"McCain Foods USA, Inc",06/2023,08/21/2023,85863.0,"McCain Foods USA, Inc",5000.0,0.0,5000.0,0.0,0.0,0.0,0.0,0.0,0.0,0.0,5000.0,85864.0,Direct,,,View report (https://accesshub.pdc.wa.gov/node/106824),Business and consumer affairs,"Climate policy (GHG emissions),Agriculture issues,Tax-related issues,Labor issues,Other issues impacting food processors",Legislative
200,106824-86551,106824,FE,17581,GORDON THOMAS HONEYWELL GOV AFFAIRS*,Employer,86551,Manulife Investment Management Timberland and Agriculture,06/2023,08/21/2023,86361.0,Manulife Investment Management Timberland and Agriculture,2500.0,0.0,2500.0,0.0,0.0,0.0,0.0,0.0,0.0,0.0,2500.0,86551.0,Direct,,,View report (https://accesshub.pdc.wa.gov/node/106824),Agriculture,"Agriculture,Climate/Carbon Policy,Pesticides,Water Policy,Fiscal Issues/Tax Incentives,Trade,Natural Resources",Legislative
201,106824-91560,106824,FE,17581,GORDON THOMAS HONEYWELL GOV AFFAIRS*,Employer,91560,HDG LP,06/2023,08/21/2023,91558.0,HDG LP,3000.0,0.0,3000.0,0.0,0.0,0.0,0.0,0.0,0.0,0.0,3000.0,91560.0,Direct,,,View report (https://accesshub.pdc.wa.gov/node/106824),State government,"Redevelopment efforts,Housing construction,Environmental restoration,Transportation connections,Project funding",Legislative
202,106824-94572,106824,FE,17581,GORDON THOMAS HONEYWELL GOV AFFAIRS*,Employer,94572,PORT BLAKELY,06/2023,08/21/2023,16794.0,PORT BLAKELY,0.0,0.0,0.0,0.0,0.0,10000.0,0.0,0.0,0.0,10000.0,10000.0,94572.0,Direct,,,View report (https://accesshub.pdc.wa.gov/node/106824),Environmental Affairs - natural resources - parks,Carbon Offsets,Legislative
203,107273-86296,107273,FE,86295,Chad Campbell,Employer,86296,INTL UNION OF OPERATING ENGINEERS LOCAL 612,07/2023,08/07/2023,16554.0,INTL UNION OF OPERATING ENGINEERS LOCAL 612,227.56,0.0,227.56,0.0,0.0,0.0,0.0,0.0,0.0,0.0,227.56,86296.0,Direct,,,View report (https://accesshub.pdc.wa.gov/node/107273),Labor,"Apprenticeship, Construction, Project Funding","Legislative Transportation, Budget & Policy Committee, Members/Leadership, L&I, WSDOT"
204,107273-86295,107273,FE,86295,Chad Campbell,Lobbyist,86295,Chad Campbell (Self),07/2023,08/07/2023,,,0.0,0.0,0.0,0.0,0.0,0.0,0.0,0.0,0.0,0.0,0.0,,,,,View report (https://accesshub.pdc.wa.gov/node/107273),,,
205,106997-18143,106997,FE,17338,AMBER CARTER GOVT RELATIONS LLC*,Employer,18143,PORTLAND VANCOUVER JUNCTION RAILROAD,06/2023,08/07/2023,16808.0,PORTLAND VANCOUVER JUNCTION RAILROAD,3300.0,0.0,3300.0,0.0,0.0,0.0,0.0,0.0,0.0,0.0,3300.0,18143.0,Direct,,,View report (https://accesshub.pdc.wa.gov/node/106997),Transportation,various,House and Senate Transportation Committee
206,106997-27091,106997,FE,17338,AMBER CARTER GOVT RELATIONS LLC*,Employer,27091,COLUMBIA RIVER STEAMSHIP OPERATORS ASSN,06/2023,08/07/2023,16341.0,COLUMBIA RIVER STEAMSHIP OPERATORS ASSN,1833.33,0.0,1833.33,0.0,0.0,0.0,0.0,0.0,0.0,0.0,1833.33,27091.0,Direct,,,View report (https://accesshub.pdc.wa.gov/node/106997),Environmental Affairs - natural resources - parks,various,"House Environment Comm., House Ag Comm., Senate Environment Comm, Senate Ag Comm"
207,106997-27294,106997,FE,17338,AMBER CARTER GOVT RELATIONS LLC*,Employer,27294,IDENTITY CLARK CO,06/2023,08/07/2023,16520.0,IDENTITY CLARK CO,2900.0,0.0,2900.0,0.0,0.0,0.0,0.0,0.0,0.0,0.0,2900.0,27294.0,Direct,,,View report (https://accesshub.pdc.wa.gov/node/106997),Transportation,various,House and Senate Transportation Committee
208,106997-27441,106997,FE,17338,AMBER CARTER GOVT RELATIONS LLC*,Employer,27441,MARITIME FIRE & SAFETY ASSN,06/2023,08/07/2023,16617.0,MARITIME FIRE & SAFETY ASSN,1665.0,0.0,1665.0,0.0,0.0,0.0,0.0,0.0,0.0,0.0,1665.0,27441.0,Direct,,,View report (https://accesshub.pdc.wa.gov/node/106997),Environmental Affairs - natural resources - parks,various,"House Environment Comm., House Ag Comm., Senate Environment Comm, Senate Ag Comm"
209,106997-28199,106997,FE,17338,AMBER CARTER GOVT RELATIONS LLC*,Employer,28199,PORT OF VANCOUVER,06/2023,08/07/2023,16807.0,PORT OF VANCOUVER,4250.0,0.0,4250.0,0.0,0.0,0.0,0.0,0.0,0.0,0.0,4250.0,28199.0,Direct,,,View report (https://accesshub.pdc.wa.gov/node/106997),,,
210,106997-37719,106997,FE,17338,AMBER CARTER GOVT RELATIONS LLC*,Employer,37719,BASEBALL CLUB OF SEATTLE (SEATTLE MARINERS),06/2023,08/07/2023,16182.0,BASEBALL CLUB OF SEATTLE (SEATTLE MARINERS),2167.0,0.0,2167.0,0.0,0.0,0.0,0.0,0.0,0.0,0.0,2167.0,37719.0,Direct,,,View report (https://accesshub.pdc.wa.gov/node/106997),Business and consumer affairs,various,various
211,106997-88593,106997,FE,17338,AMBER CARTER GOVT RELATIONS LLC*,Employer,88593,Novolex (GALLATIN PUBLIC AFFAIRS*),06/2023,08/07/2023,87896.0,Novolex,3000.0,0.0,3000.0,0.0,0.0,0.0,0.0,0.0,0.0,0.0,3000.0,88593.0,Subcontract,17564.0,GALLATIN PUBLIC AFFAIRS*,View report (https://accesshub.pdc.wa.gov/node/106997),,,
212,106997-93390,106997,FE,17338,AMBER CARTER GOVT RELATIONS LLC*,Employer,93390,AMERICAN RECYCLABLE PLASTIC BAG ALLIANCE,06/2023,08/07/2023,16118.0,AMERICAN RECYCLABLE PLASTIC BAG ALLIANCE,2500.0,0.0,2500.0,0.0,0.0,0.0,0.0,0.0,0.0,0.0,2500.0,93390.0,Direct,,,View report (https://accesshub.pdc.wa.gov/node/106997),Environmental Affairs - natural resources - parks,plastic bags,Environment Committees
213,106997-98255,106997,FE,17338,AMBER CARTER GOVT RELATIONS LLC*,Employer,98255,The American Waterways Operators,06/2023,08/07/2023,16126.0,The American Waterways Operators,2500.0,0.0,2500.0,0.0,0.0,0.0,0.0,0.0,0.0,0.0,2500.0,98255.0,Direct,,,View report (https://accesshub.pdc.wa.gov/node/106997),,,
214,106997-100696,106997,FE,17338,AMBER CARTER GOVT RELATIONS LLC*,Employer,100696,Washington Workforce Association,06/2023,08/07/2023,100279.0,Washington Workforce Association,0.0,0.0,0.0,0.0,0.0,0.0,0.0,0.0,0.0,0.0,0.0,100696.0,Direct,,,View report (https://accesshub.pdc.wa.gov/node/106997),,,
215,106997-17338,106997,FE,17338,AMBER CARTER GOVT RELATIONS LLC*,Lobbyist,17338,AMBER CARTER GOVT RELATIONS LLC* (Self),06/2023,08/07/2023,,,0.0,0.0,0.0,0.0,0.0,0.0,0.0,0.0,0.0,0.0,0.0,,,,,View report (https://accesshub.pdc.wa.gov/node/106997),,,
216,107274-18143,107274,FE,17338,AMBER CARTER GOVT RELATIONS LLC*,Employer,18143,PORTLAND VANCOUVER JUNCTION RAILROAD,07/2023,08/07/2023,16808.0,PORTLAND VANCOUVER JUNCTION RAILROAD,3300.0,0.0,3300.0,0.0,0.0,0.0,0.0,0.0,0.0,0.0,3300.0,18143.0,Direct,,,View report (https://accesshub.pdc.wa.gov/node/107274),Transportation,various,House and Senate Transportation Committee
217,107274-27091,107274,FE,17338,AMBER CARTER GOVT RELATIONS LLC*,Employer,27091,COLUMBIA RIVER STEAMSHIP OPERATORS ASSN,07/2023,08/07/2023,16341.0,COLUMBIA RIVER STEAMSHIP OPERATORS ASSN,1833.33,0.0,1833.33,0.0,0.0,0.0,0.0,0.0,0.0,0.0,1833.33,27091.0,Direct,,,View report (https://accesshub.pdc.wa.gov/node/107274),Environmental Affairs - natural resources - parks,various,"House Environment Comm., House Ag Comm., Senate Environment Comm, Senate Ag Comm"
218,107274-27294,107274,FE,17338,AMBER CARTER GOVT RELATIONS LLC*,Employer,27294,IDENTITY CLARK CO,07/2023,08/07/2023,16520.0,IDENTITY CLARK CO,2900.0,0.0,2900.0,0.0,0.0,0.0,0.0,0.0,0.0,0.0,2900.0,27294.0,Direct,,,View report (https://accesshub.pdc.wa.gov/node/107274),Transportation,various,House and Senate Transportation Committee
219,107274-27441,107274,FE,17338,AMBER CARTER GOVT RELATIONS LLC*,Employer,27441,MARITIME FIRE & SAFETY ASSN,07/2023,08/07/2023,16617.0,MARITIME FIRE & SAFETY ASSN,1665.0,0.0,1665.0,0.0,0.0,0.0,0.0,0.0,0.0,0.0,1665.0,27441.0,Direct,,,View report (https://accesshub.pdc.wa.gov/node/107274),Environmental Affairs - natural resources - parks,various,"House Environment Comm., House Ag Comm., Senate Environment Comm, Senate Ag Comm"
220,107274-28199,107274,FE,17338,AMBER CARTER GOVT RELATIONS LLC*,Employer,28199,PORT OF VANCOUVER,07/2023,08/07/2023,16807.0,PORT OF VANCOUVER,4250.0,0.0,4250.0,0.0,0.0,0.0,0.0,0.0,0.0,0.0,4250.0,28199.0,Direct,,,View report (https://accesshub.pdc.wa.gov/node/107274),,,
221,107274-37719,107274,FE,17338,AMBER CARTER GOVT RELATIONS LLC*,Employer,37719,BASEBALL CLUB OF SEATTLE (SEATTLE MARINERS),07/2023,08/07/2023,16182.0,BASEBALL CLUB OF SEATTLE (SEATTLE MARINERS),2167.0,0.0,2167.0,0.0,0.0,0.0,0.0,0.0,0.0,0.0,2167.0,37719.0,Direct,,,View report (https://accesshub.pdc.wa.gov/node/107274),Business and consumer affairs,various,various
222,107274-88593,107274,FE,17338,AMBER CARTER GOVT RELATIONS LLC*,Employer,88593,Novolex (GALLATIN PUBLIC AFFAIRS*),07/2023,08/07/2023,87896.0,Novolex,3000.0,0.0,3000.0,0.0,0.0,0.0,0.0,0.0,0.0,0.0,3000.0,88593.0,Subcontract,17564.0,GALLATIN PUBLIC AFFAIRS*,View report (https://accesshub.pdc.wa.gov/node/107274),,,
223,107274-93390,107274,FE,17338,AMBER CARTER GOVT RELATIONS LLC*,Employer,93390,AMERICAN RECYCLABLE PLASTIC BAG ALLIANCE,07/2023,08/07/2023,16118.0,AMERICAN RECYCLABLE PLASTIC BAG ALLIANCE,2500.0,0.0,2500.0,0.0,0.0,0.0,0.0,0.0,0.0,0.0,2500.0,93390.0,Direct,,,View report (https://accesshub.pdc.wa.gov/node/107274),Environmental Affairs - natural resources - parks,plastic bags,Environment Committees
224,107274-98255,107274,FE,17338,AMBER CARTER GOVT RELATIONS LLC*,Employer,98255,The American Waterways Operators,07/2023,08/07/2023,16126.0,The American Waterways Operators,2500.0,0.0,2500.0,0.0,0.0,0.0,0.0,0.0,0.0,0.0,2500.0,98255.0,Direct,,,View report (https://accesshub.pdc.wa.gov/node/107274),,,
225,107274-100696,107274,FE,17338,AMBER CARTER GOVT RELATIONS LLC*,Employer,100696,Washington Workforce Association,07/2023,08/07/2023,100279.0,Washington Workforce Association,0.0,0.0,0.0,0.0,0.0,0.0,0.0,0.0,0.0,0.0,0.0,100696.0,Direct,,,View report (https://accesshub.pdc.wa.gov/node/107274),,,
226,107274-17338,107274,FE,17338,AMBER CARTER GOVT RELATIONS LLC*,Lobbyist,17338,AMBER CARTER GOVT RELATIONS LLC* (Self),07/2023,08/07/2023,,,0.0,0.0,0.0,0.0,0.0,250.0,0.0,0.0,0.0,250.0,250.0,,,,,View report (https://accesshub.pdc.wa.gov/node/107274),,,
231,107280-19587,107280,FE,17950,SEIB POLICY & PUBLIC AFFAIRS*,Employer,19587,Molina Healthcare Inc,07/2023,08/08/2023,16641.0,Molina Healthcare Inc,15000.0,0.0,15000.0,1149.97,0.0,0.0,0.0,0.0,0.0,1149.97,16149.97,19587.0,Direct,,,View report (https://accesshub.pdc.wa.gov/node/107280),Health Care,various,various
232,107280-19589,107280,FE,17950,SEIB POLICY & PUBLIC AFFAIRS*,Employer,19589,RURAL HEALTH CLINIC ASSN,07/2023,08/08/2023,16866.0,RURAL HEALTH CLINIC ASSN,1800.0,-900.0,900.0,0.0,0.0,0.0,0.0,0.0,0.0,0.0,900.0,19589.0,Direct,,,View report (https://accesshub.pdc.wa.gov/node/107280),Health Care,various,various
233,107280-51462,107280,FE,17950,SEIB POLICY & PUBLIC AFFAIRS*,Employer,51462,LifePoint Health,07/2023,08/08/2023,49203.0,LifePoint Health,6000.0,0.0,6000.0,0.0,0.0,0.0,0.0,0.0,0.0,0.0,6000.0,51462.0,Direct,,,View report (https://accesshub.pdc.wa.gov/node/107280),Health Care,various,various
234,107280-63584,107280,FE,17950,SEIB POLICY & PUBLIC AFFAIRS*,Employer,63584,Seattle Children's Hospital,07/2023,08/08/2023,16259.0,Seattle Children's Hospital,10000.0,-1200.0,8800.0,0.0,0.0,0.0,0.0,0.0,0.0,0.0,8800.0,63584.0,Direct,,,View report (https://accesshub.pdc.wa.gov/node/107280),Health Care,various,various
235,107280-71093,107280,FE,17950,SEIB POLICY & PUBLIC AFFAIRS*,Employer,71093,Consumer Direct Care Network Washington LLC. (Silver Consulting),07/2023,08/08/2023,71083.0,Consumer Direct Care Network Washington LLC.,3000.0,0.0,3000.0,0.0,0.0,0.0,0.0,0.0,0.0,0.0,3000.0,71093.0,Subcontract,49575.0,Silver Consulting,View report (https://accesshub.pdc.wa.gov/node/107280),,,
236,107280-94620,107280,FE,17950,SEIB POLICY & PUBLIC AFFAIRS*,Employer,94620,Samaritan Healthcare (Grant County Public Hospital District No. 1),07/2023,08/08/2023,94564.0,Samaritan Healthcare (Grant County Public Hospital District No. 1),6500.0,-2000.0,4500.0,0.0,0.0,0.0,0.0,0.0,0.0,0.0,4500.0,94620.0,Direct,,,View report (https://accesshub.pdc.wa.gov/node/107280),Fiscal,Capital Budget,Various
237,107280-106794,107280,FE,17950,SEIB POLICY & PUBLIC AFFAIRS*,Employer,106794,TriState Health,07/2023,08/08/2023,106793.0,TriState Health,5500.0,0.0,5500.0,0.0,0.0,0.0,0.0,0.0,0.0,0.0,5500.0,106794.0,Direct,,,View report (https://accesshub.pdc.wa.gov/node/107280),Health Care,various,various
238,107280-17950,107280,FE,17950,SEIB POLICY & PUBLIC AFFAIRS*,Lobbyist,17950,SEIB POLICY & PUBLIC AFFAIRS* (Self),07/2023,08/08/2023,,,0.0,0.0,0.0,0.0,0.0,0.0,0.0,0.0,0.0,0.0,0.0,,,,,View report (https://accesshub.pdc.wa.gov/node/107280),,,
239,107281-90961,107281,FE,90898,JMB Strategies,Employer,90961,PACIFICORP,07/2023,08/08/2023,16746.0,PACIFICORP,7500.0,0.0,7500.0,0.0,0.0,0.0,0.0,0.0,0.0,0.0,7500.0,90961.0,Direct,,,View report (https://accesshub.pdc.wa.gov/node/107281),Energy and utilities,Energy,"House Environment and Energy Committee, Senate Environment, Energy & Technology Committee"
240,107281-98358,107281,FE,90898,JMB Strategies,Employer,98358,"Torre Refuse & Recycling, LLC",07/2023,08/08/2023,98312.0,"Torre Refuse & Recycling, LLC",1333.0,0.0,1333.0,0.0,0.0,0.0,0.0,0.0,0.0,0.0,1333.0,98358.0,Direct,,,View report (https://accesshub.pdc.wa.gov/node/107281),Energy and utilities,Energy regulatory issues,"House Environment and Energy Committee, Senate Environment, Energy & Technology Committee"
241,107281-98422,107281,FE,90898,JMB Strategies,Employer,98422,BASIN DISPOSAL INC,07/2023,08/08/2023,16183.0,BASIN DISPOSAL INC,667.0,0.0,667.0,0.0,0.0,0.0,0.0,0.0,0.0,0.0,667.0,98422.0,Direct,,,View report (https://accesshub.pdc.wa.gov/node/107281),Energy and utilities,Energy regulatory issues,"House Environment and Energy Committee, Senate Environment, Energy & Technology Committee"
242,107281-90898,107281,FE,90898,JMB Strategies,Lobbyist,90898,JMB Strategies (Self),07/2023,08/08/2023,,,0.0,0.0,0.0,0.0,0.0,0.0,0.0,0.0,0.0,0.0,0.0,,,,,View report (https://accesshub.pdc.wa.gov/node/107281),,,
243,107151-89428,107151,FE,86203,Model Solutions LLC,Employer,89428,Mi-Case,07/2023,11/08/2023,89427.0,Mi-Case,4000.0,0.0,4000.0,0.0,0.0,0.0,0.0,0.0,0.0,0.0,4000.0,89428.0,Direct,,,View report (https://accesshub.pdc.wa.gov/node/107151),Technology,Case Management Software Solutions,"Dept. of Corrections, Dept. of Fish & Wildlife, Dept. of Agriculture, Criminal Justice Training Comm., Board of Industrial Insurance Appeals, WaTech, LEG-TECH, Office of Financial Management, Legislature"
244,107151-98323,107151,FE,86203,Model Solutions LLC,Employer,98323,Sandoz Inc.,07/2023,11/08/2023,98272.0,Sandoz Inc.,909.09,0.0,909.09,0.0,0.0,0.0,0.0,0.0,0.0,0.0,909.09,98323.0,Direct,,,View report (https://accesshub.pdc.wa.gov/node/107151),Health Care,Biosimilar medicines,Legislature
247,107287-19108,107287,FE,17723,THOMAS W KWIECIAK,Employer,19108,BUILDING INDUSTRY ASSN OF WA,07/2023,08/08/2023,16215.0,BUILDING INDUSTRY ASSN OF WA,7500.0,0.0,7500.0,0.0,0.0,0.0,0.0,0.0,0.0,0.0,7500.0,19108.0,Direct,,,View report (https://accesshub.pdc.wa.gov/node/107287),Labor,"Workers' Compensation, Heat and Wildfire Rules","L&I, House & Senate Labor Committees"
248,107287-19109,107287,FE,17723,THOMAS W KWIECIAK,Employer,19109,CAPITAL BENEFIT SERVICES,07/2023,08/08/2023,16226.0,CAPITAL BENEFIT SERVICES,4050.0,0.0,4050.0,0.0,0.0,0.0,0.0,0.0,0.0,0.0,4050.0,19109.0,Direct,,,View report (https://accesshub.pdc.wa.gov/node/107287),,,
249,107287-19110,107287,FE,17723,THOMAS W KWIECIAK,Employer,19110,NATL RIFLE ASSN OF AMERICA,07/2023,08/08/2023,16672.0,NATL RIFLE ASSN OF AMERICA,3333.0,0.0,3333.0,0.0,0.0,0.0,0.0,0.0,0.0,0.0,3333.0,19110.0,Direct,,,View report (https://accesshub.pdc.wa.gov/node/107287),Law and justice,FIREARMS,"SENATE LAW & JUSTICE COMMITTEE, House Civil Rights & Judiciary Committee"
250,107287-39100,107287,FE,17723,THOMAS W KWIECIAK,Employer,39100,PURDUE PHARMA,07/2023,08/08/2023,16833.0,PURDUE PHARMA,4000.0,0.0,4000.0,0.0,0.0,0.0,0.0,0.0,0.0,0.0,4000.0,39100.0,Direct,,,View report (https://accesshub.pdc.wa.gov/node/107287),,,
251,107287-74764,107287,FE,17723,THOMAS W KWIECIAK,Employer,74764,"National Shooting Sports Foundation, Inc. (The Nichols Group Government Relations LLC)",07/2023,08/08/2023,64804.0,"National Shooting Sports Foundation, Inc.",1500.0,0.0,1500.0,0.0,0.0,0.0,0.0,0.0,0.0,0.0,1500.0,74764.0,Subcontract,18034.0,The Nichols Group Government Relations LLC,View report (https://accesshub.pdc.wa.gov/node/107287),,,
252,107287-85165,107287,FE,17723,THOMAS W KWIECIAK,Employer,85165,WA ST FARM BUREAU,07/2023,08/08/2023,17246.0,WA ST FARM BUREAU,0.0,0.0,0.0,0.0,0.0,0.0,0.0,0.0,0.0,0.0,0.0,85165.0,Direct,,,View report (https://accesshub.pdc.wa.gov/node/107287),,,
253,107287-17723,107287,FE,17723,THOMAS W KWIECIAK,Lobbyist,17723,THOMAS W KWIECIAK (Self),07/2023,08/08/2023,,,0.0,0.0,0.0,0.0,0.0,0.0,0.0,0.0,0.0,0.0,0.0,,,,,View report (https://accesshub.pdc.wa.gov/node/107287),,,
254,107288-18975,107288,FE,17646,DEDI LITTLE,Employer,18975,WA ST PHARMACY ASSN,06/2023,08/08/2023,17271.0,WA ST PHARMACY ASSN,7178.52,0.0,7178.52,0.0,0.0,0.0,0.0,0.0,0.0,0.0,7178.52,18975.0,Direct,,,View report (https://accesshub.pdc.wa.gov/node/107288),Health Care,health care issues related and impacting the pharmacy profession,"OIC, HCA, DOH"
255,107288-17646,107288,FE,17646,DEDI LITTLE,Lobbyist,17646,DEDI LITTLE (Self),06/2023,08/08/2023,,,0.0,0.0,0.0,0.0,0.0,0.0,0.0,0.0,0.0,0.0,0.0,,,,,View report (https://accesshub.pdc.wa.gov/node/107288),,,
258,107290-18975,107290,FE,17646,DEDI LITTLE,Employer,18975,WA ST PHARMACY ASSN,07/2023,08/08/2023,17271.0,WA ST PHARMACY ASSN,7178.52,0.0,7178.52,0.0,0.0,0.0,0.0,0.0,0.0,0.0,7178.52,18975.0,Direct,,,View report (https://accesshub.pdc.wa.gov/node/107290),Health Care,health care issues related and impacting the pharmacy profession,"HCA, OIC, DOH, AG"
259,107290-17646,107290,FE,17646,DEDI LITTLE,Lobbyist,17646,DEDI LITTLE (Self),07/2023,08/08/2023,,,0.0,0.0,0.0,0.0,0.0,0.0,0.0,0.0,0.0,0.0,0.0,,,,,View report (https://accesshub.pdc.wa.gov/node/107290),,,
265,107295-39111,107295,FE,28847,Amber McPhee-Millard,Employer,39111,NORTHWEST AGRICULTURE BUSINESS CENTER,06/2023,08/08/2023,16696.0,NORTHWEST AGRICULTURE BUSINESS CENTER,0.0,0.0,0.0,0.0,0.0,0.0,0.0,0.0,0.0,0.0,0.0,39111.0,Direct,,,View report (https://accesshub.pdc.wa.gov/node/107295),Agriculture,Agriculture Issues,House and Senate Committees
266,107295-45587,107295,FE,28847,Amber McPhee-Millard,Employer,45587,BreakThrough Inc.,06/2023,08/08/2023,32015.0,BreakThrough Inc.,0.0,0.0,0.0,0.0,0.0,0.0,0.0,0.0,0.0,0.0,0.0,45587.0,Direct,,,View report (https://accesshub.pdc.wa.gov/node/107295),Human services,Human Services Issues,House and Senate Committees
267,107295-51992,107295,FE,28847,Amber McPhee-Millard,Employer,51992,WA ASSN FOR CHILDREN & FAMILIES,06/2023,08/08/2023,17229.0,WA ASSN FOR CHILDREN & FAMILIES,4738.0,0.0,4738.0,0.0,0.0,0.0,0.0,0.0,0.0,0.0,4738.0,51992.0,Direct,,,View report (https://accesshub.pdc.wa.gov/node/107295),Human services,Human Services Issues,House and Senate Committees
268,107295-28847,107295,FE,28847,Amber McPhee-Millard,Lobbyist,28847,Amber McPhee-Millard (Self),06/2023,08/08/2023,,,0.0,0.0,0.0,0.0,0.0,0.0,0.0,0.0,0.0,0.0,0.0,,,,,View report (https://accesshub.pdc.wa.gov/node/107295),,,
269,107289-19244,107289,FE,17790,GAIL TORAASON MCGAFFICK INC*,Employer,19244,FRESENIUS MEDICAL CARE NORTH AMERICA,07/2023,08/08/2023,16462.0,FRESENIUS MEDICAL CARE NORTH AMERICA,4500.0,0.0,4500.0,0.0,0.0,0.0,0.0,0.0,0.0,0.0,4500.0,19244.0,Direct,,,View report (https://accesshub.pdc.wa.gov/node/107289),,,
270,107289-19246,107289,FE,17790,GAIL TORAASON MCGAFFICK INC*,Employer,19246,Washington State Podiatric Medical Association,07/2023,08/08/2023,17272.0,Washington State Podiatric Medical Association,4000.0,0.0,4000.0,0.0,0.0,0.0,0.0,0.0,0.0,0.0,4000.0,19246.0,Direct,,,View report (https://accesshub.pdc.wa.gov/node/107289),Health Care,monitor health care rulemaking,"DOH, HCA, OIC, Podiatric Medical Board, NCQAC, PQAC"
274,107289-28018,107289,FE,17790,GAIL TORAASON MCGAFFICK INC*,Employer,28018,VIRGINIA MASON FRANCISCAN HEALTH,07/2023,08/08/2023,17037.0,VIRGINIA MASON FRANCISCAN HEALTH,3000.0,0.0,3000.0,0.0,0.0,0.0,0.0,0.0,0.0,0.0,3000.0,28018.0,Direct,,,View report (https://accesshub.pdc.wa.gov/node/107289),Health Care,Monitor health care and labor rulemaking on multiple issues to include implementation of SHB 1124,"DOH, HCA, OIC, NCQAC, PQAC"
275,107289-17790,107289,FE,17790,GAIL TORAASON MCGAFFICK INC*,Lobbyist,17790,GAIL TORAASON MCGAFFICK INC* (Self),07/2023,08/08/2023,,,0.0,0.0,0.0,0.0,0.0,0.0,0.0,0.0,0.0,0.0,0.0,,,,,View report (https://accesshub.pdc.wa.gov/node/107289),,,
280,100706-19207,100706,FE,17779,MCBRIDE PUBLIC AFFAIRS LLC*,Employer,19207,"Elevance Health, and its Affiliates",01/2023,08/08/2023,16107.0,"Elevance Health, and its Affiliates",5000.0,0.0,5000.0,0.0,0.0,0.0,0.0,0.0,0.0,0.0,5000.0,19207.0,Direct,,,View report (https://accesshub.pdc.wa.gov/node/100706),Human services,Medicaid,HEALTH CARE BUDGET HUMAN SERVICES
281,100706-19208,100706,FE,17779,MCBRIDE PUBLIC AFFAIRS LLC*,Employer,19208,AMGEN INC,01/2023,08/08/2023,16127.0,AMGEN INC,4500.0,0.0,4500.0,0.0,0.0,0.0,0.0,0.0,0.0,0.0,4500.0,19208.0,Direct,,,View report (https://accesshub.pdc.wa.gov/node/100706),Health Care,"Health Care 1450, 5074,1269",HEALTH CARE TECH WAYS & MEANS
282,100706-19210,100706,FE,17779,MCBRIDE PUBLIC AFFAIRS LLC*,Employer,19210,BOEING,01/2023,08/08/2023,16201.0,BOEING,10000.0,0.0,10000.0,0.0,0.0,0.0,0.0,0.0,0.0,0.0,10000.0,19210.0,Direct,,,View report (https://accesshub.pdc.wa.gov/node/100706),Transportation,"TRANSPORTATION 1505, 5447",TRANSPORTATION LABOR EDUCATION DOR
283,100706-19211,100706,FE,17779,MCBRIDE PUBLIC AFFAIRS LLC*,Employer,19211,CITY OF BELLINGHAM,01/2023,08/08/2023,16276.0,CITY OF BELLINGHAM,4000.0,-2400.0,1600.0,0.0,0.0,0.0,0.0,0.0,0.0,0.0,1600.0,19211.0,Direct,,,View report (https://accesshub.pdc.wa.gov/node/100706),Local government,Economic Development,MTCA BUDGET LOCAL GOVERNMENT TRANSPORTATION
284,100706-19212,100706,FE,17779,MCBRIDE PUBLIC AFFAIRS LLC*,Employer,19212,CITY OF KENNEWICK,01/2023,08/08/2023,16290.0,CITY OF KENNEWICK,4120.0,-2746.0,1374.0,0.0,0.0,0.0,0.0,0.0,0.0,0.0,1374.0,19212.0,Direct,,,View report (https://accesshub.pdc.wa.gov/node/100706),Transportation,transportation,House Senate All
285,100706-19214,100706,FE,17779,MCBRIDE PUBLIC AFFAIRS LLC*,Employer,19214,DART CONTAINER CORP (THROUGH MULTISTATE ASSOCIATES LLC),01/2023,08/08/2023,16379.0,DART CONTAINER CORP (THROUGH MULTISTATE ASSOCIATES LLC),3500.0,0.0,3500.0,0.0,0.0,0.0,0.0,0.0,0.0,0.0,3500.0,19214.0,Direct,,,View report (https://accesshub.pdc.wa.gov/node/100706),Environmental Affairs - natural resources - parks,"5348, 1131",ENVIRONMENT LABOR
286,100706-19217,100706,FE,17779,MCBRIDE PUBLIC AFFAIRS LLC*,Employer,19217,HONDA NORTH AMERICA (THRU MULTISTATE ASSOCIATES LLC),01/2023,08/08/2023,16510.0,HONDA NORTH AMERICA (THRU MULTISTATE ASSOCIATES LLC),3500.0,0.0,3500.0,0.0,0.0,0.0,0.0,0.0,0.0,0.0,3500.0,19217.0,Direct,,,View report (https://accesshub.pdc.wa.gov/node/100706),Environmental Affairs - natural resources - parks,Environmental Affairs,TRANSPORTATION PUBLIC SAFETY
287,100706-19218,100706,FE,17779,MCBRIDE PUBLIC AFFAIRS LLC*,Employer,19218,KITSAP CO,01/2023,08/08/2023,16580.0,KITSAP CO,5500.0,0.0,5500.0,0.0,0.0,0.0,0.0,0.0,0.0,0.0,5500.0,19218.0,Direct,,,View report (https://accesshub.pdc.wa.gov/node/100706),Local government,"1181, 5144, 5203, 1350",REVENUE LOCAL GOV TRANSPORTATION
288,100706-19219,100706,FE,17779,MCBRIDE PUBLIC AFFAIRS LLC*,Employer,19219,McDonalds Corporation,01/2023,08/08/2023,16625.0,McDonalds Corporation,3333.33,0.0,3333.33,0.0,0.0,0.0,0.0,0.0,0.0,0.0,3333.33,19219.0,Direct,,,View report (https://accesshub.pdc.wa.gov/node/100706),Business and consumer affairs,COMMERCE,1131
289,100706-19220,100706,FE,17779,MCBRIDE PUBLIC AFFAIRS LLC*,Employer,19220,MERSCORP INC (THRU MULTISTATE ASSOCIATES LLC),01/2023,08/08/2023,16633.0,MERSCORP INC (THRU MULTISTATE ASSOCIATES LLC),3800.0,0.0,3800.0,0.0,0.0,0.0,0.0,0.0,0.0,0.0,3800.0,19220.0,Direct,,,View report (https://accesshub.pdc.wa.gov/node/100706),Business and consumer affairs,"Business, Finance, Banking",House Senate All
290,100706-19221,100706,FE,17779,MCBRIDE PUBLIC AFFAIRS LLC*,Employer,19221,NATIONAL ELEVATOR INDUSTRY INC,01/2023,08/08/2023,16663.0,NATIONAL ELEVATOR INDUSTRY INC,4000.0,0.0,4000.0,0.0,0.0,0.0,0.0,0.0,0.0,0.0,4000.0,19221.0,Direct,,,View report (https://accesshub.pdc.wa.gov/node/100706),Business and consumer affairs,COMMERCE,ELEVATOR REGS L&I LABOR COMMERCE
291,100706-19222,100706,FE,17779,MCBRIDE PUBLIC AFFAIRS LLC*,Employer,19222,PORT OF BELLINGHAM,01/2023,08/08/2023,16792.0,PORT OF BELLINGHAM,4000.0,-2400.0,1600.0,0.0,0.0,0.0,0.0,0.0,0.0,0.0,1600.0,19222.0,Direct,,,View report (https://accesshub.pdc.wa.gov/node/100706),Local government,MTCA,BUDGET LOCAL GOVT TRANSPORTATION
292,100706-19224,100706,FE,17779,MCBRIDE PUBLIC AFFAIRS LLC*,Employer,19224,QUEST DIAGNOSTICS ,01/2023,08/08/2023,16836.0,QUEST DIAGNOSTICS ,5000.0,0.0,5000.0,0.0,0.0,0.0,0.0,0.0,0.0,0.0,5000.0,19224.0,Direct,,,View report (https://accesshub.pdc.wa.gov/node/100706),,,
293,100706-19225,100706,FE,17779,MCBRIDE PUBLIC AFFAIRS LLC*,Employer,19225,THYSSENKRUPP ELEVATOR,01/2023,08/08/2023,16983.0,THYSSENKRUPP ELEVATOR,5000.0,0.0,5000.0,0.0,0.0,0.0,0.0,0.0,0.0,0.0,5000.0,19225.0,Direct,,,View report (https://accesshub.pdc.wa.gov/node/100706),Labor,COMMERCE LABOR,LABOR & INDUSTRIES
294,100706-19226,100706,FE,17779,MCBRIDE PUBLIC AFFAIRS LLC*,Employer,19226,WA ASSN OF JUVENILE COURT ADMINISTRATORS,01/2023,08/08/2023,17139.0,WA ASSN OF JUVENILE COURT ADMINISTRATORS,3825.0,0.0,3825.0,0.0,706.6,0.0,0.0,0.0,0.0,706.6,4531.6,19226.0,Direct,,,View report (https://accesshub.pdc.wa.gov/node/100706),Law and justice,"1440, 5434, 5644",JUVENILE SERVICES BUDGET
295,100706-19228,100706,FE,17779,MCBRIDE PUBLIC AFFAIRS LLC*,Employer,19228,Whatcom Co,01/2023,08/08/2023,17307.0,Whatcom Co,4000.0,-2400.0,1600.0,0.0,0.0,0.0,0.0,0.0,0.0,0.0,1600.0,19228.0,Direct,,,View report (https://accesshub.pdc.wa.gov/node/100706),Local government,HOUSING,BUDGET LOCAL GOVT TRANSPORTATION
296,100706-30638,100706,FE,17779,MCBRIDE PUBLIC AFFAIRS LLC*,Employer,30638,Growth Energy,01/2023,08/08/2023,30635.0,Growth Energy,5000.0,0.0,5000.0,0.0,0.0,0.0,0.0,0.0,0.0,0.0,5000.0,30638.0,Direct,,,View report (https://accesshub.pdc.wa.gov/node/100706),Agriculture,"5447, 1505",House Senate All
297,100706-49669,100706,FE,17779,MCBRIDE PUBLIC AFFAIRS LLC*,Employer,49669,Molson Coors Beverage Company USA LLC,01/2023,08/08/2023,16366.0,Molson Coors Beverage Company USA LLC,4333.0,0.0,4333.0,0.0,0.0,0.0,0.0,0.0,0.0,0.0,4333.0,49669.0,Direct,,,View report (https://accesshub.pdc.wa.gov/node/100706),Labor,Labor,House Commerce & Gaming AND Senate Labor & Commerce
298,100706-68909,100706,FE,17779,MCBRIDE PUBLIC AFFAIRS LLC*,Employer,68909,SPOKANE PUBLIC FACILITIES DIST,01/2023,08/08/2023,16942.0,SPOKANE PUBLIC FACILITIES DIST,3000.0,0.0,3000.0,0.0,0.0,0.0,0.0,0.0,0.0,0.0,3000.0,68909.0,Direct,,,View report (https://accesshub.pdc.wa.gov/node/100706),Fiscal,"local government, fiscal",House Senate All - Department of Commerce
299,100706-68980,100706,FE,17779,MCBRIDE PUBLIC AFFAIRS LLC*,Employer,68980,Superior Court Judges Association,01/2023,08/08/2023,16960.0,Superior Court Judges Association,9012.5,0.0,9012.5,0.0,0.0,0.0,0.0,0.0,0.0,0.0,9012.5,68980.0,Direct,,,View report (https://accesshub.pdc.wa.gov/node/100706),Law and justice,"5434, 1440","House Senate All - Department of Corrections, Administrative Office of the Courts"
300,100706-69394,100706,FE,17779,MCBRIDE PUBLIC AFFAIRS LLC*,Employer,69394,MT SPOKANE 2000,01/2023,08/08/2023,16649.0,MT SPOKANE 2000,3000.0,0.0,3000.0,0.0,0.0,0.0,0.0,0.0,0.0,0.0,3000.0,69394.0,Direct,,,View report (https://accesshub.pdc.wa.gov/node/100706),State government,"Parks, environment, fiscal, labor",House Senate All - Department of Commerce
301,100706-71478,100706,FE,17779,MCBRIDE PUBLIC AFFAIRS LLC*,Employer,71478,UNION PACIFIC RAILROAD CO,01/2023,08/08/2023,17004.0,UNION PACIFIC RAILROAD CO,4666.0,0.0,4666.0,0.0,0.0,0.0,0.0,0.0,0.0,0.0,4666.0,71478.0,Direct,,,View report (https://accesshub.pdc.wa.gov/node/100706),Transportation,"1548, 5267",Senate and House All - Utilities and Transportation Commission
302,100706-71629,100706,FE,17779,MCBRIDE PUBLIC AFFAIRS LLC*,Employer,71629,WHATCOM CO COUNCIL OF GOVERNMENTS,01/2023,08/08/2023,17308.0,WHATCOM CO COUNCIL OF GOVERNMENTS,4070.0,0.0,4070.0,0.0,0.0,0.0,0.0,0.0,0.0,0.0,4070.0,71629.0,Direct,,,View report (https://accesshub.pdc.wa.gov/node/100706),Fiscal,fiscal,"House Senate All, Transportation & Fiscal Committees"
303,100706-75131,100706,FE,17779,MCBRIDE PUBLIC AFFAIRS LLC*,Employer,75131,SURPLUS LINE ASSN OF WA,01/2023,08/08/2023,16962.0,SURPLUS LINE ASSN OF WA,7500.0,0.0,7500.0,0.0,0.0,0.0,0.0,0.0,0.0,0.0,7500.0,75131.0,Direct,,,View report (https://accesshub.pdc.wa.gov/node/100706),Financial institutions and insurance,"Insurance, OIC, Business",House Senate All
304,100706-80296,100706,FE,17779,MCBRIDE PUBLIC AFFAIRS LLC*,Employer,80296,"Horizon Therapeutics USA, Inc.",01/2023,08/08/2023,80293.0,"Horizon Therapeutics USA, Inc.",5000.0,0.0,5000.0,0.0,0.0,0.0,0.0,0.0,0.0,0.0,5000.0,80296.0,Direct,,,View report (https://accesshub.pdc.wa.gov/node/100706),Business and consumer affairs,Business & Consumer Affairs,House Senate All
305,100706-81253,100706,FE,17779,MCBRIDE PUBLIC AFFAIRS LLC*,Employer,81253,S. C. Johnson & Son,01/2023,08/08/2023,81208.0,S. C. Johnson & Son,5000.0,0.0,5000.0,0.0,0.0,0.0,0.0,0.0,0.0,0.0,5000.0,81253.0,Direct,,,View report (https://accesshub.pdc.wa.gov/node/100706),Environmental Affairs - natural resources - parks,1131,House Senate All
306,100706-86735,100706,FE,17779,MCBRIDE PUBLIC AFFAIRS LLC*,Employer,86735,Uber Technologies Inc and Affiliates,01/2023,08/08/2023,17001.0,Uber Technologies Inc and Affiliates,5000.0,0.0,5000.0,0.0,0.0,0.0,0.0,0.0,0.0,0.0,5000.0,86735.0,Direct,,,View report (https://accesshub.pdc.wa.gov/node/100706),Labor,labor,House Senate All
307,100706-96893,100706,FE,17779,MCBRIDE PUBLIC AFFAIRS LLC*,Employer,96893,Albemarle Corporation,01/2023,08/08/2023,96892.0,Albemarle Corporation,8000.0,0.0,8000.0,0.0,0.0,0.0,0.0,0.0,0.0,0.0,8000.0,96893.0,Direct,,,View report (https://accesshub.pdc.wa.gov/node/100706),Business and consumer affairs,Business & Consumer Affairs,"House, Senate All, Dept. of Ecology"
308,100706-98449,100706,FE,17779,MCBRIDE PUBLIC AFFAIRS LLC*,Employer,98449,"Prime Therapeutics, LLC",01/2023,08/08/2023,36475.0,"Prime Therapeutics, LLC",5000.0,0.0,5000.0,0.0,0.0,0.0,0.0,0.0,0.0,0.0,5000.0,98449.0,Direct,,,View report (https://accesshub.pdc.wa.gov/node/100706),Health Care,Health Care,House Senate All
309,100706-101027,100706,FE,17779,MCBRIDE PUBLIC AFFAIRS LLC*,Employer,101027,"Performa Labs, Inc.",01/2023,08/08/2023,100949.0,"Performa Labs, Inc.",5000.0,0.0,5000.0,0.0,0.0,0.0,0.0,0.0,0.0,0.0,5000.0,101027.0,Direct,,,View report (https://accesshub.pdc.wa.gov/node/100706),Fiscal,fiscal,House Senate All
310,100706-103892,100706,FE,17779,MCBRIDE PUBLIC AFFAIRS LLC*,Employer,103892,"Al Fakher Distribution USA, Inc.",01/2023,08/08/2023,76082.0,"Al Fakher Distribution USA, Inc.",3000.0,0.0,3000.0,0.0,0.0,0.0,0.0,0.0,0.0,0.0,3000.0,103892.0,Direct,,,View report (https://accesshub.pdc.wa.gov/node/100706),Health Care,Health Care,House Senate All
311,100706-17779,100706,FE,17779,MCBRIDE PUBLIC AFFAIRS LLC*,Lobbyist,17779,MCBRIDE PUBLIC AFFAIRS LLC* (Self),01/2023,08/08/2023,,,0.0,0.0,0.0,0.0,0.0,0.0,0.0,0.0,0.0,0.0,0.0,,,,,View report (https://accesshub.pdc.wa.gov/node/100706),,,
312,102497-19207,102497,FE,17779,MCBRIDE PUBLIC AFFAIRS LLC*,Employer,19207,"Elevance Health, and its Affiliates",02/2023,08/08/2023,16107.0,"Elevance Health, and its Affiliates",5000.0,0.0,5000.0,0.0,0.0,0.0,0.0,0.0,0.0,0.0,5000.0,19207.0,Direct,,,View report (https://accesshub.pdc.wa.gov/node/102497),Human services,Medicaid,HEALTH CARE BUDGET HUMAN SERVICES
313,102497-19208,102497,FE,17779,MCBRIDE PUBLIC AFFAIRS LLC*,Employer,19208,AMGEN INC,02/2023,08/08/2023,16127.0,AMGEN INC,4500.0,0.0,4500.0,0.0,0.0,0.0,0.0,0.0,0.0,0.0,4500.0,19208.0,Direct,,,View report (https://accesshub.pdc.wa.gov/node/102497),Health Care,"Health Care 1450, 5074,1269",HEALTH CARE TECH WAYS & MEANS
314,102497-19210,102497,FE,17779,MCBRIDE PUBLIC AFFAIRS LLC*,Employer,19210,BOEING,02/2023,08/08/2023,16201.0,BOEING,10000.0,0.0,10000.0,0.0,0.0,0.0,0.0,0.0,0.0,0.0,10000.0,19210.0,Direct,,,View report (https://accesshub.pdc.wa.gov/node/102497),Transportation,"TRANSPORTATION 1505, 5447",TRANSPORTATION LABOR EDUCATION DOR
315,102497-19211,102497,FE,17779,MCBRIDE PUBLIC AFFAIRS LLC*,Employer,19211,CITY OF BELLINGHAM,02/2023,08/08/2023,16276.0,CITY OF BELLINGHAM,4000.0,-2400.0,1600.0,0.0,0.0,0.0,0.0,0.0,0.0,0.0,1600.0,19211.0,Direct,,,View report (https://accesshub.pdc.wa.gov/node/102497),Local government,Economic Development,MTCA BUDGET LOCAL GOVERNMENT TRANSPORTATION
316,102497-19212,102497,FE,17779,MCBRIDE PUBLIC AFFAIRS LLC*,Employer,19212,CITY OF KENNEWICK,02/2023,08/08/2023,16290.0,CITY OF KENNEWICK,4120.0,-2746.0,1374.0,0.0,0.0,0.0,0.0,0.0,0.0,0.0,1374.0,19212.0,Direct,,,View report (https://accesshub.pdc.wa.gov/node/102497),Transportation,transportation,House Senate All
317,102497-19214,102497,FE,17779,MCBRIDE PUBLIC AFFAIRS LLC*,Employer,19214,DART CONTAINER CORP (THROUGH MULTISTATE ASSOCIATES LLC),02/2023,08/08/2023,16379.0,DART CONTAINER CORP (THROUGH MULTISTATE ASSOCIATES LLC),3500.0,0.0,3500.0,0.0,0.0,0.0,0.0,0.0,0.0,0.0,3500.0,19214.0,Direct,,,View report (https://accesshub.pdc.wa.gov/node/102497),Environmental Affairs - natural resources - parks,"5348, 1131",ENVIRONMENT LABOR
318,102497-19217,102497,FE,17779,MCBRIDE PUBLIC AFFAIRS LLC*,Employer,19217,HONDA NORTH AMERICA (THRU MULTISTATE ASSOCIATES LLC),02/2023,08/08/2023,16510.0,HONDA NORTH AMERICA (THRU MULTISTATE ASSOCIATES LLC),3500.0,0.0,3500.0,0.0,0.0,0.0,0.0,0.0,0.0,0.0,3500.0,19217.0,Direct,,,View report (https://accesshub.pdc.wa.gov/node/102497),Environmental Affairs - natural resources - parks,Environmental Affairs,TRANSPORTATION PUBLIC SAFETY
319,102497-19218,102497,FE,17779,MCBRIDE PUBLIC AFFAIRS LLC*,Employer,19218,KITSAP CO,02/2023,08/08/2023,16580.0,KITSAP CO,5500.0,0.0,5500.0,0.0,0.0,0.0,0.0,0.0,0.0,0.0,5500.0,19218.0,Direct,,,View report (https://accesshub.pdc.wa.gov/node/102497),Local government,"1181, 5144, 5203, 1350",REVENUE LOCAL GOV TRANSPORTATION
320,102497-19219,102497,FE,17779,MCBRIDE PUBLIC AFFAIRS LLC*,Employer,19219,McDonalds Corporation,02/2023,08/08/2023,16625.0,McDonalds Corporation,3333.33,0.0,3333.33,0.0,0.0,0.0,0.0,0.0,0.0,0.0,3333.33,19219.0,Direct,,,View report (https://accesshub.pdc.wa.gov/node/102497),Business and consumer affairs,COMMERCE,1131
321,102497-19220,102497,FE,17779,MCBRIDE PUBLIC AFFAIRS LLC*,Employer,19220,MERSCORP INC (THRU MULTISTATE ASSOCIATES LLC),02/2023,08/08/2023,16633.0,MERSCORP INC (THRU MULTISTATE ASSOCIATES LLC),3800.0,0.0,3800.0,0.0,0.0,0.0,0.0,0.0,0.0,0.0,3800.0,19220.0,Direct,,,View report (https://accesshub.pdc.wa.gov/node/102497),Business and consumer affairs,"Business, Finance, Banking",House Senate All
322,102497-19221,102497,FE,17779,MCBRIDE PUBLIC AFFAIRS LLC*,Employer,19221,NATIONAL ELEVATOR INDUSTRY INC,02/2023,08/08/2023,16663.0,NATIONAL ELEVATOR INDUSTRY INC,4000.0,0.0,4000.0,0.0,0.0,0.0,0.0,0.0,0.0,0.0,4000.0,19221.0,Direct,,,View report (https://accesshub.pdc.wa.gov/node/102497),Business and consumer affairs,COMMERCE,ELEVATOR REGS L&I LABOR COMMERCE
323,102497-19222,102497,FE,17779,MCBRIDE PUBLIC AFFAIRS LLC*,Employer,19222,PORT OF BELLINGHAM,02/2023,08/08/2023,16792.0,PORT OF BELLINGHAM,4000.0,-2400.0,1600.0,0.0,0.0,0.0,0.0,0.0,0.0,0.0,1600.0,19222.0,Direct,,,View report (https://accesshub.pdc.wa.gov/node/102497),Local government,MTCA,BUDGET LOCAL GOVT TRANSPORTATION
324,102497-19224,102497,FE,17779,MCBRIDE PUBLIC AFFAIRS LLC*,Employer,19224,QUEST DIAGNOSTICS ,02/2023,08/08/2023,16836.0,QUEST DIAGNOSTICS ,5000.0,0.0,5000.0,0.0,0.0,0.0,0.0,0.0,0.0,0.0,5000.0,19224.0,Direct,,,View report (https://accesshub.pdc.wa.gov/node/102497),,,
325,102497-19225,102497,FE,17779,MCBRIDE PUBLIC AFFAIRS LLC*,Employer,19225,THYSSENKRUPP ELEVATOR,02/2023,08/08/2023,16983.0,THYSSENKRUPP ELEVATOR,5000.0,0.0,5000.0,0.0,0.0,0.0,0.0,0.0,0.0,0.0,5000.0,19225.0,Direct,,,View report (https://accesshub.pdc.wa.gov/node/102497),Labor,COMMERCE LABOR,LABOR & INDUSTRIES
326,102497-19226,102497,FE,17779,MCBRIDE PUBLIC AFFAIRS LLC*,Employer,19226,WA ASSN OF JUVENILE COURT ADMINISTRATORS,02/2023,08/08/2023,17139.0,WA ASSN OF JUVENILE COURT ADMINISTRATORS,3825.0,0.0,3825.0,0.0,0.0,0.0,0.0,0.0,0.0,0.0,3825.0,19226.0,Direct,,,View report (https://accesshub.pdc.wa.gov/node/102497),Law and justice,"1440, 5434, 5644",JUVENILE SERVICES BUDGET
327,102497-19228,102497,FE,17779,MCBRIDE PUBLIC AFFAIRS LLC*,Employer,19228,Whatcom Co,02/2023,08/08/2023,17307.0,Whatcom Co,4000.0,-2400.0,1600.0,0.0,0.0,0.0,0.0,0.0,0.0,0.0,1600.0,19228.0,Direct,,,View report (https://accesshub.pdc.wa.gov/node/102497),Local government,HOUSING,BUDGET LOCAL GOVT TRANSPORTATION
328,102497-30638,102497,FE,17779,MCBRIDE PUBLIC AFFAIRS LLC*,Employer,30638,Growth Energy,02/2023,08/08/2023,30635.0,Growth Energy,5000.0,0.0,5000.0,0.0,0.0,0.0,0.0,0.0,0.0,0.0,5000.0,30638.0,Direct,,,View report (https://accesshub.pdc.wa.gov/node/102497),Agriculture,"5447, 1505",House Senate All
329,102497-49669,102497,FE,17779,MCBRIDE PUBLIC AFFAIRS LLC*,Employer,49669,Molson Coors Beverage Company USA LLC,02/2023,08/08/2023,16366.0,Molson Coors Beverage Company USA LLC,4333.0,0.0,4333.0,0.0,0.0,0.0,0.0,0.0,0.0,0.0,4333.0,49669.0,Direct,,,View report (https://accesshub.pdc.wa.gov/node/102497),Labor,Labor,House Commerce & Gaming AND Senate Labor & Commerce
330,102497-58157,102497,FE,17779,MCBRIDE PUBLIC AFFAIRS LLC*,Employer,58157,"Copart, Inc.",02/2023,08/08/2023,58135.0,"Copart, Inc.",0.0,0.0,0.0,0.0,0.0,0.0,0.0,0.0,0.0,0.0,0.0,58157.0,Direct,,,View report (https://accesshub.pdc.wa.gov/node/102497),,,
331,102497-68909,102497,FE,17779,MCBRIDE PUBLIC AFFAIRS LLC*,Employer,68909,SPOKANE PUBLIC FACILITIES DIST,02/2023,08/08/2023,16942.0,SPOKANE PUBLIC FACILITIES DIST,3000.0,0.0,3000.0,0.0,0.0,0.0,0.0,0.0,0.0,0.0,3000.0,68909.0,Direct,,,View report (https://accesshub.pdc.wa.gov/node/102497),Fiscal,"local government, fiscal",House Senate All - Department of Commerce
332,102497-68980,102497,FE,17779,MCBRIDE PUBLIC AFFAIRS LLC*,Employer,68980,Superior Court Judges Association,02/2023,08/08/2023,16960.0,Superior Court Judges Association,9012.5,0.0,9012.5,0.0,0.0,0.0,0.0,0.0,0.0,0.0,9012.5,68980.0,Direct,,,View report (https://accesshub.pdc.wa.gov/node/102497),Law and justice,"5434, 1440","House Senate All - Department of Corrections, Administrative Office of the Courts"
333,102497-69394,102497,FE,17779,MCBRIDE PUBLIC AFFAIRS LLC*,Employer,69394,MT SPOKANE 2000,02/2023,08/08/2023,16649.0,MT SPOKANE 2000,3000.0,0.0,3000.0,0.0,0.0,0.0,0.0,0.0,0.0,0.0,3000.0,69394.0,Direct,,,View report (https://accesshub.pdc.wa.gov/node/102497),State government,"Parks, environment, fiscal, labor",House Senate All - Department of Commerce
334,102497-71478,102497,FE,17779,MCBRIDE PUBLIC AFFAIRS LLC*,Employer,71478,UNION PACIFIC RAILROAD CO,02/2023,08/08/2023,17004.0,UNION PACIFIC RAILROAD CO,4666.0,0.0,4666.0,0.0,0.0,0.0,0.0,0.0,0.0,0.0,4666.0,71478.0,Direct,,,View report (https://accesshub.pdc.wa.gov/node/102497),Transportation,"1548, 5267",Senate and House All - Utilities and Transportation Commission
335,102497-71629,102497,FE,17779,MCBRIDE PUBLIC AFFAIRS LLC*,Employer,71629,WHATCOM CO COUNCIL OF GOVERNMENTS,02/2023,08/08/2023,17308.0,WHATCOM CO COUNCIL OF GOVERNMENTS,4070.0,0.0,4070.0,0.0,0.0,0.0,0.0,0.0,0.0,0.0,4070.0,71629.0,Direct,,,View report (https://accesshub.pdc.wa.gov/node/102497),Fiscal,fiscal,"House Senate All, Transportation & Fiscal Committees"
336,102497-75131,102497,FE,17779,MCBRIDE PUBLIC AFFAIRS LLC*,Employer,75131,SURPLUS LINE ASSN OF WA,02/2023,08/08/2023,16962.0,SURPLUS LINE ASSN OF WA,7500.0,0.0,7500.0,0.0,0.0,0.0,0.0,0.0,0.0,0.0,7500.0,75131.0,Direct,,,View report (https://accesshub.pdc.wa.gov/node/102497),Financial institutions and insurance,"Insurance, OIC, Business",House Senate All
337,102497-80296,102497,FE,17779,MCBRIDE PUBLIC AFFAIRS LLC*,Employer,80296,"Horizon Therapeutics USA, Inc.",02/2023,08/08/2023,80293.0,"Horizon Therapeutics USA, Inc.",5000.0,0.0,5000.0,0.0,0.0,0.0,0.0,0.0,0.0,0.0,5000.0,80296.0,Direct,,,View report (https://accesshub.pdc.wa.gov/node/102497),Business and consumer affairs,Business & Consumer Affairs,House Senate All
338,102497-81253,102497,FE,17779,MCBRIDE PUBLIC AFFAIRS LLC*,Employer,81253,S. C. Johnson & Son,02/2023,08/08/2023,81208.0,S. C. Johnson & Son,5000.0,0.0,5000.0,0.0,0.0,0.0,0.0,0.0,0.0,0.0,5000.0,81253.0,Direct,,,View report (https://accesshub.pdc.wa.gov/node/102497),Environmental Affairs - natural resources - parks,1131,House Senate All
339,102497-86735,102497,FE,17779,MCBRIDE PUBLIC AFFAIRS LLC*,Employer,86735,Uber Technologies Inc and Affiliates,02/2023,08/08/2023,17001.0,Uber Technologies Inc and Affiliates,5400.0,0.0,5400.0,0.0,0.0,0.0,0.0,0.0,0.0,0.0,5400.0,86735.0,Direct,,,View report (https://accesshub.pdc.wa.gov/node/102497),Labor,labor,House Senate All
340,102497-96893,102497,FE,17779,MCBRIDE PUBLIC AFFAIRS LLC*,Employer,96893,Albemarle Corporation,02/2023,08/08/2023,96892.0,Albemarle Corporation,8000.0,0.0,8000.0,0.0,0.0,0.0,0.0,0.0,0.0,0.0,8000.0,96893.0,Direct,,,View report (https://accesshub.pdc.wa.gov/node/102497),Business and consumer affairs,Business & Consumer Affairs,"House, Senate All, Dept. of Ecology"
341,102497-98449,102497,FE,17779,MCBRIDE PUBLIC AFFAIRS LLC*,Employer,98449,"Prime Therapeutics, LLC",02/2023,08/08/2023,36475.0,"Prime Therapeutics, LLC",5000.0,0.0,5000.0,0.0,0.0,0.0,0.0,0.0,0.0,0.0,5000.0,98449.0,Direct,,,View report (https://accesshub.pdc.wa.gov/node/102497),Health Care,Health Care,House Senate All
342,102497-101027,102497,FE,17779,MCBRIDE PUBLIC AFFAIRS LLC*,Employer,101027,"Performa Labs, Inc.",02/2023,08/08/2023,100949.0,"Performa Labs, Inc.",5000.0,0.0,5000.0,0.0,0.0,0.0,0.0,0.0,0.0,0.0,5000.0,101027.0,Direct,,,View report (https://accesshub.pdc.wa.gov/node/102497),Fiscal,fiscal,House Senate All
343,102497-103892,102497,FE,17779,MCBRIDE PUBLIC AFFAIRS LLC*,Employer,103892,"Al Fakher Distribution USA, Inc.",02/2023,08/08/2023,76082.0,"Al Fakher Distribution USA, Inc.",3000.0,0.0,3000.0,0.0,0.0,0.0,0.0,0.0,0.0,0.0,3000.0,103892.0,Direct,,,View report (https://accesshub.pdc.wa.gov/node/102497),Health Care,Health Care,House Senate All
344,102497-17779,102497,FE,17779,MCBRIDE PUBLIC AFFAIRS LLC*,Lobbyist,17779,MCBRIDE PUBLIC AFFAIRS LLC* (Self),02/2023,08/08/2023,,,0.0,0.0,0.0,0.0,143.61,0.0,0.0,0.0,0.0,143.61,143.61,,,,,View report (https://accesshub.pdc.wa.gov/node/102497),,,
345,104576-19207,104576,FE,17779,MCBRIDE PUBLIC AFFAIRS LLC*,Employer,19207,"Elevance Health, and its Affiliates",04/2023,08/08/2023,16107.0,"Elevance Health, and its Affiliates",5000.0,0.0,5000.0,0.0,0.0,0.0,0.0,0.0,0.0,0.0,5000.0,19207.0,Direct,,,View report (https://accesshub.pdc.wa.gov/node/104576),Human services,Medicaid,HEALTH CARE BUDGET HUMAN SERVICES
346,104576-19208,104576,FE,17779,MCBRIDE PUBLIC AFFAIRS LLC*,Employer,19208,AMGEN INC,04/2023,08/08/2023,16127.0,AMGEN INC,4500.0,0.0,4500.0,0.0,0.0,0.0,0.0,0.0,0.0,0.0,4500.0,19208.0,Direct,,,View report (https://accesshub.pdc.wa.gov/node/104576),Health Care,"Health Care 1450, 5074,1269",HEALTH CARE TECH WAYS & MEANS
347,104576-19210,104576,FE,17779,MCBRIDE PUBLIC AFFAIRS LLC*,Employer,19210,BOEING,04/2023,08/08/2023,16201.0,BOEING,10000.0,0.0,10000.0,0.0,0.0,0.0,0.0,0.0,0.0,0.0,10000.0,19210.0,Direct,,,View report (https://accesshub.pdc.wa.gov/node/104576),Transportation,"TRANSPORTATION 1505, 5447",TRANSPORTATION LABOR EDUCATION DOR
348,104576-19211,104576,FE,17779,MCBRIDE PUBLIC AFFAIRS LLC*,Employer,19211,CITY OF BELLINGHAM,04/2023,08/08/2023,16276.0,CITY OF BELLINGHAM,4000.0,-2400.0,1600.0,0.0,0.0,0.0,0.0,0.0,0.0,0.0,1600.0,19211.0,Direct,,,View report (https://accesshub.pdc.wa.gov/node/104576),Local government,Economic Development,MTCA BUDGET LOCAL GOVERNMENT TRANSPORTATION
349,104576-19212,104576,FE,17779,MCBRIDE PUBLIC AFFAIRS LLC*,Employer,19212,CITY OF KENNEWICK,04/2023,08/08/2023,16290.0,CITY OF KENNEWICK,4120.0,-2746.0,1374.0,0.0,0.0,0.0,0.0,0.0,0.0,0.0,1374.0,19212.0,Direct,,,View report (https://accesshub.pdc.wa.gov/node/104576),Transportation,transportation,House Senate All
350,104576-19214,104576,FE,17779,MCBRIDE PUBLIC AFFAIRS LLC*,Employer,19214,DART CONTAINER CORP (THROUGH MULTISTATE ASSOCIATES LLC),04/2023,08/08/2023,16379.0,DART CONTAINER CORP (THROUGH MULTISTATE ASSOCIATES LLC),3500.0,0.0,3500.0,0.0,0.0,0.0,0.0,0.0,0.0,0.0,3500.0,19214.0,Direct,,,View report (https://accesshub.pdc.wa.gov/node/104576),Environmental Affairs - natural resources - parks,"5348, 1131",ENVIRONMENT LABOR
351,104576-19217,104576,FE,17779,MCBRIDE PUBLIC AFFAIRS LLC*,Employer,19217,HONDA NORTH AMERICA (THRU MULTISTATE ASSOCIATES LLC),04/2023,08/08/2023,16510.0,HONDA NORTH AMERICA (THRU MULTISTATE ASSOCIATES LLC),3500.0,0.0,3500.0,0.0,0.0,0.0,0.0,0.0,0.0,0.0,3500.0,19217.0,Direct,,,View report (https://accesshub.pdc.wa.gov/node/104576),Environmental Affairs - natural resources - parks,Environmental Affairs,TRANSPORTATION PUBLIC SAFETY
352,104576-19218,104576,FE,17779,MCBRIDE PUBLIC AFFAIRS LLC*,Employer,19218,KITSAP CO,04/2023,08/08/2023,16580.0,KITSAP CO,5665.0,0.0,5665.0,0.0,0.0,0.0,0.0,0.0,0.0,0.0,5665.0,19218.0,Direct,,,View report (https://accesshub.pdc.wa.gov/node/104576),Local government,"1181, 5144, 5203, 1350",REVENUE LOCAL GOV TRANSPORTATION
353,104576-19219,104576,FE,17779,MCBRIDE PUBLIC AFFAIRS LLC*,Employer,19219,McDonalds Corporation,04/2023,08/08/2023,16625.0,McDonalds Corporation,3333.33,0.0,3333.33,0.0,0.0,0.0,0.0,0.0,0.0,0.0,3333.33,19219.0,Direct,,,View report (https://accesshub.pdc.wa.gov/node/104576),Business and consumer affairs,COMMERCE,1131
354,104576-19220,104576,FE,17779,MCBRIDE PUBLIC AFFAIRS LLC*,Employer,19220,MERSCORP INC (THRU MULTISTATE ASSOCIATES LLC),04/2023,08/08/2023,16633.0,MERSCORP INC (THRU MULTISTATE ASSOCIATES LLC),3800.0,0.0,3800.0,0.0,0.0,0.0,0.0,0.0,0.0,0.0,3800.0,19220.0,Direct,,,View report (https://accesshub.pdc.wa.gov/node/104576),Business and consumer affairs,"Business, Finance, Banking",House Senate All
355,104576-19221,104576,FE,17779,MCBRIDE PUBLIC AFFAIRS LLC*,Employer,19221,NATIONAL ELEVATOR INDUSTRY INC,04/2023,08/08/2023,16663.0,NATIONAL ELEVATOR INDUSTRY INC,4000.0,0.0,4000.0,0.0,0.0,0.0,0.0,0.0,0.0,0.0,4000.0,19221.0,Direct,,,View report (https://accesshub.pdc.wa.gov/node/104576),Business and consumer affairs,COMMERCE,ELEVATOR REGS L&I LABOR COMMERCE
356,104576-19222,104576,FE,17779,MCBRIDE PUBLIC AFFAIRS LLC*,Employer,19222,PORT OF BELLINGHAM,04/2023,08/08/2023,16792.0,PORT OF BELLINGHAM,4000.0,-2400.0,1600.0,0.0,0.0,0.0,0.0,0.0,0.0,0.0,1600.0,19222.0,Direct,,,View report (https://accesshub.pdc.wa.gov/node/104576),Local government,MTCA,BUDGET LOCAL GOVT TRANSPORTATION
357,104576-19224,104576,FE,17779,MCBRIDE PUBLIC AFFAIRS LLC*,Employer,19224,QUEST DIAGNOSTICS ,04/2023,08/08/2023,16836.0,QUEST DIAGNOSTICS ,5000.0,0.0,5000.0,0.0,0.0,0.0,0.0,0.0,0.0,0.0,5000.0,19224.0,Direct,,,View report (https://accesshub.pdc.wa.gov/node/104576),,,
358,104576-19225,104576,FE,17779,MCBRIDE PUBLIC AFFAIRS LLC*,Employer,19225,THYSSENKRUPP ELEVATOR,04/2023,08/08/2023,16983.0,THYSSENKRUPP ELEVATOR,5000.0,0.0,5000.0,0.0,0.0,0.0,0.0,0.0,0.0,0.0,5000.0,19225.0,Direct,,,View report (https://accesshub.pdc.wa.gov/node/104576),Labor,COMMERCE LABOR,LABOR & INDUSTRIES
359,104576-19226,104576,FE,17779,MCBRIDE PUBLIC AFFAIRS LLC*,Employer,19226,WA ASSN OF JUVENILE COURT ADMINISTRATORS,04/2023,08/08/2023,17139.0,WA ASSN OF JUVENILE COURT ADMINISTRATORS,4208.0,0.0,4208.0,0.0,0.0,0.0,0.0,0.0,0.0,0.0,4208.0,19226.0,Direct,,,View report (https://accesshub.pdc.wa.gov/node/104576),Law and justice,"1440, 5434, 5644",JUVENILE SERVICES BUDGET
360,104576-19228,104576,FE,17779,MCBRIDE PUBLIC AFFAIRS LLC*,Employer,19228,Whatcom Co,04/2023,08/08/2023,17307.0,Whatcom Co,4000.0,-2400.0,1600.0,0.0,0.0,0.0,0.0,0.0,0.0,0.0,1600.0,19228.0,Direct,,,View report (https://accesshub.pdc.wa.gov/node/104576),Local government,HOUSING,BUDGET LOCAL GOVT TRANSPORTATION
361,104576-30638,104576,FE,17779,MCBRIDE PUBLIC AFFAIRS LLC*,Employer,30638,Growth Energy,04/2023,08/08/2023,30635.0,Growth Energy,5000.0,0.0,5000.0,0.0,0.0,0.0,0.0,0.0,0.0,0.0,5000.0,30638.0,Direct,,,View report (https://accesshub.pdc.wa.gov/node/104576),Agriculture,"5447, 1505",House Senate All
362,104576-49669,104576,FE,17779,MCBRIDE PUBLIC AFFAIRS LLC*,Employer,49669,Molson Coors Beverage Company USA LLC,04/2023,08/08/2023,16366.0,Molson Coors Beverage Company USA LLC,4333.0,0.0,4333.0,0.0,0.0,0.0,0.0,0.0,0.0,0.0,4333.0,49669.0,Direct,,,View report (https://accesshub.pdc.wa.gov/node/104576),Labor,Labor,House Commerce & Gaming AND Senate Labor & Commerce
363,104576-58157,104576,FE,17779,MCBRIDE PUBLIC AFFAIRS LLC*,Employer,58157,"Copart, Inc.",04/2023,08/08/2023,58135.0,"Copart, Inc.",0.0,0.0,0.0,0.0,0.0,0.0,0.0,0.0,0.0,0.0,0.0,58157.0,Direct,,,View report (https://accesshub.pdc.wa.gov/node/104576),,,
364,104576-68909,104576,FE,17779,MCBRIDE PUBLIC AFFAIRS LLC*,Employer,68909,SPOKANE PUBLIC FACILITIES DIST,04/2023,08/08/2023,16942.0,SPOKANE PUBLIC FACILITIES DIST,3000.0,0.0,3000.0,0.0,0.0,0.0,0.0,0.0,0.0,0.0,3000.0,68909.0,Direct,,,View report (https://accesshub.pdc.wa.gov/node/104576),Fiscal,"local government, fiscal",House Senate All - Department of Commerce
365,104576-68980,104576,FE,17779,MCBRIDE PUBLIC AFFAIRS LLC*,Employer,68980,Superior Court Judges Association,04/2023,08/08/2023,16960.0,Superior Court Judges Association,9012.5,0.0,9012.5,0.0,0.0,0.0,0.0,0.0,0.0,0.0,9012.5,68980.0,Direct,,,View report (https://accesshub.pdc.wa.gov/node/104576),Law and justice,"5434, 1440","House Senate All - Department of Corrections, Administrative Office of the Courts"
366,104576-69394,104576,FE,17779,MCBRIDE PUBLIC AFFAIRS LLC*,Employer,69394,MT SPOKANE 2000,04/2023,08/08/2023,16649.0,MT SPOKANE 2000,3000.0,0.0,3000.0,0.0,0.0,0.0,0.0,0.0,0.0,0.0,3000.0,69394.0,Direct,,,View report (https://accesshub.pdc.wa.gov/node/104576),State government,"Parks, environment, fiscal, labor",House Senate All - Department of Commerce
367,104576-71478,104576,FE,17779,MCBRIDE PUBLIC AFFAIRS LLC*,Employer,71478,UNION PACIFIC RAILROAD CO,04/2023,08/08/2023,17004.0,UNION PACIFIC RAILROAD CO,4666.0,0.0,4666.0,0.0,0.0,0.0,0.0,0.0,0.0,0.0,4666.0,71478.0,Direct,,,View report (https://accesshub.pdc.wa.gov/node/104576),Transportation,"1548, 5267",Senate and House All - Utilities and Transportation Commission
368,104576-71629,104576,FE,17779,MCBRIDE PUBLIC AFFAIRS LLC*,Employer,71629,WHATCOM CO COUNCIL OF GOVERNMENTS,04/2023,08/08/2023,17308.0,WHATCOM CO COUNCIL OF GOVERNMENTS,4070.0,0.0,4070.0,0.0,0.0,0.0,0.0,0.0,0.0,0.0,4070.0,71629.0,Direct,,,View report (https://accesshub.pdc.wa.gov/node/104576),Fiscal,fiscal,"House Senate All, Transportation & Fiscal Committees"
369,104576-75131,104576,FE,17779,MCBRIDE PUBLIC AFFAIRS LLC*,Employer,75131,SURPLUS LINE ASSN OF WA,04/2023,08/08/2023,16962.0,SURPLUS LINE ASSN OF WA,7500.0,0.0,7500.0,0.0,0.0,0.0,0.0,0.0,0.0,0.0,7500.0,75131.0,Direct,,,View report (https://accesshub.pdc.wa.gov/node/104576),Financial institutions and insurance,"Insurance, OIC, Business",House Senate All
370,104576-80296,104576,FE,17779,MCBRIDE PUBLIC AFFAIRS LLC*,Employer,80296,"Horizon Therapeutics USA, Inc.",04/2023,08/08/2023,80293.0,"Horizon Therapeutics USA, Inc.",5000.0,0.0,5000.0,0.0,0.0,0.0,0.0,0.0,0.0,0.0,5000.0,80296.0,Direct,,,View report (https://accesshub.pdc.wa.gov/node/104576),Business and consumer affairs,Business & Consumer Affairs,House Senate All
371,104576-81253,104576,FE,17779,MCBRIDE PUBLIC AFFAIRS LLC*,Employer,81253,S. C. Johnson & Son,04/2023,08/08/2023,81208.0,S. C. Johnson & Son,5000.0,0.0,5000.0,0.0,0.0,0.0,0.0,0.0,0.0,0.0,5000.0,81253.0,Direct,,,View report (https://accesshub.pdc.wa.gov/node/104576),Environmental Affairs - natural resources - parks,1131,House Senate All
372,104576-86735,104576,FE,17779,MCBRIDE PUBLIC AFFAIRS LLC*,Employer,86735,Uber Technologies Inc and Affiliates,04/2023,08/08/2023,17001.0,Uber Technologies Inc and Affiliates,5400.0,0.0,5400.0,0.0,0.0,0.0,0.0,0.0,0.0,0.0,5400.0,86735.0,Direct,,,View report (https://accesshub.pdc.wa.gov/node/104576),Labor,labor,House Senate All
373,104576-96893,104576,FE,17779,MCBRIDE PUBLIC AFFAIRS LLC*,Employer,96893,Albemarle Corporation,04/2023,08/08/2023,96892.0,Albemarle Corporation,8000.0,0.0,8000.0,0.0,0.0,0.0,0.0,0.0,0.0,0.0,8000.0,96893.0,Direct,,,View report (https://accesshub.pdc.wa.gov/node/104576),Business and consumer affairs,Business & Consumer Affairs,"House, Senate All, Dept. of Ecology"
374,104576-98449,104576,FE,17779,MCBRIDE PUBLIC AFFAIRS LLC*,Employer,98449,"Prime Therapeutics, LLC",04/2023,08/08/2023,36475.0,"Prime Therapeutics, LLC",5000.0,0.0,5000.0,0.0,0.0,0.0,0.0,0.0,0.0,0.0,5000.0,98449.0,Direct,,,View report (https://accesshub.pdc.wa.gov/node/104576),Health Care,Health Care,House Senate All
375,104576-101027,104576,FE,17779,MCBRIDE PUBLIC AFFAIRS LLC*,Employer,101027,"Performa Labs, Inc.",04/2023,08/08/2023,100949.0,"Performa Labs, Inc.",5000.0,0.0,5000.0,0.0,0.0,0.0,0.0,0.0,0.0,0.0,5000.0,101027.0,Direct,,,View report (https://accesshub.pdc.wa.gov/node/104576),Fiscal,fiscal,House Senate All
376,104576-103892,104576,FE,17779,MCBRIDE PUBLIC AFFAIRS LLC*,Employer,103892,"Al Fakher Distribution USA, Inc.",04/2023,08/08/2023,76082.0,"Al Fakher Distribution USA, Inc.",3000.0,0.0,3000.0,0.0,0.0,0.0,0.0,0.0,0.0,0.0,3000.0,103892.0,Direct,,,View report (https://accesshub.pdc.wa.gov/node/104576),,,
377,104576-17779,104576,FE,17779,MCBRIDE PUBLIC AFFAIRS LLC*,Lobbyist,17779,MCBRIDE PUBLIC AFFAIRS LLC* (Self),04/2023,08/08/2023,,,0.0,0.0,0.0,0.0,0.0,0.0,0.0,0.0,0.0,0.0,0.0,,,,,View report (https://accesshub.pdc.wa.gov/node/104576),,,
378,105515-19207,105515,FE,17779,MCBRIDE PUBLIC AFFAIRS LLC*,Employer,19207,"Elevance Health, and its Affiliates",05/2023,08/08/2023,16107.0,"Elevance Health, and its Affiliates",5000.0,0.0,5000.0,0.0,0.0,0.0,0.0,0.0,0.0,0.0,5000.0,19207.0,Direct,,,View report (https://accesshub.pdc.wa.gov/node/105515),Human services,Medicaid,HEALTH CARE BUDGET HUMAN SERVICES
379,105515-19208,105515,FE,17779,MCBRIDE PUBLIC AFFAIRS LLC*,Employer,19208,AMGEN INC,05/2023,08/08/2023,16127.0,AMGEN INC,4500.0,0.0,4500.0,0.0,0.0,0.0,0.0,0.0,0.0,0.0,4500.0,19208.0,Direct,,,View report (https://accesshub.pdc.wa.gov/node/105515),Health Care,"Health Care 1450, 5074,1269",HEALTH CARE TECH WAYS & MEANS
380,105515-19210,105515,FE,17779,MCBRIDE PUBLIC AFFAIRS LLC*,Employer,19210,BOEING,05/2023,08/08/2023,16201.0,BOEING,10000.0,0.0,10000.0,0.0,0.0,0.0,0.0,0.0,0.0,0.0,10000.0,19210.0,Direct,,,View report (https://accesshub.pdc.wa.gov/node/105515),Transportation,"TRANSPORTATION 1505, 5447",TRANSPORTATION LABOR EDUCATION DOR
381,105515-19211,105515,FE,17779,MCBRIDE PUBLIC AFFAIRS LLC*,Employer,19211,CITY OF BELLINGHAM,05/2023,08/08/2023,16276.0,CITY OF BELLINGHAM,4000.0,-2400.0,1600.0,0.0,0.0,0.0,0.0,0.0,0.0,0.0,1600.0,19211.0,Direct,,,View report (https://accesshub.pdc.wa.gov/node/105515),Local government,Economic Development,MTCA BUDGET LOCAL GOVERNMENT TRANSPORTATION
382,105515-19212,105515,FE,17779,MCBRIDE PUBLIC AFFAIRS LLC*,Employer,19212,CITY OF KENNEWICK,05/2023,08/08/2023,16290.0,CITY OF KENNEWICK,4120.0,-2746.0,1374.0,0.0,0.0,0.0,0.0,0.0,0.0,0.0,1374.0,19212.0,Direct,,,View report (https://accesshub.pdc.wa.gov/node/105515),Transportation,transportation,House Senate All
383,105515-19214,105515,FE,17779,MCBRIDE PUBLIC AFFAIRS LLC*,Employer,19214,DART CONTAINER CORP (THROUGH MULTISTATE ASSOCIATES LLC),05/2023,08/08/2023,16379.0,DART CONTAINER CORP (THROUGH MULTISTATE ASSOCIATES LLC),3500.0,0.0,3500.0,0.0,0.0,0.0,0.0,0.0,0.0,0.0,3500.0,19214.0,Direct,,,View report (https://accesshub.pdc.wa.gov/node/105515),Environmental Affairs - natural resources - parks,"5348, 1131",ENVIRONMENT LABOR
384,105515-19217,105515,FE,17779,MCBRIDE PUBLIC AFFAIRS LLC*,Employer,19217,HONDA NORTH AMERICA (THRU MULTISTATE ASSOCIATES LLC),05/2023,08/08/2023,16510.0,HONDA NORTH AMERICA (THRU MULTISTATE ASSOCIATES LLC),3500.0,0.0,3500.0,0.0,0.0,0.0,0.0,0.0,0.0,0.0,3500.0,19217.0,Direct,,,View report (https://accesshub.pdc.wa.gov/node/105515),Environmental Affairs - natural resources - parks,Environmental Affairs,TRANSPORTATION PUBLIC SAFETY
385,105515-19218,105515,FE,17779,MCBRIDE PUBLIC AFFAIRS LLC*,Employer,19218,KITSAP CO,05/2023,08/08/2023,16580.0,KITSAP CO,5665.0,0.0,5665.0,0.0,0.0,0.0,0.0,0.0,0.0,0.0,5665.0,19218.0,Direct,,,View report (https://accesshub.pdc.wa.gov/node/105515),Local government,"1181, 5144, 5203, 1350",REVENUE LOCAL GOV TRANSPORTATION
386,105515-19219,105515,FE,17779,MCBRIDE PUBLIC AFFAIRS LLC*,Employer,19219,McDonalds Corporation,05/2023,08/08/2023,16625.0,McDonalds Corporation,3333.33,0.0,3333.33,0.0,0.0,0.0,0.0,0.0,0.0,0.0,3333.33,19219.0,Direct,,,View report (https://accesshub.pdc.wa.gov/node/105515),Business and consumer affairs,COMMERCE,1131
387,105515-19220,105515,FE,17779,MCBRIDE PUBLIC AFFAIRS LLC*,Employer,19220,MERSCORP INC (THRU MULTISTATE ASSOCIATES LLC),05/2023,08/08/2023,16633.0,MERSCORP INC (THRU MULTISTATE ASSOCIATES LLC),3800.0,0.0,3800.0,0.0,0.0,0.0,0.0,0.0,0.0,0.0,3800.0,19220.0,Direct,,,View report (https://accesshub.pdc.wa.gov/node/105515),Business and consumer affairs,"Business, Finance, Banking",House Senate All
388,105515-19221,105515,FE,17779,MCBRIDE PUBLIC AFFAIRS LLC*,Employer,19221,NATIONAL ELEVATOR INDUSTRY INC,05/2023,08/08/2023,16663.0,NATIONAL ELEVATOR INDUSTRY INC,4000.0,0.0,4000.0,0.0,0.0,0.0,0.0,0.0,0.0,0.0,4000.0,19221.0,Direct,,,View report (https://accesshub.pdc.wa.gov/node/105515),Business and consumer affairs,COMMERCE,ELEVATOR REGS L&I LABOR COMMERCE
389,105515-19222,105515,FE,17779,MCBRIDE PUBLIC AFFAIRS LLC*,Employer,19222,PORT OF BELLINGHAM,05/2023,08/08/2023,16792.0,PORT OF BELLINGHAM,4000.0,-2400.0,1600.0,0.0,0.0,0.0,0.0,0.0,0.0,0.0,1600.0,19222.0,Direct,,,View report (https://accesshub.pdc.wa.gov/node/105515),Local government,MTCA,BUDGET LOCAL GOVT TRANSPORTATION
390,105515-19224,105515,FE,17779,MCBRIDE PUBLIC AFFAIRS LLC*,Employer,19224,QUEST DIAGNOSTICS ,05/2023,08/08/2023,16836.0,QUEST DIAGNOSTICS ,5000.0,0.0,5000.0,0.0,0.0,0.0,0.0,0.0,0.0,0.0,5000.0,19224.0,Direct,,,View report (https://accesshub.pdc.wa.gov/node/105515),,,
391,105515-19225,105515,FE,17779,MCBRIDE PUBLIC AFFAIRS LLC*,Employer,19225,THYSSENKRUPP ELEVATOR,05/2023,08/08/2023,16983.0,THYSSENKRUPP ELEVATOR,5000.0,0.0,5000.0,0.0,0.0,0.0,0.0,0.0,0.0,0.0,5000.0,19225.0,Direct,,,View report (https://accesshub.pdc.wa.gov/node/105515),Labor,COMMERCE LABOR,LABOR & INDUSTRIES
392,105515-19226,105515,FE,17779,MCBRIDE PUBLIC AFFAIRS LLC*,Employer,19226,WA ASSN OF JUVENILE COURT ADMINISTRATORS,05/2023,08/08/2023,17139.0,WA ASSN OF JUVENILE COURT ADMINISTRATORS,4208.0,0.0,4208.0,0.0,0.0,0.0,0.0,0.0,0.0,0.0,4208.0,19226.0,Direct,,,View report (https://accesshub.pdc.wa.gov/node/105515),Law and justice,"1440, 5434, 5644",JUVENILE SERVICES BUDGET
393,105515-19228,105515,FE,17779,MCBRIDE PUBLIC AFFAIRS LLC*,Employer,19228,Whatcom Co,05/2023,08/08/2023,17307.0,Whatcom Co,4000.0,-2400.0,1600.0,0.0,0.0,0.0,0.0,0.0,0.0,0.0,1600.0,19228.0,Direct,,,View report (https://accesshub.pdc.wa.gov/node/105515),Local government,HOUSING,BUDGET LOCAL GOVT TRANSPORTATION
394,105515-30638,105515,FE,17779,MCBRIDE PUBLIC AFFAIRS LLC*,Employer,30638,Growth Energy,05/2023,08/08/2023,30635.0,Growth Energy,5000.0,0.0,5000.0,0.0,0.0,0.0,0.0,0.0,0.0,0.0,5000.0,30638.0,Direct,,,View report (https://accesshub.pdc.wa.gov/node/105515),Agriculture,"5447, 1505",House Senate All
395,105515-49669,105515,FE,17779,MCBRIDE PUBLIC AFFAIRS LLC*,Employer,49669,Molson Coors Beverage Company USA LLC,05/2023,08/08/2023,16366.0,Molson Coors Beverage Company USA LLC,4333.0,0.0,4333.0,0.0,0.0,0.0,0.0,0.0,0.0,0.0,4333.0,49669.0,Direct,,,View report (https://accesshub.pdc.wa.gov/node/105515),Labor,Labor,House Commerce & Gaming AND Senate Labor & Commerce
396,105515-58157,105515,FE,17779,MCBRIDE PUBLIC AFFAIRS LLC*,Employer,58157,"Copart, Inc.",05/2023,08/08/2023,58135.0,"Copart, Inc.",0.0,0.0,0.0,0.0,0.0,0.0,0.0,0.0,0.0,0.0,0.0,58157.0,Direct,,,View report (https://accesshub.pdc.wa.gov/node/105515),,,
