,id,report_number,origin,filer_id,filer_name,type,funding_source_id,funding_source_name,filing_period,receipt_date,employer_id,employer_name,compensation,sub_lobbyist_compensation,net_compensation,personal_expenses,entertainment,contributions,advertising,political_ads,other,total_expenses,net_total,employment_registration_id,employment_type,contractor_id,contractor_name,url,legislation_subject_matter,issue_bill_number,committee_lobbied
0,24334-18316,24334,FE,17411,LARRY BROWN,Employer,18316,Intl Assn of Machinists & Aerospace Workers Dist Lodge 751,16-Jul,8/3/2016,16072.0,Intl Assn of Machinists & Aerospace Workers Dist Lodge 751,482.8,0.0,482.8,0.0,0.0,0.0,0.0,0.0,0.0,0.0,482.8,18316.0,Direct,,,View report (https://accesshub.pdc.wa.gov/node/24334),Transportation,,
1,24327-19592,24327,FE,17951,Noah Seidel,Employer,19592,ARC OF WA ST,16-Jul,8/3/2016,16137.0,ARC OF WA ST,200.0,0.0,200.0,0.0,0.0,0.0,0.0,0.0,0.0,0.0,200.0,19592.0,Direct,,,View report (https://accesshub.pdc.wa.gov/node/24327),,,
2,24301-19236,24301,FE,17786,Leonard A Mc Comb,Employer,19236,ASSN OF WA PUBLIC HOSPITAL DISTRICTS,16-Jul,8/3/2016,16170.0,ASSN OF WA PUBLIC HOSPITAL DISTRICTS,4500.0,0.0,4500.0,426.96,0.0,0.0,0.0,0.0,0.0,426.96,4926.96,19236.0,Direct,,,View report (https://accesshub.pdc.wa.gov/node/24301),Fiscal,,
3,24326-18232,24326,FE,17376,JERRY BENDER,Employer,18232,ASSN OF WA SCHOOL PRINCIPALS,16-Jul,8/3/2016,16173.0,ASSN OF WA SCHOOL PRINCIPALS,2956.8,0.0,2956.8,0.0,0.0,0.0,0.0,0.0,0.0,0.0,2956.8,18232.0,Direct,,,View report (https://accesshub.pdc.wa.gov/node/24326),Education,,
4,24314-18213,24314,FE,17364,BOB BASS,Employer,18213,AT&T SERVICES INC,16-Jul,8/3/2016,16175.0,AT&T SERVICES INC,1000.0,0.0,1000.0,0.0,0.0,0.0,0.0,0.0,0.0,0.0,1000.0,18213.0,Direct,,,View report (https://accesshub.pdc.wa.gov/node/24314),Technology,,
9,24301-19237,24301,FE,17786,Leonard A Mc Comb,Employer,19237,CITY OF EVERETT,16-Jul,8/3/2016,16281.0,CITY OF EVERETT,4000.0,0.0,4000.0,0.0,0.0,0.0,0.0,0.0,0.0,0.0,4000.0,19237.0,Direct,,,View report (https://accesshub.pdc.wa.gov/node/24301),Fiscal,,
10,24301-19238,24301,FE,17786,Leonard A Mc Comb,Employer,19238,COMMUNITY HEALTH NETWORK OF WA,16-Jul,8/3/2016,16348.0,COMMUNITY HEALTH NETWORK OF WA,12500.0,0.0,12500.0,1585.22,0.0,0.0,0.0,0.0,0.0,1585.22,14085.22,19238.0,Direct,,,View report (https://accesshub.pdc.wa.gov/node/24301),Fiscal,,
12,24322-19537,24322,FE,17914,TACY A READING,Employer,19537,FOOD LIFELINE,16-Jul,8/3/2016,16448.0,FOOD LIFELINE,3163.0,0.0,3163.0,19.19,0.0,0.0,0.0,0.0,0.0,19.19,3182.19,19537.0,Direct,,,View report (https://accesshub.pdc.wa.gov/node/24322),Human services,,
13,24307-18519,24307,FE,17473,CATHY DAHLQUIST,Employer,18519,"Northwest Fiber, LLC dba Ziply Fiber",16-Jul,8/3/2016,16463.0,"Northwest Fiber, LLC dba Ziply Fiber",6897.0,0.0,6897.0,0.0,0.0,0.0,0.0,0.0,0.0,0.0,6897.0,18519.0,Direct,,,View report (https://accesshub.pdc.wa.gov/node/24307),Energy and utilities,,
15,24328-19676,24328,FE,17988,KRAIG M STEVENSON,Employer,19676,INTL CODE COUNCIL,16-Jul,8/3/2016,16539.0,INTL CODE COUNCIL,405.32,0.0,405.32,396.76,0.0,0.0,0.0,0.0,0.0,396.76,802.08,19676.0,Direct,,,View report (https://accesshub.pdc.wa.gov/node/24328),,,
16,24301-19239,24301,FE,17786,Leonard A Mc Comb,Employer,19239,PORT OF EVERETT,16-Jul,8/3/2016,16797.0,PORT OF EVERETT,3000.0,0.0,3000.0,0.0,0.0,0.0,0.0,0.0,0.0,0.0,3000.0,19239.0,Direct,,,View report (https://accesshub.pdc.wa.gov/node/24301),Fiscal,,
19,24325-18476,24325,FE,17457,MONTY COBB,Employer,18476,WA ASSN OF COUNTY OFFICIALS,16-Jul,8/3/2016,17085.0,WA ASSN OF COUNTY OFFICIALS,3000.0,0.0,3000.0,0.0,0.0,0.0,0.0,0.0,0.0,0.0,3000.0,18476.0,Direct,,,View report (https://accesshub.pdc.wa.gov/node/24325),Local government,,
21,24319-19612,24319,FE,17959,EVAN SHEFFELS,Employer,19612,WA ST FARM BUREAU,16-Jul,8/3/2016,17246.0,WA ST FARM BUREAU,4000.0,0.0,4000.0,0.0,0.0,0.0,0.0,0.0,0.0,0.0,4000.0,19612.0,Direct,,,View report (https://accesshub.pdc.wa.gov/node/24319),Agriculture,,
22,24294-19715,24294,FE,17999,MARK L STREULI,Employer,19715,WA ST FARM BUREAU,16-Jul,8/3/2016,17246.0,WA ST FARM BUREAU,4000.0,0.0,4000.0,0.0,0.0,0.0,0.0,0.0,0.0,0.0,4000.0,19715.0,Direct,,,View report (https://accesshub.pdc.wa.gov/node/24294),Agriculture,,
23,24286-19722,24286,FE,18007,JOHN STUHLMILLER,Employer,19722,WA ST FARM BUREAU,16-Jul,8/3/2016,17246.0,WA ST FARM BUREAU,2000.0,0.0,2000.0,0.0,0.0,0.0,0.0,0.0,0.0,0.0,2000.0,19722.0,Direct,,,View report (https://accesshub.pdc.wa.gov/node/24286),Agriculture,,
24,24301-19240,24301,FE,17786,Leonard A Mc Comb,Employer,19240,WA ST HOSPITAL ASSN,16-Jul,8/3/2016,17252.0,WA ST HOSPITAL ASSN,10500.0,0.0,10500.0,996.26,0.0,0.0,0.0,0.0,0.0,996.26,11496.26,19240.0,Direct,,,View report (https://accesshub.pdc.wa.gov/node/24301),Fiscal,,
31,24331-18345,24331,FE,17430,CAPITOL CONNECTION*,Employer,18345,ALLIANCE FOR AUTOMOTIVE INNOVATION,16-Jul,8/4/2016,16081.0,ALLIANCE FOR AUTOMOTIVE INNOVATION,4250.0,0.0,4250.0,0.0,0.0,3000.0,0.0,0.0,0.0,3000.0,7250.0,18345.0,Direct,,,View report (https://accesshub.pdc.wa.gov/node/24331),Environmental Affairs - natural resources - parks,,
32,24349-18145,24349,FE,17339,Amber D Lewis Consulting LLC,Employer,18145,ASSISTED LIVING FEDERATION OF AMERICA,16-Jul,8/4/2016,16145.0,ASSISTED LIVING FEDERATION OF AMERICA,3500.0,0.0,3500.0,0.0,0.0,0.0,0.0,0.0,0.0,0.0,3500.0,18145.0,Direct,,,View report (https://accesshub.pdc.wa.gov/node/24349),Health Care,,
33,24396-18867,24396,FE,17582,GORDON THOMAS HONEYWELL LAW*,Employer,18867,ASSN OF WA SPIRITS & WINE DISTRIBUTORS,16-Jul,8/4/2016,16172.0,ASSN OF WA SPIRITS & WINE DISTRIBUTORS,4000.0,0.0,4000.0,0.0,0.0,0.0,0.0,0.0,0.0,0.0,4000.0,18867.0,Direct,,,View report (https://accesshub.pdc.wa.gov/node/24396),Business and consumer affairs,,
34,24366-18790,24366,FE,17573,CARL GIPSON,Employer,18790,AT&T SERVICES INC,16-Jul,8/4/2016,16175.0,AT&T SERVICES INC,1000.0,0.0,1000.0,0.0,0.0,0.0,0.0,0.0,0.0,0.0,1000.0,18790.0,Direct,,,View report (https://accesshub.pdc.wa.gov/node/24366),Technology,,
35,24378-19250,24378,FE,17793,MARY MCHALE,Employer,19250,AMERICAN CANCER SOCIETY CANCER ACTION NETWORK,16-Jun,8/4/2016,16221.0,AMERICAN CANCER SOCIETY CANCER ACTION NETWORK,246.0,0.0,246.0,0.0,0.0,0.0,0.0,0.0,0.0,0.0,246.0,19250.0,Direct,,,View report (https://accesshub.pdc.wa.gov/node/24378),Health Care,,
38,24360-18875,24360,FE,17587,JON GOULD,Employer,18875,Children's Alliance,16-Jul,8/4/2016,16256.0,Children's Alliance,1000.0,0.0,1000.0,0.0,0.0,0.0,0.0,0.0,0.0,0.0,1000.0,18875.0,Direct,,,View report (https://accesshub.pdc.wa.gov/node/24360),Human services,,
39,24336-19317,24336,FE,17825,CAREY L MORRIS,Employer,19317,CHILDHAVEN,16-Jun,8/4/2016,16257.0,CHILDHAVEN,2000.0,0.0,2000.0,0.0,0.0,0.0,0.0,0.0,0.0,0.0,2000.0,19317.0,Direct,,,View report (https://accesshub.pdc.wa.gov/node/24336),Human services,,
40,24337-19317,24337,FE,17825,CAREY L MORRIS,Employer,19317,CHILDHAVEN,16-Jul,8/4/2016,16257.0,CHILDHAVEN,2000.0,0.0,2000.0,0.0,0.0,0.0,0.0,0.0,0.0,0.0,2000.0,19317.0,Direct,,,View report (https://accesshub.pdc.wa.gov/node/24337),Human services,,
42,24349-18147,24349,FE,17339,Amber D Lewis Consulting LLC,Employer,18147,DB3,16-Jul,8/4/2016,16382.0,DB3,2000.0,0.0,2000.0,0.0,0.0,0.0,0.0,0.0,0.0,0.0,2000.0,18147.0,Direct,,,View report (https://accesshub.pdc.wa.gov/node/24349),Business and consumer affairs,,
43,24352-18512,24352,FE,17469,JOSIE CUMMINGS,Employer,18512,DYNAMIC COLLECTORS INC,16-Jul,8/4/2016,16395.0,DYNAMIC COLLECTORS INC,200.0,0.0,200.0,0.0,0.0,0.0,0.0,0.0,0.0,0.0,200.0,18512.0,Direct,,,View report (https://accesshub.pdc.wa.gov/node/24352),Business and consumer affairs,,
44,24331-18346,24331,FE,17430,CAPITOL CONNECTION*,Employer,18346,EQUAL JUSTICE COALITION,16-Jul,8/4/2016,16418.0,EQUAL JUSTICE COALITION,5408.33,0.0,5408.33,111.14,0.0,0.0,0.0,0.0,0.0,111.14,5519.47,18346.0,Direct,,,View report (https://accesshub.pdc.wa.gov/node/24331),Law and justice,,
45,24349-18148,24349,FE,17339,Amber D Lewis Consulting LLC,Employer,18148,HUDSON GOVT AFFAIRS LLC,16-Jul,8/4/2016,16512.0,HUDSON GOVT AFFAIRS LLC,4000.0,0.0,4000.0,0.0,0.0,0.0,0.0,0.0,0.0,0.0,4000.0,18148.0,Direct,,,View report (https://accesshub.pdc.wa.gov/node/24349),Health Care,,
46,24331-18347,24331,FE,17430,CAPITOL CONNECTION*,Employer,18347,ALCOA US PRIMARY METALS,16-Jul,8/4/2016,16536.0,ALCOA US PRIMARY METALS,8317.5,0.0,8317.5,171.29,0.0,0.0,0.0,0.0,0.0,171.29,8488.79,18347.0,Direct,,,View report (https://accesshub.pdc.wa.gov/node/24331),Environmental Affairs - natural resources - parks,,
47,24379-19914,24379,FE,18107,THEA ZAJAC,Employer,19914,LEUKEMIA & LYMPHOMA SOCIETY,16-Jul,8/4/2016,16597.0,LEUKEMIA & LYMPHOMA SOCIETY,384.0,0.0,384.0,554.0,0.0,0.0,0.0,0.0,0.0,554.0,938.0,19914.0,Direct,,,View report (https://accesshub.pdc.wa.gov/node/24379),Health Care,,
48,24349-18149,24349,FE,17339,Amber D Lewis Consulting LLC,Employer,18149,LEWIS CO FIRE DIST 1,16-Jul,8/4/2016,16600.0,LEWIS CO FIRE DIST 1,1350.0,0.0,1350.0,0.0,0.0,0.0,0.0,0.0,0.0,0.0,1350.0,18149.0,Direct,,,View report (https://accesshub.pdc.wa.gov/node/24349),Fiscal,,
49,24383-18488,24383,FE,17462,PATRICK CONNOR,Employer,18488,NATL FEDERATION OF INDEPENDENT BUSINESS,16-Jul,8/4/2016,16665.0,NATL FEDERATION OF INDEPENDENT BUSINESS,8845.84,0.0,8845.84,1406.24,0.0,0.0,0.0,0.0,0.0,1406.24,10252.08,18488.0,Direct,,,View report (https://accesshub.pdc.wa.gov/node/24383),Business and consumer affairs,,
50,24349-19948,24349,FE,17339,Amber D Lewis Consulting LLC,Employer,19948,"NATIONAL GUARD ASSOC OF WA (Advocates, Inc.)",16-Jul,8/4/2016,16666.0,NATIONAL GUARD ASSOC OF WA,416.67,0.0,416.67,0.0,0.0,0.0,0.0,0.0,0.0,0.0,416.67,19948.0,Subcontract,17329.0,"Advocates, Inc.",View report (https://accesshub.pdc.wa.gov/node/24349),,,
51,24349-18150,24349,FE,17339,Amber D Lewis Consulting LLC,Employer,18150,NATURAL EXTRACTIONS INC,16-Jul,8/4/2016,16678.0,NATURAL EXTRACTIONS INC,2000.0,0.0,2000.0,0.0,0.0,0.0,0.0,0.0,0.0,0.0,2000.0,18150.0,Direct,,,View report (https://accesshub.pdc.wa.gov/node/24349),Business and consumer affairs,,
52,24349-18151,24349,FE,17339,Amber D Lewis Consulting LLC,Employer,18151,PORT OF CENTRALIA,16-Jul,8/4/2016,16795.0,PORT OF CENTRALIA,2500.0,0.0,2500.0,0.0,0.0,0.0,0.0,0.0,0.0,0.0,2500.0,18151.0,Direct,,,View report (https://accesshub.pdc.wa.gov/node/24349),Transportation,,
53,24342-19045,24342,FE,17684,PATRICK JONES,Employer,19045,PORT OF MOSES LAKE,16-Jul,8/4/2016,16802.0,PORT OF MOSES LAKE,3000.0,0.0,3000.0,0.0,0.0,0.0,0.0,0.0,0.0,0.0,3000.0,19045.0,Direct,,,View report (https://accesshub.pdc.wa.gov/node/24342),Transportation,,
54,24336-19323,24336,FE,17825,CAREY L MORRIS,Employer,19323,PROSPERITY COUNSELING & TREATMENT SERVICES INC,16-Jun,8/4/2016,16819.0,PROSPERITY COUNSELING & TREATMENT SERVICES INC,2000.0,0.0,2000.0,0.0,0.0,0.0,0.0,0.0,0.0,0.0,2000.0,19323.0,Direct,,,View report (https://accesshub.pdc.wa.gov/node/24336),Health Care,,
55,24337-19323,24337,FE,17825,CAREY L MORRIS,Employer,19323,PROSPERITY COUNSELING & TREATMENT SERVICES INC,16-Jul,8/4/2016,16819.0,PROSPERITY COUNSELING & TREATMENT SERVICES INC,2000.0,0.0,2000.0,0.0,0.0,0.0,0.0,0.0,0.0,0.0,2000.0,19323.0,Direct,,,View report (https://accesshub.pdc.wa.gov/node/24337),Health Care,,
58,24349-18153,24349,FE,17339,Amber D Lewis Consulting LLC,Employer,18153,TRIPLE C COLLECTIVE,16-Jul,8/4/2016,16994.0,TRIPLE C COLLECTIVE,1500.0,0.0,1500.0,0.0,0.0,0.0,0.0,0.0,0.0,0.0,1500.0,18153.0,Direct,,,View report (https://accesshub.pdc.wa.gov/node/24349),Health Care,,
59,24353-19105,24353,FE,17720,EDLIRA KUKA,Employer,19105,VULCAN INC,16-Jan,8/4/2016,17039.0,VULCAN INC,2000.0,0.0,2000.0,0.0,0.0,0.0,0.0,0.0,0.0,0.0,2000.0,19105.0,Direct,,,View report (https://accesshub.pdc.wa.gov/node/24353),Transportation,,
60,24351-19303,24351,FE,17817,ROBERT MITCHELL,Employer,19303,WA ASSN OF REALTORS,16-Jul,8/4/2016,17059.0,WA ASSN OF REALTORS,3000.0,0.0,3000.0,0.0,0.0,0.0,0.0,0.0,0.0,0.0,3000.0,19303.0,Direct,,,View report (https://accesshub.pdc.wa.gov/node/24351),Business and consumer affairs,,
61,24331-18349,24331,FE,17430,CAPITOL CONNECTION*,Employer,18349,WA FIRE COMMISSIONERS ASSN,16-Jul,8/4/2016,17113.0,WA FIRE COMMISSIONERS ASSN,6000.0,0.0,6000.0,111.14,0.0,0.0,0.0,0.0,0.0,111.14,6111.14,18349.0,Direct,,,View report (https://accesshub.pdc.wa.gov/node/24331),Environmental Affairs - natural resources - parks,,
62,24375-19738,24375,FE,18018,KRISTOPHER I TEFFT,Employer,19738,WSIA,16-Jul,8/4/2016,17194.0,WSIA,3725.0,0.0,3725.0,0.0,0.0,0.0,0.0,0.0,0.0,0.0,3725.0,19738.0,Direct,,,View report (https://accesshub.pdc.wa.gov/node/24375),Labor,,
63,24336-19324,24336,FE,17825,CAREY L MORRIS,Employer,19324,WA ST COALITION  AGAINST DOMESTIC VIOLENCE,16-Jun,8/4/2016,17227.0,WA ST COALITION  AGAINST DOMESTIC VIOLENCE,1899.56,0.0,1899.56,0.0,0.0,0.0,0.0,0.0,0.0,0.0,1899.56,19324.0,Direct,,,View report (https://accesshub.pdc.wa.gov/node/24336),,,
64,24337-19324,24337,FE,17825,CAREY L MORRIS,Employer,19324,WA ST COALITION  AGAINST DOMESTIC VIOLENCE,16-Jul,8/4/2016,17227.0,WA ST COALITION  AGAINST DOMESTIC VIOLENCE,1899.56,0.0,1899.56,0.0,0.0,0.0,0.0,0.0,0.0,0.0,1899.56,19324.0,Direct,,,View report (https://accesshub.pdc.wa.gov/node/24337),,,
65,24364-18544,24364,FE,17483,THOMAS M DAVIS,Employer,18544,WA ST FARM BUREAU,16-Jul,8/4/2016,17246.0,WA ST FARM BUREAU,4000.0,0.0,4000.0,0.0,0.0,0.0,0.0,0.0,0.0,0.0,4000.0,18544.0,Direct,,,View report (https://accesshub.pdc.wa.gov/node/24364),Agriculture,,
66,24370-19911,24370,FE,18104,ANITA YANDLE,Employer,19911,WA ST ASSN FOR JUSTICE,16-Jul,8/4/2016,17289.0,WA ST ASSN FOR JUSTICE,4500.0,0.0,4500.0,0.0,0.0,0.0,0.0,0.0,0.0,0.0,4500.0,19911.0,Direct,,,View report (https://accesshub.pdc.wa.gov/node/24370),Law and justice,,
67,24331-18350,24331,FE,17430,CAPITOL CONNECTION*,Employer,18350,WRIGHT RUNSTAD ASSOC LIMITED PARTNERSHIP,16-Jul,8/4/2016,17317.0,WRIGHT RUNSTAD ASSOC LIMITED PARTNERSHIP,3000.0,0.0,3000.0,85.97,0.0,0.0,0.0,0.0,0.0,85.97,3085.97,18350.0,Direct,,,View report (https://accesshub.pdc.wa.gov/node/24331),Transportation,,
69,24402-18801,24402,FE,17578,JEFFREY S GOMBOSKY,Employer,18801,ANHEUSER-BUSCH COMPANIES INC,16-Jul,8/5/2016,16128.0,ANHEUSER-BUSCH COMPANIES INC,5000.0,0.0,5000.0,0.0,0.0,12350.0,0.0,0.0,0.0,12350.0,17350.0,18801.0,Direct,,,View report (https://accesshub.pdc.wa.gov/node/24402),Business and consumer affairs,,
70,24408-19315,24408,FE,17823,MICHAEL M MORAN,Employer,19315,COLVILLE CONFEDERATED TRIBES,16-Jul,8/5/2016,16343.0,COLVILLE CONFEDERATED TRIBES,6500.0,0.0,6500.0,0.0,0.0,13950.0,0.0,0.0,0.0,13950.0,20450.0,19315.0,Direct,,,View report (https://accesshub.pdc.wa.gov/node/24408),Fiscal,,
71,24402-18803,24402,FE,17578,JEFFREY S GOMBOSKY,Employer,18803,ENTERPRISE HOLDINGS LLC,16-Jul,8/5/2016,16396.0,ENTERPRISE HOLDINGS LLC,1650.0,0.0,1650.0,0.0,0.0,11150.0,0.0,0.0,0.0,11150.0,12800.0,18803.0,Direct,,,View report (https://accesshub.pdc.wa.gov/node/24402),Business and consumer affairs,,
72,24402-18804,24402,FE,17578,JEFFREY S GOMBOSKY,Employer,18804,ENERGY FREEDOM COALITION OF AMERICA LLC,16-Jul,8/5/2016,16414.0,ENERGY FREEDOM COALITION OF AMERICA LLC,4000.0,0.0,4000.0,0.0,0.0,0.0,0.0,0.0,0.0,0.0,4000.0,18804.0,Direct,,,View report (https://accesshub.pdc.wa.gov/node/24402),Energy and utilities,,
73,24402-18806,24402,FE,17578,JEFFREY S GOMBOSKY,Employer,18806,"McLANE COMPANY, Inc.",16-Jul,8/5/2016,16626.0,"McLANE COMPANY, Inc.",4000.0,0.0,4000.0,0.0,0.0,0.0,0.0,0.0,0.0,0.0,4000.0,18806.0,Direct,,,View report (https://accesshub.pdc.wa.gov/node/24402),Business and consumer affairs,,
74,24402-18807,24402,FE,17578,JEFFREY S GOMBOSKY,Employer,18807,MULTICARE HEALTH SYSTEM,16-Jul,8/5/2016,16651.0,MULTICARE HEALTH SYSTEM,5000.0,0.0,5000.0,0.0,0.0,0.0,0.0,0.0,0.0,0.0,5000.0,18807.0,Direct,,,View report (https://accesshub.pdc.wa.gov/node/24402),Health Care,,
75,24423-18366,24423,FE,17432,CAPITOL STRATEGIES CONSULTING*,Employer,18366,PACIFICORP,16-Jul,8/5/2016,16746.0,PACIFICORP,6500.0,0.0,6500.0,614.44,0.0,2100.0,0.0,0.0,0.0,2714.44,9214.44,18366.0,Direct,,,View report (https://accesshub.pdc.wa.gov/node/24423),Energy and utilities,,
77,24402-18808,24402,FE,17578,JEFFREY S GOMBOSKY,Employer,18808,PHARMACEUTICAL RSRCH/MFG OF AMERICA,16-Jul,8/5/2016,16776.0,PHARMACEUTICAL RSRCH/MFG OF AMERICA,7000.0,0.0,7000.0,0.0,0.0,0.0,0.0,0.0,0.0,0.0,7000.0,18808.0,Direct,,,View report (https://accesshub.pdc.wa.gov/node/24402),Health Care,,
78,24423-18367,24423,FE,17432,CAPITOL STRATEGIES CONSULTING*,Employer,18367,PORTLAND GENERAL ELECTRIC,16-Jul,8/5/2016,16798.0,PORTLAND GENERAL ELECTRIC,2000.0,0.0,2000.0,0.0,0.0,0.0,0.0,0.0,0.0,0.0,2000.0,18367.0,Direct,,,View report (https://accesshub.pdc.wa.gov/node/24423),Fiscal,,
79,24423-18368,24423,FE,17432,CAPITOL STRATEGIES CONSULTING*,Employer,18368,SHEET METAL & AIR CONDITION CONTRACTORS WEST WA,16-Jul,8/5/2016,16909.0,SHEET METAL & AIR CONDITION CONTRACTORS WEST WA,5563.0,0.0,5563.0,0.0,0.0,0.0,0.0,0.0,0.0,0.0,5563.0,18368.0,Direct,,,View report (https://accesshub.pdc.wa.gov/node/24423),Labor,,
80,24423-18369,24423,FE,17432,CAPITOL STRATEGIES CONSULTING*,Employer,18369,SPOKANE TRANSIT AUTHORITY,16-Jul,8/5/2016,16943.0,SPOKANE TRANSIT AUTHORITY,4551.75,0.0,4551.75,0.0,0.0,0.0,0.0,0.0,0.0,0.0,4551.75,18369.0,Direct,,,View report (https://accesshub.pdc.wa.gov/node/24423),Transportation,,
84,24402-18811,24402,FE,17578,JEFFREY S GOMBOSKY,Employer,18811,WA HEALTH CARE ASSN,16-Jul,8/5/2016,17128.0,WA HEALTH CARE ASSN,4000.0,0.0,4000.0,0.0,0.0,0.0,0.0,0.0,0.0,0.0,4000.0,18811.0,Direct,,,View report (https://accesshub.pdc.wa.gov/node/24402),Human services,,
87,24409-19381,24409,FE,17861,JOHN R OLSON,Employer,19381,WA INTERSCHOLASTIC ACTIVITIES ASSN,16-Jul,8/5/2016,17131.0,WA INTERSCHOLASTIC ACTIVITIES ASSN,500.0,0.0,500.0,0.0,0.0,0.0,0.0,0.0,0.0,0.0,500.0,19381.0,Direct,,,View report (https://accesshub.pdc.wa.gov/node/24409),Education,,
88,24419-19153,24419,FE,17754,KENT LOPEZ,Employer,19153,WA RURAL ELECTRIC CO-OP ASSN,16-Jul,8/5/2016,17181.0,WA RURAL ELECTRIC CO-OP ASSN,2000.0,0.0,2000.0,0.0,0.0,0.0,0.0,0.0,0.0,0.0,2000.0,19153.0,Direct,,,View report (https://accesshub.pdc.wa.gov/node/24419),Energy and utilities,,
89,24423-18370,24423,FE,17432,CAPITOL STRATEGIES CONSULTING*,Employer,18370,WA WATER POLICY ALLIANCE,16-Jul,8/5/2016,17212.0,WA WATER POLICY ALLIANCE,2236.0,0.0,2236.0,0.0,0.0,0.0,0.0,0.0,0.0,0.0,2236.0,18370.0,Direct,,,View report (https://accesshub.pdc.wa.gov/node/24423),Agriculture,,
91,24430-19126,24430,FE,17738,WALTRAUT B LEHMANN,Employer,19126,PREMERA BLUE CROSS,16-Jul,8/6/2016,16812.0,PREMERA BLUE CROSS,302.5,0.0,302.5,0.0,0.0,0.0,0.0,0.0,0.0,0.0,302.5,19126.0,Direct,,,View report (https://accesshub.pdc.wa.gov/node/24430),Health Care,,
92,24433-19646,24433,FE,17975,LEONARD SORRIN,Employer,19646,PREMERA BLUE CROSS,16-Jul,8/6/2016,16812.0,PREMERA BLUE CROSS,253.6,0.0,253.6,0.0,0.0,31200.0,0.0,0.0,0.0,31200.0,31453.6,19646.0,Direct,,,View report (https://accesshub.pdc.wa.gov/node/24433),Health Care,,
93,24432-19734,24432,FE,18014,SHEELA TALLMAN,Employer,19734,PREMERA BLUE CROSS,16-Jul,8/6/2016,16812.0,PREMERA BLUE CROSS,363.9,0.0,363.9,0.0,0.0,0.0,0.0,0.0,0.0,0.0,363.9,19734.0,Direct,,,View report (https://accesshub.pdc.wa.gov/node/24432),Health Care,,
96,24444-19915,24444,FE,18108,JENNIFER ZIEGLER,Employer,19915,CITY OF BURIEN,16-Jul,8/7/2016,16275.0,CITY OF BURIEN,3625.0,0.0,3625.0,0.0,0.0,0.0,0.0,0.0,0.0,0.0,3625.0,19915.0,Direct,,,View report (https://accesshub.pdc.wa.gov/node/24444),,,
97,24444-19916,24444,FE,18108,JENNIFER ZIEGLER,Employer,19916,CITY OF CHENEY,16-Jul,8/7/2016,16277.0,CITY OF CHENEY,1500.0,0.0,1500.0,0.0,0.0,0.0,0.0,0.0,0.0,0.0,1500.0,19916.0,Direct,,,View report (https://accesshub.pdc.wa.gov/node/24444),Local government,,
98,24444-19917,24444,FE,18108,JENNIFER ZIEGLER,Employer,19917,CITY OF EDMONDS,16-Jul,8/7/2016,16280.0,CITY OF EDMONDS,3358.0,0.0,3358.0,0.0,0.0,0.0,0.0,0.0,0.0,0.0,3358.0,19917.0,Direct,,,View report (https://accesshub.pdc.wa.gov/node/24444),Local government,,
99,24444-20052,24444,FE,18108,JENNIFER ZIEGLER,Employer,20052,CITY OF LACEY (MARK O BROWN),16-Jul,8/7/2016,16294.0,CITY OF LACEY,500.0,0.0,500.0,0.0,0.0,0.0,0.0,0.0,0.0,0.0,500.0,20052.0,Subcontract,17413.0,MARK O BROWN,View report (https://accesshub.pdc.wa.gov/node/24444),,,
100,24444-19987,24444,FE,18108,JENNIFER ZIEGLER,Employer,19987,CITY OF LONGVIEW (MARK O BROWN),16-Jul,8/7/2016,16295.0,CITY OF LONGVIEW,1000.0,0.0,1000.0,0.0,0.0,0.0,0.0,0.0,0.0,0.0,1000.0,19987.0,Subcontract,17413.0,MARK O BROWN,View report (https://accesshub.pdc.wa.gov/node/24444),,,
101,24444-20035,24444,FE,18108,JENNIFER ZIEGLER,Employer,20035,CITY OF LAKE STEVENS (OUTCOMES BY LEVY LLC*),16-Jul,8/7/2016,16297.0,CITY OF LAKE STEVENS,2600.0,0.0,2600.0,0.0,0.0,0.0,0.0,0.0,0.0,0.0,2600.0,20035.0,Subcontract,17870.0,OUTCOMES BY LEVY LLC*,View report (https://accesshub.pdc.wa.gov/node/24444),,,
102,24444-20055,24444,FE,18108,JENNIFER ZIEGLER,Employer,20055,City of Vancouver (MARK O BROWN),16-Jul,8/7/2016,16319.0,City of Vancouver,1000.0,0.0,1000.0,0.0,0.0,0.0,0.0,0.0,0.0,0.0,1000.0,20055.0,Subcontract,17413.0,MARK O BROWN,View report (https://accesshub.pdc.wa.gov/node/24444),,,
103,24444-19985,24444,FE,18108,JENNIFER ZIEGLER,Employer,19985,CITY OF YAKIMA (James P Justin (Government Relations Consulting Inc.)),16-Jul,8/7/2016,16321.0,CITY OF YAKIMA,1500.0,0.0,1500.0,0.0,0.0,0.0,0.0,0.0,0.0,0.0,1500.0,19985.0,Subcontract,17688.0,James P Justin (Government Relations Consulting Inc.),View report (https://accesshub.pdc.wa.gov/node/24444),,,
104,24444-19919,24444,FE,18108,JENNIFER ZIEGLER,Employer,19919,HNTB CORP,16-Jul,8/7/2016,16507.0,HNTB CORP,4000.0,0.0,4000.0,0.0,0.0,0.0,0.0,0.0,0.0,0.0,4000.0,19919.0,Direct,,,View report (https://accesshub.pdc.wa.gov/node/24444),Transportation,,
105,24444-19931,24444,FE,18108,JENNIFER ZIEGLER,Employer,19931,LES SCHWAB TIRE CENTERS (PATRICK DUNN & ASSOCIATES LTD*),16-Jul,8/7/2016,16596.0,LES SCHWAB TIRE CENTERS,750.0,0.0,750.0,0.0,0.0,0.0,0.0,0.0,0.0,0.0,750.0,19931.0,Subcontract,17505.0,PATRICK DUNN & ASSOCIATES LTD*,View report (https://accesshub.pdc.wa.gov/node/24444),,,
106,24437-18163,24437,FE,17343,CODY W ARLEDGE,Employer,18163,SHEET METAL WORKERS LOCAL 66,16-Jul,8/7/2016,16910.0,SHEET METAL WORKERS LOCAL 66,8200.0,0.0,8200.0,0.0,0.0,0.0,0.0,0.0,0.0,0.0,8200.0,18163.0,Direct,,,View report (https://accesshub.pdc.wa.gov/node/24437),Labor,,
107,24444-19920,24444,FE,18108,JENNIFER ZIEGLER,Employer,19920,SMALL & MIDSIZE TRANSIT ALLIANCE,16-Jul,8/7/2016,16920.0,SMALL & MIDSIZE TRANSIT ALLIANCE,4000.0,0.0,4000.0,0.0,0.0,0.0,0.0,0.0,0.0,0.0,4000.0,19920.0,Direct,,,View report (https://accesshub.pdc.wa.gov/node/24444),Transportation,,
110,24444-19922,24444,FE,18108,JENNIFER ZIEGLER,Employer,19922,WA STATE ASSN OF COUNTIES (WSAC),16-Jul,8/7/2016,17215.0,WA STATE ASSN OF COUNTIES (WSAC),2000.0,0.0,2000.0,0.0,0.0,0.0,0.0,0.0,0.0,0.0,2000.0,19922.0,Direct,,,View report (https://accesshub.pdc.wa.gov/node/24444),Local government,,
111,24444-19923,24444,FE,18108,JENNIFER ZIEGLER,Employer,19923,WA ST PATROL LIEUTENANTS AND CAPTAINS ASSN,16-Jul,8/7/2016,17274.0,WA ST PATROL LIEUTENANTS AND CAPTAINS ASSN,1500.0,0.0,1500.0,0.0,0.0,0.0,0.0,0.0,0.0,0.0,1500.0,19923.0,Direct,,,View report (https://accesshub.pdc.wa.gov/node/24444),Transportation,,
112,24444-19924,24444,FE,18108,JENNIFER ZIEGLER,Employer,19924,WOODLAND PARK ZOO SOCIETY,16-Jul,8/7/2016,17315.0,WOODLAND PARK ZOO SOCIETY,4000.0,0.0,4000.0,0.0,0.0,0.0,0.0,0.0,0.0,0.0,4000.0,19924.0,Direct,,,View report (https://accesshub.pdc.wa.gov/node/24444),State government,,
113,24467-18983,24467,FE,17654,Trent M House,Employer,18983,AEROSPACE FUTURES ALLIANCE OF WASHINGTON LTD,16-Jul,8/8/2016,16071.0,AEROSPACE FUTURES ALLIANCE OF WASHINGTON LTD,3000.0,0.0,3000.0,0.0,0.0,0.0,0.0,0.0,0.0,0.0,3000.0,18983.0,Direct,,,View report (https://accesshub.pdc.wa.gov/node/24467),Fiscal,,
114,24434-19808,24434,FE,18043,THE TSB GROUP*,Employer,19808,American Family Life Assurance Company (AFLAC),16-Jul,8/8/2016,16074.0,American Family Life Assurance Company (AFLAC),1000.0,0.0,1000.0,0.0,0.0,0.0,0.0,0.0,0.0,0.0,1000.0,19808.0,Direct,,,View report (https://accesshub.pdc.wa.gov/node/24434),Health Care,,
115,24454-19305,24454,FE,17819,MJB CONSULTING*,Employer,19305,American Coatings Association,16-Jul,8/8/2016,16092.0,American Coatings Association,2916.66,0.0,2916.66,0.0,0.0,0.0,0.0,0.0,0.0,0.0,2916.66,19305.0,Direct,,,View report (https://accesshub.pdc.wa.gov/node/24454),Environmental Affairs - natural resources - parks,,
117,24293-18813,24293,FE,17579,Melissa M Gombosky,Employer,18813,ASSN OF AMERICAN PUBLISHERS,16-Jun,8/8/2016,16116.0,ASSN OF AMERICAN PUBLISHERS,3720.0,0.0,3720.0,0.0,0.0,0.0,0.0,0.0,0.0,0.0,3720.0,18813.0,Direct,,,View report (https://accesshub.pdc.wa.gov/node/24293),Education,,
119,24454-19306,24454,FE,17819,MJB CONSULTING*,Employer,19306,"ASTELLAS PHARMA US, INC.",16-Jul,8/8/2016,16174.0,"ASTELLAS PHARMA US, INC.",5000.0,0.0,5000.0,0.0,311.69,1000.0,0.0,0.0,0.0,1311.69,6311.69,19306.0,Direct,,,View report (https://accesshub.pdc.wa.gov/node/24454),Health Care,,
120,24462-19049,24462,FE,17688,James P Justin (Government Relations Consulting Inc.),Employer,19049,AT&T SERVICES INC,16-Jul,8/8/2016,16175.0,AT&T SERVICES INC,3000.0,0.0,3000.0,0.0,0.0,0.0,0.0,0.0,0.0,0.0,3000.0,19049.0,Direct,,,View report (https://accesshub.pdc.wa.gov/node/24462),Technology,,
121,24475-18406,24475,FE,17434,CASCADE GOVT AFFAIRS LLC*,Employer,18406,BETHEL SCHOOL DISTRICT,16-Jul,8/8/2016,16190.0,BETHEL SCHOOL DISTRICT,4000.0,0.0,4000.0,0.0,0.0,0.0,0.0,0.0,0.0,0.0,4000.0,18406.0,Direct,,,View report (https://accesshub.pdc.wa.gov/node/24475),Education,,
122,24434-19809,24434,FE,18043,THE TSB GROUP*,Employer,19809,BOISE CASCADE COMPANY,16-Jul,8/8/2016,16202.0,BOISE CASCADE COMPANY,2500.0,0.0,2500.0,25.92,0.0,0.0,0.0,0.0,0.0,25.92,2525.92,19809.0,Direct,,,View report (https://accesshub.pdc.wa.gov/node/24434),Environmental Affairs - natural resources - parks,,
123,24434-19810,24434,FE,18043,THE TSB GROUP*,Employer,19810,PACKAGING CORP OF AMERICA,16-Jul,8/8/2016,16203.0,PACKAGING CORP OF AMERICA,3000.0,0.0,3000.0,24.84,0.0,0.0,0.0,0.0,0.0,24.84,3024.84,19810.0,Direct,,,View report (https://accesshub.pdc.wa.gov/node/24434),Environmental Affairs - natural resources - parks,,
124,24475-18407,24475,FE,17434,CASCADE GOVT AFFAIRS LLC*,Employer,18407,CASCADE NATURAL GAS,16-Jul,8/8/2016,16235.0,CASCADE NATURAL GAS,5000.0,0.0,5000.0,0.0,0.0,23200.0,0.0,0.0,0.0,23200.0,28200.0,18407.0,Direct,,,View report (https://accesshub.pdc.wa.gov/node/24475),Energy and utilities,,
125,24358-19862,24358,FE,18074,Waypoint Consulting Group,Employer,19862,CITY OF KIRKLAND,16-Jul,8/8/2016,16289.0,CITY OF KIRKLAND,5000.0,0.0,5000.0,0.0,0.0,0.0,0.0,0.0,0.0,0.0,5000.0,19862.0,Direct,,,View report (https://accesshub.pdc.wa.gov/node/24358),Local government,,
126,24462-19050,24462,FE,17688,James P Justin (Government Relations Consulting Inc.),Employer,19050,CITY OF YAKIMA,16-Jul,8/8/2016,16321.0,CITY OF YAKIMA,1500.0,0.0,1500.0,0.0,0.0,0.0,0.0,0.0,0.0,0.0,1500.0,19050.0,Direct,,,View report (https://accesshub.pdc.wa.gov/node/24462),Local government,,
127,24454-19308,24454,FE,17819,MJB CONSULTING*,Employer,19308,CLARK COUNTY,16-Jul,8/8/2016,16322.0,CLARK COUNTY,4725.0,0.0,4725.0,0.0,0.0,0.0,0.0,0.0,0.0,0.0,4725.0,19308.0,Direct,,,View report (https://accesshub.pdc.wa.gov/node/24454),,,
128,24358-19863,24358,FE,18074,Waypoint Consulting Group,Employer,19863,CLIMATE SOLUTIONS,16-Jul,8/8/2016,16327.0,CLIMATE SOLUTIONS,4000.0,0.0,4000.0,0.0,0.0,0.0,0.0,0.0,0.0,0.0,4000.0,19863.0,Direct,,,View report (https://accesshub.pdc.wa.gov/node/24358),Environmental Affairs - natural resources - parks,,
129,24434-19811,24434,FE,18043,THE TSB GROUP*,Employer,19811,COLUMBIA RURAL ELECTRIC ASSN,16-Jul,8/8/2016,16339.0,COLUMBIA RURAL ELECTRIC ASSN,2000.0,0.0,2000.0,58.86,0.0,0.0,0.0,0.0,0.0,58.86,2058.86,19811.0,Direct,,,View report (https://accesshub.pdc.wa.gov/node/24434),Energy and utilities,,
130,24475-18408,24475,FE,17434,CASCADE GOVT AFFAIRS LLC*,Employer,18408,CONSUMER TECHNOLOGY ASSN (THROUGH MULTISTATE ASSOCIATES LLC),16-Jul,8/8/2016,16359.0,CONSUMER TECHNOLOGY ASSN (THROUGH MULTISTATE ASSOCIATES LLC),7500.0,0.0,7500.0,0.0,0.0,0.0,0.0,0.0,0.0,0.0,7500.0,18408.0,Direct,,,View report (https://accesshub.pdc.wa.gov/node/24475),Business and consumer affairs,,
131,24469-19163,24469,FE,17764,Renee Maher,Employer,19163,COUNCIL OF METROPOLITAN POLICE & SHERIFFS,16-Jul,8/8/2016,16371.0,COUNCIL OF METROPOLITAN POLICE & SHERIFFS,1750.0,0.0,1750.0,0.0,0.0,22000.0,0.0,0.0,0.0,22000.0,23750.0,19163.0,Direct,,,View report (https://accesshub.pdc.wa.gov/node/24469),Labor,,
132,24454-19309,24454,FE,17819,MJB CONSULTING*,Employer,19309,C-TRAN,16-Jul,8/8/2016,16375.0,C-TRAN,3750.0,0.0,3750.0,0.0,0.0,0.0,0.0,0.0,0.0,0.0,3750.0,19309.0,Direct,,,View report (https://accesshub.pdc.wa.gov/node/24454),,,
133,24475-18409,24475,FE,17434,CASCADE GOVT AFFAIRS LLC*,Employer,18409,DIAGEO,16-Jul,8/8/2016,16387.0,DIAGEO,5000.0,0.0,5000.0,0.0,0.0,0.0,0.0,0.0,0.0,0.0,5000.0,18409.0,Direct,,,View report (https://accesshub.pdc.wa.gov/node/24475),,,
134,24462-19052,24462,FE,17688,James P Justin (Government Relations Consulting Inc.),Employer,19052,EDUCATION REFORM NOW ADVOCACY,16-Jul,8/8/2016,16405.0,EDUCATION REFORM NOW ADVOCACY,2500.0,0.0,2500.0,0.0,0.0,0.0,0.0,0.0,0.0,0.0,2500.0,19052.0,Direct,,,View report (https://accesshub.pdc.wa.gov/node/24462),Education,,
135,24293-18814,24293,FE,17579,Melissa M Gombosky,Employer,18814,EDUCATIONAL SERVICE DISTRICT 105,16-Jun,8/8/2016,16406.0,EDUCATIONAL SERVICE DISTRICT 105,2500.0,0.0,2500.0,0.0,0.0,0.0,0.0,0.0,0.0,0.0,2500.0,18814.0,Direct,,,View report (https://accesshub.pdc.wa.gov/node/24293),,,
137,24475-18411,24475,FE,17434,CASCADE GOVT AFFAIRS LLC*,Employer,18411,FRANKLIN PIERCE SCHOOL DISTRICT,16-Jul,8/8/2016,16455.0,FRANKLIN PIERCE SCHOOL DISTRICT,3250.0,0.0,3250.0,0.0,0.0,0.0,0.0,0.0,0.0,0.0,3250.0,18411.0,Direct,,,View report (https://accesshub.pdc.wa.gov/node/24475),Education,,
138,24475-18412,24475,FE,17434,CASCADE GOVT AFFAIRS LLC*,Employer,18412,FRED MEYER (OXLEY & ASSOC),16-Jul,8/8/2016,16459.0,FRED MEYER (OXLEY & ASSOC),3400.0,0.0,3400.0,0.0,0.0,0.0,0.0,0.0,0.0,0.0,3400.0,18412.0,Direct,,,View report (https://accesshub.pdc.wa.gov/node/24475),Business and consumer affairs,,
139,24467-18984,24467,FE,17654,Trent M House,Employer,18984,GENENTECH,16-Jul,8/8/2016,16467.0,GENENTECH,3000.0,0.0,3000.0,0.0,0.0,0.0,0.0,0.0,0.0,0.0,3000.0,18984.0,Direct,,,View report (https://accesshub.pdc.wa.gov/node/24467),,,
140,24434-19812,24434,FE,18043,THE TSB GROUP*,Employer,19812,ALLIANCE OF WESTERN ENERGY CONSUMERS,16-Jul,8/8/2016,16528.0,ALLIANCE OF WESTERN ENERGY CONSUMERS,7300.0,0.0,7300.0,197.64,0.0,0.0,0.0,0.0,0.0,197.64,7497.64,19812.0,Direct,,,View report (https://accesshub.pdc.wa.gov/node/24434),Energy and utilities,,
141,24293-18816,24293,FE,17579,Melissa M Gombosky,Employer,18816,INLAND EMPIRE PAPER,16-Jun,8/8/2016,16530.0,INLAND EMPIRE PAPER,3000.0,0.0,3000.0,0.0,0.0,0.0,0.0,0.0,0.0,0.0,3000.0,18816.0,Direct,,,View report (https://accesshub.pdc.wa.gov/node/24293),,,
143,24475-18413,24475,FE,17434,CASCADE GOVT AFFAIRS LLC*,Employer,18413,INTL CODE COUNCIL,16-Jul,8/8/2016,16539.0,INTL CODE COUNCIL,3500.0,0.0,3500.0,0.0,0.0,0.0,0.0,0.0,0.0,0.0,3500.0,18413.0,Direct,,,View report (https://accesshub.pdc.wa.gov/node/24475),Business and consumer affairs,,
144,24462-19053,24462,FE,17688,James P Justin (Government Relations Consulting Inc.),Employer,19053,INVENERGY,16-Jul,8/8/2016,16546.0,INVENERGY,2000.0,0.0,2000.0,0.0,0.0,0.0,0.0,0.0,0.0,0.0,2000.0,19053.0,Direct,,,View report (https://accesshub.pdc.wa.gov/node/24462),Energy and utilities,,
145,24358-19864,24358,FE,18074,Waypoint Consulting Group,Employer,19864,JOINT COUNCIL OF TEAMSTERS #28,16-Jul,8/8/2016,16564.0,JOINT COUNCIL OF TEAMSTERS #28,6250.0,0.0,6250.0,0.0,0.0,0.0,0.0,0.0,0.0,0.0,6250.0,19864.0,Direct,,,View report (https://accesshub.pdc.wa.gov/node/24358),Labor,,
146,24475-18414,24475,FE,17434,CASCADE GOVT AFFAIRS LLC*,Employer,18414,MARINE VIEW VENTURES,16-Jul,8/8/2016,16618.0,MARINE VIEW VENTURES,3200.0,0.0,3200.0,0.0,0.0,0.0,0.0,0.0,0.0,0.0,3200.0,18414.0,Direct,,,View report (https://accesshub.pdc.wa.gov/node/24475),Local government,,
147,24470-19587,24470,FE,17950,SEIB POLICY & PUBLIC AFFAIRS*,Employer,19587,Molina Healthcare Inc,16-Jul,8/8/2016,16641.0,Molina Healthcare Inc,4000.0,0.0,4000.0,384.88,0.0,0.0,0.0,0.0,0.0,384.88,4384.88,19587.0,Direct,,,View report (https://accesshub.pdc.wa.gov/node/24470),Health Care,,
148,24462-19054,24462,FE,17688,James P Justin (Government Relations Consulting Inc.),Employer,19054,MUNICIPAL RESEARCH & SERVICES CENTER,16-Jul,8/8/2016,16652.0,MUNICIPAL RESEARCH & SERVICES CENTER,1500.0,0.0,1500.0,0.0,0.0,0.0,0.0,0.0,0.0,0.0,1500.0,19054.0,Direct,,,View report (https://accesshub.pdc.wa.gov/node/24462),Local government,,
149,24358-19865,24358,FE,18074,Waypoint Consulting Group,Employer,19865,NON-PROFIT INSURANCE PROGRAM,16-Jul,8/8/2016,16691.0,NON-PROFIT INSURANCE PROGRAM,2500.0,0.0,2500.0,0.0,0.0,0.0,0.0,0.0,0.0,0.0,2500.0,19865.0,Direct,,,View report (https://accesshub.pdc.wa.gov/node/24358),Financial institutions and insurance,,
150,24462-19056,24462,FE,17688,James P Justin (Government Relations Consulting Inc.),Employer,19056,GoWest Credit Union Association,16-Jul,8/8/2016,16703.0,GoWest Credit Union Association,3500.0,0.0,3500.0,0.0,0.0,0.0,0.0,0.0,0.0,0.0,3500.0,19056.0,Direct,,,View report (https://accesshub.pdc.wa.gov/node/24462),Financial institutions and insurance,,
151,24455-19905,24455,FE,18098,CHRISTINA WONG,Employer,19905,Northwest Harvest EMM,16-Jul,8/8/2016,16708.0,Northwest Harvest EMM,240.44,0.0,240.44,61.71,0.0,0.0,0.26,0.0,0.0,61.97,302.41,19905.0,Direct,,,View report (https://accesshub.pdc.wa.gov/node/24455),Agriculture,,
152,24330-19083,24330,FE,17709,DAVE KNUTSON,Employer,19083,PACIFIC NORTHWEST UNIVERSITY OF HEALTH SCIENCES,16-Jul,8/8/2016,16755.0,PACIFIC NORTHWEST UNIVERSITY OF HEALTH SCIENCES,5000.0,0.0,5000.0,484.6,0.0,0.0,0.0,0.0,0.0,484.6,5484.6,19083.0,Direct,,,View report (https://accesshub.pdc.wa.gov/node/24330),Higher education,,
153,24470-19588,24470,FE,17950,SEIB POLICY & PUBLIC AFFAIRS*,Employer,19588,Paradigm Outcomes,16-Jul,8/8/2016,16761.0,Paradigm Outcomes,5000.0,0.0,5000.0,0.0,0.0,0.0,0.0,0.0,0.0,0.0,5000.0,19588.0,Direct,,,View report (https://accesshub.pdc.wa.gov/node/24470),,,
154,24451-19249,24451,FE,17792,DAN MCGRADY,Employer,19249,PEMCO Insurance,16-Jul,8/8/2016,16770.0,PEMCO Insurance,4750.0,0.0,4750.0,0.0,0.0,23000.0,0.0,0.0,0.0,23000.0,27750.0,19249.0,Direct,,,View report (https://accesshub.pdc.wa.gov/node/24451),Financial institutions and insurance,,
155,24293-18818,24293,FE,17579,Melissa M Gombosky,Employer,18818,PERSONAL CARE PRODUCTS COUNCIL,16-Jun,8/8/2016,16773.0,PERSONAL CARE PRODUCTS COUNCIL,3000.0,0.0,3000.0,0.0,0.0,0.0,0.0,0.0,0.0,0.0,3000.0,18818.0,Direct,,,View report (https://accesshub.pdc.wa.gov/node/24293),,,
157,24434-19813,24434,FE,18043,THE TSB GROUP*,Employer,19813,PORT BLAKELY,16-Jul,8/8/2016,16794.0,PORT BLAKELY,3200.0,0.0,3200.0,503.49,149.79,25650.0,0.0,0.0,0.0,26303.28,29503.28,19813.0,Direct,,,View report (https://accesshub.pdc.wa.gov/node/24434),Environmental Affairs - natural resources - parks,,
158,24467-18987,24467,FE,17654,Trent M House,Employer,18987,PORT OF SEATTLE,16-Jul,8/8/2016,16805.0,PORT OF SEATTLE,7000.0,0.0,7000.0,0.0,0.0,0.0,0.0,0.0,0.0,0.0,7000.0,18987.0,Direct,,,View report (https://accesshub.pdc.wa.gov/node/24467),Local government,,
159,24486-18143,24486,FE,17338,AMBER CARTER GOVT RELATIONS LLC*,Employer,18143,PORTLAND VANCOUVER JUNCTION RAILROAD,16-Jul,8/8/2016,16808.0,PORTLAND VANCOUVER JUNCTION RAILROAD,3000.0,0.0,3000.0,0.0,0.0,0.0,0.0,0.0,0.0,0.0,3000.0,18143.0,Direct,,,View report (https://accesshub.pdc.wa.gov/node/24486),Transportation,,
160,24467-18988,24467,FE,17654,Trent M House,Employer,18988,PROVIDENCE HEALTH & SERVICES- WA,16-Jul,8/8/2016,16821.0,PROVIDENCE HEALTH & SERVICES- WA,5500.0,0.0,5500.0,0.0,0.0,0.0,0.0,0.0,0.0,0.0,5500.0,18988.0,Direct,,,View report (https://accesshub.pdc.wa.gov/node/24467),Health Care,,
161,24358-19866,24358,FE,18074,Waypoint Consulting Group,Employer,19866,Puget Sound Pilots,16-Jul,8/8/2016,16831.0,Puget Sound Pilots,4250.0,0.0,4250.0,777.54,0.0,0.0,0.0,0.0,0.0,777.54,5027.54,19866.0,Direct,,,View report (https://accesshub.pdc.wa.gov/node/24358),Transportation,,
162,24475-18416,24475,FE,17434,CASCADE GOVT AFFAIRS LLC*,Employer,18416,PUGET SOUND SCHOOL COALITION/KING CO SCHOOL COALITION (THRU K AND L GATES),16-Jul,8/8/2016,16832.0,PUGET SOUND SCHOOL COALITION/KING CO SCHOOL COALITION (THRU K AND L GATES),2750.0,0.0,2750.0,0.0,0.0,0.0,0.0,0.0,0.0,0.0,2750.0,18416.0,Direct,,,View report (https://accesshub.pdc.wa.gov/node/24475),Education,,
163,24475-18417,24475,FE,17434,CASCADE GOVT AFFAIRS LLC*,Employer,18417,School Alliance,16-Jul,8/8/2016,16879.0,School Alliance,2750.0,0.0,2750.0,0.0,0.0,0.0,0.0,0.0,0.0,0.0,2750.0,18417.0,Direct,,,View report (https://accesshub.pdc.wa.gov/node/24475),Education,,
164,24462-19057,24462,FE,17688,James P Justin (Government Relations Consulting Inc.),Employer,19057,Seattle Cancer Care Alliance,16-Jul,8/8/2016,16889.0,Seattle Cancer Care Alliance,2875.0,0.0,2875.0,0.0,0.0,0.0,0.0,0.0,0.0,0.0,2875.0,19057.0,Direct,,,View report (https://accesshub.pdc.wa.gov/node/24462),Health Care,,
165,24454-19310,24454,FE,17819,MJB CONSULTING*,Employer,19310,SPOKANE COUNTY,16-Jul,8/8/2016,16939.0,SPOKANE COUNTY,4300.0,0.0,4300.0,0.0,0.0,0.0,0.0,0.0,0.0,0.0,4300.0,19310.0,Direct,,,View report (https://accesshub.pdc.wa.gov/node/24454),Local government,,
166,24358-19868,24358,FE,18074,Waypoint Consulting Group,Employer,19868,STATEWIDE POVERTY ACTION NETWORK,16-Jul,8/8/2016,16952.0,STATEWIDE POVERTY ACTION NETWORK,3000.0,0.0,3000.0,0.0,0.0,0.0,0.0,0.0,0.0,0.0,3000.0,19868.0,Direct,,,View report (https://accesshub.pdc.wa.gov/node/24358),Business and consumer affairs,,
167,24470-19590,24470,FE,17950,SEIB POLICY & PUBLIC AFFAIRS*,Employer,19590,Astria Health,16-Jul,8/8/2016,16957.0,Astria Health,4000.0,0.0,4000.0,0.0,0.0,0.0,0.0,0.0,0.0,0.0,4000.0,19590.0,Direct,,,View report (https://accesshub.pdc.wa.gov/node/24470),Health Care,,
168,24475-18418,24475,FE,17434,CASCADE GOVT AFFAIRS LLC*,Employer,18418,TACOMA PUBLIC SCHOOLS,16-Jul,8/8/2016,16968.0,TACOMA PUBLIC SCHOOLS,5000.0,0.0,5000.0,0.0,0.0,0.0,0.0,0.0,0.0,0.0,5000.0,18418.0,Direct,,,View report (https://accesshub.pdc.wa.gov/node/24475),Education,,
169,24462-19058,24462,FE,17688,James P Justin (Government Relations Consulting Inc.),Employer,19058,TREEHOUSE,16-Jul,8/8/2016,16992.0,TREEHOUSE,1500.0,0.0,1500.0,0.0,0.0,0.0,0.0,0.0,0.0,0.0,1500.0,19058.0,Direct,,,View report (https://accesshub.pdc.wa.gov/node/24462),Education,,
170,24462-19059,24462,FE,17688,James P Justin (Government Relations Consulting Inc.),Employer,19059,UNIVERSITY OF WASHINGTON,16-Jul,8/8/2016,17021.0,UNIVERSITY OF WASHINGTON,6200.0,0.0,6200.0,0.0,0.0,0.0,0.0,0.0,0.0,0.0,6200.0,19059.0,Direct,,,View report (https://accesshub.pdc.wa.gov/node/24462),Higher education,,
171,24434-19814,24434,FE,18043,THE TSB GROUP*,Employer,19814,VAAGEN BROTHERS LUMBER INC,16-Jul,8/8/2016,17026.0,VAAGEN BROTHERS LUMBER INC,2000.0,0.0,2000.0,32.94,0.0,0.0,0.0,0.0,0.0,32.94,2032.94,19814.0,Direct,,,View report (https://accesshub.pdc.wa.gov/node/24434),Environmental Affairs - natural resources - parks,,
172,24470-19591,24470,FE,17950,SEIB POLICY & PUBLIC AFFAIRS*,Employer,19591,WA ACADEMY OF FAMILY PHYSICIANS,16-Jul,8/8/2016,17052.0,WA ACADEMY OF FAMILY PHYSICIANS,3000.0,0.0,3000.0,0.0,0.0,0.0,0.0,0.0,0.0,0.0,3000.0,19591.0,Direct,,,View report (https://accesshub.pdc.wa.gov/node/24470),Health Care,,
173,24445-19886,24445,FE,18088,White Tudor LLC,Employer,19886,WA ACADEMY OF PHYSICIAN ASSISTANTS,16-Jul,8/8/2016,17058.0,WA ACADEMY OF PHYSICIAN ASSISTANTS,2000.0,0.0,2000.0,0.0,0.0,0.0,0.0,0.0,0.0,0.0,2000.0,19886.0,Direct,,,View report (https://accesshub.pdc.wa.gov/node/24445),Health Care,,
174,24445-19887,24445,FE,18088,White Tudor LLC,Employer,19887,WA ASSN FOR COMMUNITY HEALTH,16-Jul,8/8/2016,17084.0,WA ASSN FOR COMMUNITY HEALTH,5751.0,0.0,5751.0,0.0,0.0,0.0,0.0,0.0,0.0,0.0,5751.0,19887.0,Direct,,,View report (https://accesshub.pdc.wa.gov/node/24445),Health Care,,
175,24358-19869,24358,FE,18074,Waypoint Consulting Group,Employer,19869,COLLEGE SUCCESS FOUNDATION,16-Jul,8/8/2016,17104.0,COLLEGE SUCCESS FOUNDATION,2500.0,0.0,2500.0,160.2,0.0,0.0,0.0,0.0,0.0,160.2,2660.2,19869.0,Direct,,,View report (https://accesshub.pdc.wa.gov/node/24358),Higher education,,
176,24330-19085,24330,FE,17709,DAVE KNUTSON,Employer,19085,WA HEALTH CARE ASSN,16-Jul,8/8/2016,17128.0,WA HEALTH CARE ASSN,8000.0,0.0,8000.0,0.0,0.0,0.0,0.0,0.0,0.0,0.0,8000.0,19085.0,Direct,,,View report (https://accesshub.pdc.wa.gov/node/24330),,,
177,24330-19086,24330,FE,17709,DAVE KNUTSON,Employer,19086,WA OSTEOPATHIC MEDICAL ASSN,16-Jul,8/8/2016,17158.0,WA OSTEOPATHIC MEDICAL ASSN,2000.0,0.0,2000.0,0.0,0.0,0.0,0.0,0.0,0.0,0.0,2000.0,19086.0,Direct,,,View report (https://accesshub.pdc.wa.gov/node/24330),,,
178,24445-19888,24445,FE,18088,White Tudor LLC,Employer,19888,WA OCCUPATIONAL THERAPY ASSN,16-Jul,8/8/2016,17161.0,WA OCCUPATIONAL THERAPY ASSN,2700.0,0.0,2700.0,0.0,0.0,0.0,0.0,0.0,0.0,0.0,2700.0,19888.0,Direct,,,View report (https://accesshub.pdc.wa.gov/node/24445),Health Care,,
179,24467-18989,24467,FE,17654,Trent M House,Employer,18989,WA PUBLIC UTILITIES DISTS ASSN,16-Jul,8/8/2016,17176.0,WA PUBLIC UTILITIES DISTS ASSN,2850.0,0.0,2850.0,0.0,0.0,0.0,0.0,0.0,0.0,0.0,2850.0,18989.0,Direct,,,View report (https://accesshub.pdc.wa.gov/node/24467),,,
180,24462-19060,24462,FE,17688,James P Justin (Government Relations Consulting Inc.),Employer,19060,WA ROUNDTABLE,16-Jul,8/8/2016,17178.0,WA ROUNDTABLE,1500.0,0.0,1500.0,0.0,0.0,0.0,0.0,0.0,0.0,0.0,1500.0,19060.0,Direct,,,View report (https://accesshub.pdc.wa.gov/node/24462),Education,,
181,24464-18556,24464,FE,17487,JOANIE DEUTSCH,Employer,18556,WA RETAIL ASSN,16-Jul,8/8/2016,17180.0,WA RETAIL ASSN,2500.0,0.0,2500.0,627.97,0.0,0.0,0.0,0.0,0.0,627.97,3127.97,18556.0,Direct,,,View report (https://accesshub.pdc.wa.gov/node/24464),Business and consumer affairs,,
184,24462-19061,24462,FE,17688,James P Justin (Government Relations Consulting Inc.),Employer,19061,WA STEM CENTER,16-Jul,8/8/2016,17189.0,WA STEM CENTER,2000.0,0.0,2000.0,0.0,0.0,0.0,0.0,0.0,0.0,0.0,2000.0,19061.0,Direct,,,View report (https://accesshub.pdc.wa.gov/node/24462),Education,,
185,24358-19870,24358,FE,18074,Waypoint Consulting Group,Employer,19870,WA WILDLIFE & RECREATION COALITION ACTION FUND,16-Jul,8/8/2016,17213.0,WA WILDLIFE & RECREATION COALITION ACTION FUND,4000.0,0.0,4000.0,0.0,0.0,0.0,0.0,0.0,0.0,0.0,4000.0,19870.0,Direct,,,View report (https://accesshub.pdc.wa.gov/node/24358),Environmental Affairs - natural resources - parks,,
186,24475-18421,24475,FE,17434,CASCADE GOVT AFFAIRS LLC*,Employer,18421,WA STATE ATHLETIC TRAINERS ASSN,16-Jul,8/8/2016,17218.0,WA STATE ATHLETIC TRAINERS ASSN,750.0,0.0,750.0,0.0,0.0,0.0,0.0,0.0,0.0,0.0,750.0,18421.0,Direct,,,View report (https://accesshub.pdc.wa.gov/node/24475),Health Care,,
187,24452-18914,24452,FE,17601,LAURA W GROSHONG,Employer,18914,WA ST COALITION MENTAL HLTH PROF & CONSUMERS,16-Jun,8/8/2016,17235.0,WA ST COALITION MENTAL HLTH PROF & CONSUMERS,500.0,0.0,500.0,150.0,0.0,0.0,0.0,0.0,0.0,150.0,650.0,18914.0,Direct,,,View report (https://accesshub.pdc.wa.gov/node/24452),Health Care,,
188,24467-18991,24467,FE,17654,Trent M House,Employer,18991,WA ST DENTAL ASSN,16-Jul,8/8/2016,17238.0,WA ST DENTAL ASSN,5500.0,0.0,5500.0,0.0,0.0,0.0,0.0,0.0,0.0,0.0,5500.0,18991.0,Direct,,,View report (https://accesshub.pdc.wa.gov/node/24467),Health Care,,
189,24459-18883,24459,FE,17593,SEAN N GRAHAM,Employer,18883,WA ST MEDICAL ASSN,16-Jul,8/8/2016,17261.0,WA ST MEDICAL ASSN,2222.22,0.0,2222.22,360.0,80.0,0.0,0.0,0.0,0.0,440.0,2662.22,18883.0,Direct,,,View report (https://accesshub.pdc.wa.gov/node/24459),Health Care,,
190,24434-19815,24434,FE,18043,THE TSB GROUP*,Employer,19815,WA ST POTATO COMMISSION,16-Jul,8/8/2016,17273.0,WA ST POTATO COMMISSION,5250.0,0.0,5250.0,414.99,0.0,0.0,0.0,0.0,0.0,414.99,5664.99,19815.0,Direct,,,View report (https://accesshub.pdc.wa.gov/node/24434),Agriculture,,
191,24452-18915,24452,FE,17601,LAURA W GROSHONG,Employer,18915,WA ST SOCIETY FOR CLINICAL SOCIAL WORK,16-Jun,8/8/2016,17284.0,WA ST SOCIETY FOR CLINICAL SOCIAL WORK,500.0,0.0,500.0,100.0,0.0,0.0,0.0,0.0,0.0,100.0,600.0,18915.0,Direct,,,View report (https://accesshub.pdc.wa.gov/node/24452),Health Care,,
192,24448-19241,24448,FE,17787,Patricia McDaid-O'Neill,Employer,19241,ASTRAZENECA PHARMACEUTICALS LP,16-Jul,8/8/2016,17328.0,ASTRAZENECA PHARMACEUTICALS LP,2800.0,0.0,2800.0,0.0,92.92,8000.0,0.0,0.0,0.0,8092.92,10892.92,19241.0,Direct,,,View report (https://accesshub.pdc.wa.gov/node/24448),Health Care,,
193,24460-18730,24460,FE,17553,JESSICA FORTESCUE,Employer,18730,ABBVIE INC,16-Jul,8/9/2016,16061.0,ABBVIE INC,2500.0,0.0,2500.0,0.0,0.0,0.0,0.0,0.0,0.0,0.0,2500.0,18730.0,Direct,,,View report (https://accesshub.pdc.wa.gov/node/24460),Health Care,,
194,24504-18877,24504,FE,17589,GOVERNMENT RELATIONS SERVICES*,Employer,18877,ACTION FOR RHC'S,16-Jul,8/9/2016,16066.0,ACTION FOR RHC'S,3000.0,0.0,3000.0,0.0,0.0,0.0,0.0,0.0,1500.0,1500.0,4500.0,18877.0,Direct,,,View report (https://accesshub.pdc.wa.gov/node/24504),Health Care,,
195,24460-20031,24460,FE,17553,JESSICA FORTESCUE,Employer,20031,ASSN of WA Housing Authorities (PIERCE CONSULTING SVCS LLC*),16-Jul,8/9/2016,16155.0,ASSN of WA Housing Authorities,252.5,0.0,252.5,0.0,0.0,0.0,0.0,0.0,0.0,0.0,252.5,20031.0,Subcontract,17597.0,PIERCE CONSULTING SVCS LLC*,View report (https://accesshub.pdc.wa.gov/node/24460),,,
196,24460-19950,24460,FE,17553,JESSICA FORTESCUE,Employer,19950,CNSI (PIERCE CONSULTING SVCS LLC*),16-Jul,8/9/2016,16330.0,CNSI,301.0,0.0,301.0,0.0,0.0,0.0,0.0,0.0,0.0,0.0,301.0,19950.0,Subcontract,17597.0,PIERCE CONSULTING SVCS LLC*,View report (https://accesshub.pdc.wa.gov/node/24460),,,
197,24460-19984,24460,FE,17553,JESSICA FORTESCUE,Employer,19984,COMCAST CABLE COMMUNICATIONS (PIERCE CONSULTING SVCS LLC*),16-Jul,8/9/2016,16344.0,COMCAST CABLE COMMUNICATIONS,401.0,0.0,401.0,0.0,0.0,0.0,0.0,0.0,0.0,0.0,401.0,19984.0,Subcontract,17597.0,PIERCE CONSULTING SVCS LLC*,View report (https://accesshub.pdc.wa.gov/node/24460),,,
198,24460-19975,24460,FE,17553,JESSICA FORTESCUE,Employer,19975,RUSSELL INVESTMENT GROUP (PIERCE CONSULTING SVCS LLC*),16-Jul,8/9/2016,16456.0,RUSSELL INVESTMENT GROUP,301.0,0.0,301.0,0.0,0.0,0.0,0.0,0.0,0.0,0.0,301.0,19975.0,Subcontract,17597.0,PIERCE CONSULTING SVCS LLC*,View report (https://accesshub.pdc.wa.gov/node/24460),,,
199,24460-20053,24460,FE,17553,JESSICA FORTESCUE,Employer,20053,HONDA NORTH AMERICA (THRU MULTISTATE ASSOCIATES LLC) (MCBRIDE PUBLIC AFFAIRS LLC*),16-Jul,8/9/2016,16510.0,HONDA NORTH AMERICA (THRU MULTISTATE ASSOCIATES LLC),875.0,0.0,875.0,0.0,0.0,0.0,0.0,0.0,0.0,0.0,875.0,20053.0,Subcontract,17779.0,MCBRIDE PUBLIC AFFAIRS LLC*,View report (https://accesshub.pdc.wa.gov/node/24460),,,
200,24362-19141,24362,FE,17748,PHILIP E LINDQUIST,Employer,19141,IUPAT DISTRICT COUNCIL 5,16-Jul,8/9/2016,16543.0,IUPAT DISTRICT COUNCIL 5,224.4,0.0,224.4,0.0,0.0,0.0,0.0,0.0,0.0,0.0,224.4,19141.0,Direct,,,View report (https://accesshub.pdc.wa.gov/node/24362),Labor,,
201,24504-18878,24504,FE,17589,GOVERNMENT RELATIONS SERVICES*,Employer,18878,IRON WORKERS DIST CNCL OF THE PNW,16-Jul,8/9/2016,16547.0,IRON WORKERS DIST CNCL OF THE PNW,2000.0,0.0,2000.0,0.0,0.0,0.0,0.0,0.0,0.0,0.0,2000.0,18878.0,Direct,,,View report (https://accesshub.pdc.wa.gov/node/24504),Transportation,,
202,24460-19965,24460,FE,17553,JESSICA FORTESCUE,Employer,19965,McDonalds Corporation (MCBRIDE PUBLIC AFFAIRS LLC*),16-Jul,8/9/2016,16625.0,McDonalds Corporation,875.0,0.0,875.0,0.0,0.0,0.0,0.0,0.0,0.0,0.0,875.0,19965.0,Subcontract,17779.0,MCBRIDE PUBLIC AFFAIRS LLC*,View report (https://accesshub.pdc.wa.gov/node/24460),,,
203,24460-20041,24460,FE,17553,JESSICA FORTESCUE,Employer,20041,MICROSOFT CORP (PIERCE CONSULTING SVCS LLC*),16-Jul,8/9/2016,16636.0,MICROSOFT CORP,401.0,0.0,401.0,0.0,0.0,0.0,0.0,0.0,0.0,0.0,401.0,20041.0,Subcontract,17597.0,PIERCE CONSULTING SVCS LLC*,View report (https://accesshub.pdc.wa.gov/node/24460),,,
204,24487-19187,24487,FE,17771,MARIE SULLIVAN PUBLIC AFFAIRS CORP.,Employer,19187,PASCO SCHOOL DIST,16-Jul,8/9/2016,16766.0,PASCO SCHOOL DIST,2500.0,0.0,2500.0,927.07,0.0,0.0,0.0,0.0,0.0,927.07,3427.07,19187.0,Direct,,,View report (https://accesshub.pdc.wa.gov/node/24487),Education,,
205,24510-18208,24510,FE,17359,CHRISTOPHER BANDOLI,Employer,18208,REGENCE BLUE SHIELD,16-Jul,8/9/2016,16849.0,REGENCE BLUE SHIELD,2500.0,0.0,2500.0,679.64,0.0,0.0,0.0,0.0,0.0,679.64,3179.64,18208.0,Direct,,,View report (https://accesshub.pdc.wa.gov/node/24510),Health Care,,
206,24487-19189,24487,FE,17771,MARIE SULLIVAN PUBLIC AFFAIRS CORP.,Employer,19189,Richland School District,16-Jul,8/9/2016,16860.0,Richland School District,2500.0,0.0,2500.0,0.0,0.0,0.0,0.0,0.0,0.0,0.0,2500.0,19189.0,Direct,,,View report (https://accesshub.pdc.wa.gov/node/24487),Education,,
207,24504-18879,24504,FE,17589,GOVERNMENT RELATIONS SERVICES*,Employer,18879,"GB AUCTIONS, INC",16-Jul,8/9/2016,16940.0,"GB AUCTIONS, INC",1250.0,0.0,1250.0,0.0,0.0,0.0,0.0,0.0,0.0,0.0,1250.0,18879.0,Direct,,,View report (https://accesshub.pdc.wa.gov/node/24504),State government,,
208,24460-20007,24460,FE,17553,JESSICA FORTESCUE,Employer,20007,VULCAN INC (PIERCE CONSULTING SVCS LLC*),16-Jul,8/9/2016,17039.0,VULCAN INC,326.0,0.0,326.0,0.0,0.0,0.0,0.0,0.0,0.0,0.0,326.0,20007.0,Subcontract,17597.0,PIERCE CONSULTING SVCS LLC*,View report (https://accesshub.pdc.wa.gov/node/24460),,,
209,24460-19974,24460,FE,17553,JESSICA FORTESCUE,Employer,19974,WA BANKERS ASSN (PIERCE CONSULTING SVCS LLC*),16-Jul,8/9/2016,17061.0,WA BANKERS ASSN,326.0,0.0,326.0,0.0,0.0,0.0,0.0,0.0,0.0,0.0,326.0,19974.0,Subcontract,17597.0,PIERCE CONSULTING SVCS LLC*,View report (https://accesshub.pdc.wa.gov/node/24460),,,
210,24460-20010,24460,FE,17553,JESSICA FORTESCUE,Employer,20010,Delta Dental of WA (PIERCE CONSULTING SVCS LLC*),16-Jul,8/9/2016,17096.0,Delta Dental of WA,301.0,0.0,301.0,0.0,0.0,0.0,0.0,0.0,0.0,0.0,301.0,20010.0,Subcontract,17597.0,PIERCE CONSULTING SVCS LLC*,View report (https://accesshub.pdc.wa.gov/node/24460),,,
211,24460-19970,24460,FE,17553,JESSICA FORTESCUE,Employer,19970,COLLEGE SUCCESS FOUNDATION (PIERCE CONSULTING SVCS LLC*),16-Jul,8/9/2016,17104.0,COLLEGE SUCCESS FOUNDATION,250.0,0.0,250.0,0.0,0.0,0.0,0.0,0.0,0.0,0.0,250.0,19970.0,Subcontract,17597.0,PIERCE CONSULTING SVCS LLC*,View report (https://accesshub.pdc.wa.gov/node/24460),,,
212,24460-19986,24460,FE,17553,JESSICA FORTESCUE,Employer,19986,WA FOREST PROTECTION ASSN (PIERCE CONSULTING SVCS LLC*),16-Jul,8/9/2016,17120.0,WA FOREST PROTECTION ASSN,200.0,0.0,200.0,0.0,0.0,0.0,0.0,0.0,0.0,0.0,200.0,19986.0,Subcontract,17597.0,PIERCE CONSULTING SVCS LLC*,View report (https://accesshub.pdc.wa.gov/node/24460),,,
213,24460-19959,24460,FE,17553,JESSICA FORTESCUE,Employer,19959,Washington Mortgage Bankers Association (PIERCE CONSULTING SVCS LLC*),16-Jul,8/9/2016,17147.0,Washington Mortgage Bankers Association,250.0,0.0,250.0,0.0,0.0,800.0,0.0,0.0,0.0,800.0,1050.0,19959.0,Subcontract,17597.0,PIERCE CONSULTING SVCS LLC*,View report (https://accesshub.pdc.wa.gov/node/24460),,,
215,24460-19949,24460,FE,17553,JESSICA FORTESCUE,Employer,19949,WA ROUNDTABLE (PIERCE CONSULTING SVCS LLC*),16-Jul,8/9/2016,17178.0,WA ROUNDTABLE,218.0,0.0,218.0,0.0,0.0,0.0,0.0,0.0,0.0,0.0,218.0,19949.0,Subcontract,17597.0,PIERCE CONSULTING SVCS LLC*,View report (https://accesshub.pdc.wa.gov/node/24460),,,
217,24460-19995,24460,FE,17553,JESSICA FORTESCUE,Employer,19995,WA WHOLESALE DRUGGIST ASSN (PIERCE CONSULTING SVCS LLC*),16-Jul,8/9/2016,17208.0,WA WHOLESALE DRUGGIST ASSN,250.0,0.0,250.0,0.0,0.0,0.0,0.0,0.0,0.0,0.0,250.0,19995.0,Subcontract,17597.0,PIERCE CONSULTING SVCS LLC*,View report (https://accesshub.pdc.wa.gov/node/24460),,,
220,24532-19718,24532,FE,18002,CHRIS STROW,Employer,19718,"Elevance Health, and its Affiliates",16-Jul,8/10/2016,16107.0,"Elevance Health, and its Affiliates",11250.0,0.0,11250.0,0.0,0.0,0.0,0.0,0.0,0.0,0.0,11250.0,19718.0,Direct,,,View report (https://accesshub.pdc.wa.gov/node/24532),Health Care,,
221,24533-19158,24533,FE,17759,CATHLEEN MACCAUL,Employer,19158,AARP WA ST OFFICE,16-Jul,8/10/2016,16121.0,AARP WA ST OFFICE,300.0,0.0,300.0,0.0,0.0,0.0,0.0,0.0,0.0,0.0,300.0,19158.0,Direct,,,View report (https://accesshub.pdc.wa.gov/node/24533),Health Care,,
222,24501-19617,24501,FE,17964,SCOTT C SIGMON,Employer,19617,WA ST CHAPTER OF ASSOC PUBLIC SAFETY COMMUNICATIONS OFFICIALS,16-Jul,8/10/2016,16158.0,WA ST CHAPTER OF ASSOC PUBLIC SAFETY COMMUNICATIONS OFFICIALS,1600.0,0.0,1600.0,0.0,0.0,0.0,0.0,0.0,0.0,0.0,1600.0,19617.0,Direct,,,View report (https://accesshub.pdc.wa.gov/node/24501),Local government,,
223,24545-18326,24545,FE,17415,BUCHHOLZ & ASSOC LLC*,Employer,18326,BUCHHOLZ FARMS,16-Jun,8/10/2016,16212.0,BUCHHOLZ FARMS,6000.0,0.0,6000.0,0.0,0.0,0.0,0.0,0.0,0.0,0.0,6000.0,18326.0,Direct,,,View report (https://accesshub.pdc.wa.gov/node/24545),Agriculture,,
224,24552-18326,24552,FE,17415,BUCHHOLZ & ASSOC LLC*,Employer,18326,BUCHHOLZ FARMS,16-Jul,8/10/2016,16212.0,BUCHHOLZ FARMS,6000.0,0.0,6000.0,0.0,0.0,0.0,0.0,0.0,0.0,0.0,6000.0,18326.0,Direct,,,View report (https://accesshub.pdc.wa.gov/node/24552),Agriculture,,
225,24545-19978,24545,FE,17415,BUCHHOLZ & ASSOC LLC*,Employer,19978,CITY OF BELLINGHAM (MCBRIDE PUBLIC AFFAIRS LLC*),16-Jun,8/10/2016,16276.0,CITY OF BELLINGHAM,2000.0,0.0,2000.0,0.0,0.0,0.0,0.0,0.0,0.0,0.0,2000.0,19978.0,Subcontract,17779.0,MCBRIDE PUBLIC AFFAIRS LLC*,View report (https://accesshub.pdc.wa.gov/node/24545),,,
226,24552-19978,24552,FE,17415,BUCHHOLZ & ASSOC LLC*,Employer,19978,CITY OF BELLINGHAM (MCBRIDE PUBLIC AFFAIRS LLC*),16-Jul,8/10/2016,16276.0,CITY OF BELLINGHAM,2000.0,0.0,2000.0,0.0,0.0,0.0,0.0,0.0,0.0,0.0,2000.0,19978.0,Subcontract,17779.0,MCBRIDE PUBLIC AFFAIRS LLC*,View report (https://accesshub.pdc.wa.gov/node/24552),,,
227,24545-20098,24545,FE,17415,BUCHHOLZ & ASSOC LLC*,Employer,20098,CITY OF KENNEWICK (MCBRIDE PUBLIC AFFAIRS LLC*),16-Jun,8/10/2016,16290.0,CITY OF KENNEWICK,416.0,0.0,416.0,0.0,0.0,0.0,0.0,0.0,0.0,0.0,416.0,20098.0,Subcontract,17779.0,MCBRIDE PUBLIC AFFAIRS LLC*,View report (https://accesshub.pdc.wa.gov/node/24545),,,
228,24552-20098,24552,FE,17415,BUCHHOLZ & ASSOC LLC*,Employer,20098,CITY OF KENNEWICK (MCBRIDE PUBLIC AFFAIRS LLC*),16-Jul,8/10/2016,16290.0,CITY OF KENNEWICK,416.0,0.0,416.0,0.0,0.0,0.0,0.0,0.0,0.0,0.0,416.0,20098.0,Subcontract,17779.0,MCBRIDE PUBLIC AFFAIRS LLC*,View report (https://accesshub.pdc.wa.gov/node/24552),,,
229,24501-19619,24501,FE,17964,SCOTT C SIGMON,Employer,19619,COASTAL CONSERVATION ASSN WA,16-Jul,8/10/2016,16333.0,COASTAL CONSERVATION ASSN WA,4000.0,0.0,4000.0,0.0,0.0,0.0,0.0,0.0,0.0,0.0,4000.0,19619.0,Direct,,,View report (https://accesshub.pdc.wa.gov/node/24501),Environmental Affairs - natural resources - parks,,
230,24545-18327,24545,FE,17415,BUCHHOLZ & ASSOC LLC*,Employer,18327,Pacific NW Farmers Coop,16-Jun,8/10/2016,16365.0,Pacific NW Farmers Coop,3600.0,0.0,3600.0,0.0,0.0,0.0,0.0,0.0,0.0,0.0,3600.0,18327.0,Direct,,,View report (https://accesshub.pdc.wa.gov/node/24545),Transportation,,
231,24552-18327,24552,FE,17415,BUCHHOLZ & ASSOC LLC*,Employer,18327,Pacific NW Farmers Coop,16-Jul,8/10/2016,16365.0,Pacific NW Farmers Coop,3600.0,0.0,3600.0,0.0,0.0,0.0,0.0,0.0,0.0,0.0,3600.0,18327.0,Direct,,,View report (https://accesshub.pdc.wa.gov/node/24552),Agriculture,,
232,24501-19621,24501,FE,17964,SCOTT C SIGMON,Employer,19621,EISAI INC,16-Jul,8/10/2016,16407.0,EISAI INC,3000.0,0.0,3000.0,62.5,0.0,0.0,0.0,0.0,0.0,62.5,3062.5,19621.0,Direct,,,View report (https://accesshub.pdc.wa.gov/node/24501),Health Care,,
233,24501-19622,24501,FE,17964,SCOTT C SIGMON,Employer,19622,GILEAD SCIENCES INC,16-Jul,8/10/2016,16471.0,GILEAD SCIENCES INC,4000.0,0.0,4000.0,350.01,0.0,0.0,0.0,0.0,0.0,350.01,4350.01,19622.0,Direct,,,View report (https://accesshub.pdc.wa.gov/node/24501),Health Care,,
234,24501-19623,24501,FE,17964,SCOTT C SIGMON,Employer,19623,LEADINGAGE WA,16-Jul,8/10/2016,16588.0,LEADINGAGE WA,5000.0,0.0,5000.0,137.7,0.0,0.0,0.0,0.0,0.0,137.7,5137.7,19623.0,Direct,,,View report (https://accesshub.pdc.wa.gov/node/24501),Health Care,,
235,24531-18514,24531,FE,17471,JAMES CURRY,Employer,18514,MONSANTO,16-Jul,8/10/2016,16644.0,MONSANTO,510.3,0.0,510.3,0.0,0.0,8000.0,0.0,0.0,0.0,8000.0,8510.3,18514.0,Direct,,,View report (https://accesshub.pdc.wa.gov/node/24531),Agriculture,,
236,24501-19624,24501,FE,17964,SCOTT C SIGMON,Employer,19624,CONSUMER HEALTHCARE PRODUCTS ASSN,16-Jul,8/10/2016,16692.0,CONSUMER HEALTHCARE PRODUCTS ASSN,4000.0,0.0,4000.0,62.5,0.0,0.0,0.0,0.0,0.0,62.5,4062.5,19624.0,Direct,,,View report (https://accesshub.pdc.wa.gov/node/24501),Health Care,,
237,24501-19625,24501,FE,17964,SCOTT C SIGMON,Employer,19625,PARTNERS IN CAREERS,16-Jul,8/10/2016,16764.0,PARTNERS IN CAREERS,1000.0,0.0,1000.0,0.0,0.0,0.0,0.0,0.0,0.0,0.0,1000.0,19625.0,Direct,,,View report (https://accesshub.pdc.wa.gov/node/24501),,,
238,24545-19971,24545,FE,17415,BUCHHOLZ & ASSOC LLC*,Employer,19971,PORT OF BELLINGHAM (MCBRIDE PUBLIC AFFAIRS LLC*),16-Jun,8/10/2016,16792.0,PORT OF BELLINGHAM,2000.0,0.0,2000.0,0.0,0.0,0.0,0.0,0.0,0.0,0.0,2000.0,19971.0,Subcontract,17779.0,MCBRIDE PUBLIC AFFAIRS LLC*,View report (https://accesshub.pdc.wa.gov/node/24545),,,
239,24552-19971,24552,FE,17415,BUCHHOLZ & ASSOC LLC*,Employer,19971,PORT OF BELLINGHAM (MCBRIDE PUBLIC AFFAIRS LLC*),16-Jul,8/10/2016,16792.0,PORT OF BELLINGHAM,2000.0,0.0,2000.0,0.0,0.0,0.0,0.0,0.0,0.0,0.0,2000.0,19971.0,Subcontract,17779.0,MCBRIDE PUBLIC AFFAIRS LLC*,View report (https://accesshub.pdc.wa.gov/node/24552),,,
240,24563-19063,24563,FE,17691,JIM KAINBER,Employer,19063,RCO LEGAL,16-May,8/10/2016,16843.0,RCO LEGAL,2250.0,0.0,2250.0,0.0,0.0,0.0,0.0,0.0,0.0,0.0,2250.0,19063.0,Direct,,,View report (https://accesshub.pdc.wa.gov/node/24563),Financial institutions and insurance,,
244,24501-19626,24501,FE,17964,SCOTT C SIGMON,Employer,19626,"UCB, INC",16-Jul,8/10/2016,17002.0,"UCB, INC",4000.0,0.0,4000.0,0.0,0.0,0.0,0.0,0.0,0.0,0.0,4000.0,19626.0,Direct,,,View report (https://accesshub.pdc.wa.gov/node/24501),Health Care,,
246,24575-18209,24575,FE,17360,BRAD BANKS,Employer,18209,WA STATE ASSN OF COUNTIES (WSAC),16-Jul,8/10/2016,17215.0,WA STATE ASSN OF COUNTIES (WSAC),288.36,0.0,288.36,0.0,0.0,0.0,0.0,0.0,0.0,0.0,288.36,18209.0,Direct,,,View report (https://accesshub.pdc.wa.gov/node/24575),Health Care,,
248,24564-19556,24564,FE,17927,GARY ROWE,Employer,19556,WA STATE ASSN OF COUNTIES (WSAC),16-Jul,8/10/2016,17215.0,WA STATE ASSN OF COUNTIES (WSAC),228.0,0.0,228.0,0.0,0.0,0.0,0.0,0.0,0.0,0.0,228.0,19556.0,Direct,,,View report (https://accesshub.pdc.wa.gov/node/24564),Transportation,,
249,24550-18434,24550,FE,17446,MARIA CHIECHI,Employer,18434,Adult Family Home Council,16-Jul,8/10/2016,17280.0,Adult Family Home Council,1000.0,0.0,1000.0,0.0,0.0,0.0,0.0,0.0,0.0,0.0,1000.0,18434.0,Direct,,,View report (https://accesshub.pdc.wa.gov/node/24550),Fiscal,,
251,24545-19963,24545,FE,17415,BUCHHOLZ & ASSOC LLC*,Employer,19963,Whatcom Co (MCBRIDE PUBLIC AFFAIRS LLC*),16-Jun,8/10/2016,17307.0,Whatcom Co,2000.0,0.0,2000.0,0.0,0.0,0.0,0.0,0.0,0.0,0.0,2000.0,19963.0,Subcontract,17779.0,MCBRIDE PUBLIC AFFAIRS LLC*,View report (https://accesshub.pdc.wa.gov/node/24545),,,
252,24552-19963,24552,FE,17415,BUCHHOLZ & ASSOC LLC*,Employer,19963,Whatcom Co (MCBRIDE PUBLIC AFFAIRS LLC*),16-Jul,8/10/2016,17307.0,Whatcom Co,2000.0,0.0,2000.0,0.0,0.0,0.0,0.0,0.0,0.0,0.0,2000.0,19963.0,Subcontract,17779.0,MCBRIDE PUBLIC AFFAIRS LLC*,View report (https://accesshub.pdc.wa.gov/node/24552),,,
253,24541-24515,24541,FE,24514,Ryan W Merkley,Employer,24515,PHYSICIANS COMM FOR RESPONSIBLE MEDICINE,16-Jul,8/10/2016,23608.0,PHYSICIANS COMM FOR RESPONSIBLE MEDICINE,324.52,0.0,324.52,14.82,0.0,0.0,0.0,0.0,0.0,14.82,339.34,24515.0,Direct,,,View report (https://accesshub.pdc.wa.gov/node/24541),Higher education,,
254,24605-19648,24605,FE,17977,SOUND VIEW STRATEGIES LLC*,Employer,19648,CGI TECHNOLOGIES & SOLUTIONS INC,16-Jul,8/11/2016,16250.0,CGI TECHNOLOGIES & SOLUTIONS INC,5000.0,0.0,5000.0,0.0,0.0,0.0,0.0,0.0,0.0,0.0,5000.0,19648.0,Direct,,,View report (https://accesshub.pdc.wa.gov/node/24605),Technology,,
255,24594-18934,24594,FE,17612,KELSI HAMILTON,Employer,18934,DYNAMIC COLLECTORS INC,16-Jul,8/11/2016,16395.0,DYNAMIC COLLECTORS INC,200.0,0.0,200.0,0.0,0.0,0.0,0.0,0.0,0.0,0.0,200.0,18934.0,Direct,,,View report (https://accesshub.pdc.wa.gov/node/24594),Business and consumer affairs,,
256,24289-18566,24289,FE,17496,DOTY & ASSOC INC*,Employer,18566,ENTERPRISE HOLDINGS LLC,16-Jul,8/11/2016,16396.0,ENTERPRISE HOLDINGS LLC,1650.0,0.0,1650.0,0.0,0.0,0.0,0.0,0.0,0.0,0.0,1650.0,18566.0,Direct,,,View report (https://accesshub.pdc.wa.gov/node/24289),State government,,
257,24289-18567,24289,FE,17496,DOTY & ASSOC INC*,Employer,18567,FIRE SPRINKLER ADVISORY BD OF PUGET SOUND,16-Jul,8/11/2016,16444.0,FIRE SPRINKLER ADVISORY BD OF PUGET SOUND,1000.0,0.0,1000.0,25.0,0.0,0.0,0.0,0.0,0.0,25.0,1025.0,18567.0,Direct,,,View report (https://accesshub.pdc.wa.gov/node/24289),State government,,
258,24289-18568,24289,FE,17496,DOTY & ASSOC INC*,Employer,18568,KITSAP TRANSIT,16-Jul,8/11/2016,16581.0,KITSAP TRANSIT,5000.0,0.0,5000.0,0.0,0.0,0.0,0.0,0.0,0.0,0.0,5000.0,18568.0,Direct,,,View report (https://accesshub.pdc.wa.gov/node/24289),State government,,
259,24289-18569,24289,FE,17496,DOTY & ASSOC INC*,Employer,18569,MUCKLESHOOT INDIAN TRIBE,16-Jul,8/11/2016,16650.0,MUCKLESHOOT INDIAN TRIBE,6250.0,0.0,6250.0,0.0,0.0,0.0,0.0,0.0,0.0,0.0,6250.0,18569.0,Direct,,,View report (https://accesshub.pdc.wa.gov/node/24289),State government,,
260,24289-18570,24289,FE,17496,DOTY & ASSOC INC*,Employer,18570,OLYMPIC CASCADE SERVICES INC,16-Jul,8/11/2016,16735.0,OLYMPIC CASCADE SERVICES INC,5000.0,0.0,5000.0,0.0,0.0,0.0,0.0,0.0,0.0,0.0,5000.0,18570.0,Direct,,,View report (https://accesshub.pdc.wa.gov/node/24289),State government,,
261,24584-19401,24584,FE,17872,OYSTER BAY PUBLIC AFFAIRS*,Employer,19401,OTSUKA AMERICA PHARMACEUTICAL INC,16-Jul,8/11/2016,16743.0,OTSUKA AMERICA PHARMACEUTICAL INC,4000.0,0.0,4000.0,0.0,0.0,0.0,0.0,0.0,0.0,0.0,4000.0,19401.0,Direct,,,View report (https://accesshub.pdc.wa.gov/node/24584),Health Care,,
262,24289-18571,24289,FE,17496,DOTY & ASSOC INC*,Employer,18571,PARATRANSIT SERVICES,16-Jul,8/11/2016,16762.0,PARATRANSIT SERVICES,1500.0,0.0,1500.0,25.0,0.0,0.0,0.0,0.0,0.0,25.0,1525.0,18571.0,Direct,,,View report (https://accesshub.pdc.wa.gov/node/24289),State government,,
263,24584-19402,24584,FE,17872,OYSTER BAY PUBLIC AFFAIRS*,Employer,19402,PFIZER INC,16-Jul,8/11/2016,16774.0,PFIZER INC,4000.0,0.0,4000.0,499.36,311.69,13050.0,0.0,0.0,0.0,13861.05,17861.05,19402.0,Direct,,,View report (https://accesshub.pdc.wa.gov/node/24584),Health Care,,
264,24603-18325,24603,FE,17414,ANNE E BRYANT,Employer,18325,Physicians Insurance a Mutual Co,16-Jul,8/11/2016,16780.0,Physicians Insurance a Mutual Co,5000.0,0.0,5000.0,0.0,0.0,0.0,0.0,0.0,0.0,0.0,5000.0,18325.0,Direct,,,View report (https://accesshub.pdc.wa.gov/node/24603),Health Care,,
265,24580-18127,24580,FE,17333,JENNIFER M ALLEN,Employer,18127,PLANNED PARENTHOOD ALLIANCE ADVOCATES,16-Jul,8/11/2016,16789.0,PLANNED PARENTHOOD ALLIANCE ADVOCATES,547.24,0.0,547.24,26.21,0.0,0.0,0.0,0.0,0.0,26.21,573.45,18127.0,Direct,,,View report (https://accesshub.pdc.wa.gov/node/24580),Health Care,,
266,24289-18572,24289,FE,17496,DOTY & ASSOC INC*,Employer,18572,PORT OF BREMERTON,16-Jul,8/11/2016,16793.0,PORT OF BREMERTON,2000.0,0.0,2000.0,0.0,0.0,0.0,0.0,0.0,0.0,0.0,2000.0,18572.0,Direct,,,View report (https://accesshub.pdc.wa.gov/node/24289),State government,,
267,24584-19403,24584,FE,17872,OYSTER BAY PUBLIC AFFAIRS*,Employer,19403,Washington School Counselor Association,16-Jul,8/11/2016,16880.0,Washington School Counselor Association,1000.0,0.0,1000.0,0.0,0.0,0.0,0.0,0.0,0.0,0.0,1000.0,19403.0,Direct,,,View report (https://accesshub.pdc.wa.gov/node/24584),Education,,
268,24578-19355,24578,FE,17844,THOMAS C NELSON,Employer,19355,Sierra Pacific Industries,16-Aug,8/11/2016,16916.0,Sierra Pacific Industries,1420.0,0.0,1420.0,0.0,0.0,0.0,0.0,0.0,0.0,0.0,1420.0,19355.0,Direct,,,View report (https://accesshub.pdc.wa.gov/node/24578),State government,,
269,24584-19404,24584,FE,17872,OYSTER BAY PUBLIC AFFAIRS*,Employer,19404,VERTEX PHARMACEUTICALS INC,16-Jul,8/11/2016,17033.0,VERTEX PHARMACEUTICALS INC,4000.0,0.0,4000.0,0.0,0.0,0.0,0.0,0.0,0.0,0.0,4000.0,19404.0,Direct,,,View report (https://accesshub.pdc.wa.gov/node/24584),Health Care,,
270,24289-18573,24289,FE,17496,DOTY & ASSOC INC*,Employer,18573,WA BAIL BOND COALITION,16-Jul,8/11/2016,17064.0,WA BAIL BOND COALITION,2000.0,0.0,2000.0,92.97,0.0,0.0,0.0,0.0,0.0,92.97,2092.97,18573.0,Direct,,,View report (https://accesshub.pdc.wa.gov/node/24289),State government,,
271,24584-19405,24584,FE,17872,OYSTER BAY PUBLIC AFFAIRS*,Employer,19405,WA ASSN OF BUILDING OFFICIALS,16-Jul,8/11/2016,17066.0,WA ASSN OF BUILDING OFFICIALS,2500.0,0.0,2500.0,194.25,0.0,0.0,0.0,0.0,0.0,194.25,2694.25,19405.0,Direct,,,View report (https://accesshub.pdc.wa.gov/node/24584),Local government,,
272,24584-19406,24584,FE,17872,OYSTER BAY PUBLIC AFFAIRS*,Employer,19406,WA FOOD INDUSTRY,16-Jul,8/11/2016,17117.0,WA FOOD INDUSTRY,2388.0,0.0,2388.0,178.74,0.0,0.0,0.0,0.0,0.0,178.74,2566.74,19406.0,Direct,,,View report (https://accesshub.pdc.wa.gov/node/24584),Business and consumer affairs,,
273,24584-19407,24584,FE,17872,OYSTER BAY PUBLIC AFFAIRS*,Employer,19407,NORTHWEST CAREER COLLEGE FEDERATION,16-Jul,8/11/2016,17118.0,NORTHWEST CAREER COLLEGE FEDERATION,2500.0,0.0,2500.0,0.0,0.0,0.0,0.0,0.0,0.0,0.0,2500.0,19407.0,Direct,,,View report (https://accesshub.pdc.wa.gov/node/24584),Higher education,,
274,24599-18557,24599,FE,17488,GREG DEVEREUX,Employer,18557,WA FEDERATION OF STATE EMPLOYEES,16-Jul,8/11/2016,17121.0,WA FEDERATION OF STATE EMPLOYEES,3461.73,0.0,3461.73,0.0,0.0,0.0,0.0,0.0,0.0,0.0,3461.73,18557.0,Direct,,,View report (https://accesshub.pdc.wa.gov/node/24599),State government,,
275,24600-18633,24600,FE,17509,DENNIS EAGLE,Employer,18633,WA FEDERATION OF STATE EMPLOYEES,16-Jul,8/11/2016,17121.0,WA FEDERATION OF STATE EMPLOYEES,8565.5,0.0,8565.5,0.0,0.0,50250.0,0.0,0.0,0.0,50250.0,58815.5,18633.0,Direct,,,View report (https://accesshub.pdc.wa.gov/node/24600),State government,,
276,24598-18903,24598,FE,17598,ALIA GRIFFING,Employer,18903,WA FEDERATION OF STATE EMPLOYEES,16-Jul,8/11/2016,17121.0,WA FEDERATION OF STATE EMPLOYEES,3814.67,0.0,3814.67,0.0,0.0,0.0,0.0,0.0,0.0,0.0,3814.67,18903.0,Direct,,,View report (https://accesshub.pdc.wa.gov/node/24598),State government,,
277,24596-19927,24596,FE,18111,MATT ZUVICH,Employer,19927,WA FEDERATION OF STATE EMPLOYEES,16-Jul,8/11/2016,17121.0,WA FEDERATION OF STATE EMPLOYEES,7012.0,0.0,7012.0,0.0,0.0,0.0,0.0,0.0,0.0,0.0,7012.0,19927.0,Direct,,,View report (https://accesshub.pdc.wa.gov/node/24596),State government,,
278,24289-18574,24289,FE,17496,DOTY & ASSOC INC*,Employer,18574,WA REFLEXOLOGY ASSN,16-Jul,8/11/2016,17177.0,WA REFLEXOLOGY ASSN,250.0,0.0,250.0,0.0,0.0,0.0,0.0,0.0,0.0,0.0,250.0,18574.0,Direct,,,View report (https://accesshub.pdc.wa.gov/node/24289),State government,,
280,24289-18576,24289,FE,17496,DOTY & ASSOC INC*,Employer,18576,WA ST EMERGENCY MANAGERS ASSN,16-Jul,8/11/2016,17242.0,WA ST EMERGENCY MANAGERS ASSN,1000.0,0.0,1000.0,40.0,0.0,0.0,0.0,0.0,0.0,40.0,1040.0,18576.0,Direct,,,View report (https://accesshub.pdc.wa.gov/node/24289),State government,,
281,24289-18577,24289,FE,17496,DOTY & ASSOC INC*,Employer,18577,WA ST ASSN OF FIRE CHIEFS,16-Jul,8/11/2016,17247.0,WA ST ASSN OF FIRE CHIEFS,2291.94,0.0,2291.94,1001.47,0.0,0.0,0.0,0.0,0.0,1001.47,3293.41,18577.0,Direct,,,View report (https://accesshub.pdc.wa.gov/node/24289),State government,,
282,24581-19062,24581,FE,17689,Trevor Justin Government Relations,Employer,19062,WA ST MEDICAL ASSN,16-Jul,8/11/2016,17261.0,WA ST MEDICAL ASSN,1500.0,0.0,1500.0,0.0,0.0,0.0,0.0,0.0,0.0,0.0,1500.0,19062.0,Direct,,,View report (https://accesshub.pdc.wa.gov/node/24581),Health Care,,
283,24630-19129,24630,FE,17741,JEAN M LEONARD*,Employer,19129,AMERICAN INTERNATIONAL GROUP INC,16-Jul,8/12/2016,16112.0,AMERICAN INTERNATIONAL GROUP INC,3500.0,0.0,3500.0,0.0,0.0,0.0,0.0,0.0,0.0,0.0,3500.0,19129.0,Direct,,,View report (https://accesshub.pdc.wa.gov/node/24630),Financial institutions and insurance,,
284,24559-19197,24559,FE,17774,TIMOTHY A MARTIN,Employer,19197,AMGEN INC,16-Jul,8/12/2016,16127.0,AMGEN INC,2596.0,0.0,2596.0,0.0,0.0,0.0,0.0,0.0,0.0,0.0,2596.0,19197.0,Direct,,,View report (https://accesshub.pdc.wa.gov/node/24559),Technology,,
285,24622-19136,24622,FE,17743,FAYE LINCOLN,Employer,19136,AVALON HEALTH CARE INC,16-Jul,8/12/2016,16177.0,AVALON HEALTH CARE INC,5333.0,0.0,5333.0,673.67,0.0,250.0,0.0,0.0,0.0,923.67,6256.67,19136.0,Direct,,,View report (https://accesshub.pdc.wa.gov/node/24622),Health Care,,
288,24625-18953,24625,FE,17625,ALISE HEGLE,Employer,18953,CHILDRENS HOME SOCIETY OF WA,16-Jul,8/12/2016,16260.0,CHILDRENS HOME SOCIETY OF WA,796.87,0.0,796.87,0.0,0.0,0.0,0.0,0.0,0.0,0.0,796.87,18953.0,Direct,,,View report (https://accesshub.pdc.wa.gov/node/24625),Human services,,
289,24397-19389,24397,FE,17870,OUTCOMES BY LEVY LLC*,Employer,19389,CITY OF EVERETT,16-Jul,8/12/2016,16281.0,CITY OF EVERETT,6000.0,0.0,6000.0,188.96,0.0,0.0,0.0,0.0,0.0,188.96,6188.96,19389.0,Direct,,,View report (https://accesshub.pdc.wa.gov/node/24397),Local government,,
290,24397-19390,24397,FE,17870,OUTCOMES BY LEVY LLC*,Employer,19390,CITY OF FIFE,16-Jul,8/12/2016,16283.0,CITY OF FIFE,3300.0,0.0,3300.0,137.39,0.0,0.0,0.0,0.0,0.0,137.39,3437.39,19390.0,Direct,,,View report (https://accesshub.pdc.wa.gov/node/24397),Local government,,
291,24397-19391,24397,FE,17870,OUTCOMES BY LEVY LLC*,Employer,19391,CITY OF ISSAQUAH,16-Jul,8/12/2016,16286.0,CITY OF ISSAQUAH,4300.0,0.0,4300.0,114.27,0.0,0.0,0.0,0.0,0.0,114.27,4414.27,19391.0,Direct,,,View report (https://accesshub.pdc.wa.gov/node/24397),Local government,,
292,24397-19392,24397,FE,17870,OUTCOMES BY LEVY LLC*,Employer,19392,CITY OF KENT,16-Jul,8/12/2016,16288.0,CITY OF KENT,5800.0,0.0,5800.0,164.54,0.0,0.0,0.0,0.0,0.0,164.54,5964.54,19392.0,Direct,,,View report (https://accesshub.pdc.wa.gov/node/24397),Local government,,
293,24397-19393,24397,FE,17870,OUTCOMES BY LEVY LLC*,Employer,19393,CITY OF LAKE STEVENS,16-Jul,8/12/2016,16297.0,CITY OF LAKE STEVENS,2600.0,0.0,2600.0,92.88,0.0,0.0,0.0,0.0,2600.0,2692.88,5292.88,19393.0,Direct,,,View report (https://accesshub.pdc.wa.gov/node/24397),Local government,,
294,24397-19394,24397,FE,17870,OUTCOMES BY LEVY LLC*,Employer,19394,CITY OF PUYALLUP,16-Jul,8/12/2016,16302.0,CITY OF PUYALLUP,4300.0,0.0,4300.0,213.92,0.0,0.0,0.0,0.0,0.0,213.92,4513.92,19394.0,Direct,,,View report (https://accesshub.pdc.wa.gov/node/24397),Local government,,
295,24397-19395,24397,FE,17870,OUTCOMES BY LEVY LLC*,Employer,19395,CITY OF RENTON,16-Jul,8/12/2016,16306.0,CITY OF RENTON,4000.0,0.0,4000.0,197.29,0.0,0.0,0.0,0.0,0.0,197.29,4197.29,19395.0,Direct,,,View report (https://accesshub.pdc.wa.gov/node/24397),Local government,,
296,24397-19396,24397,FE,17870,OUTCOMES BY LEVY LLC*,Employer,19396,CITY OF REDMOND,16-Jul,8/12/2016,16307.0,CITY OF REDMOND,5380.0,0.0,5380.0,168.07,0.0,0.0,0.0,0.0,0.0,168.07,5548.07,19396.0,Direct,,,View report (https://accesshub.pdc.wa.gov/node/24397),Local government,,
297,24630-19130,24630,FE,17741,JEAN M LEONARD*,Employer,19130,ENTERTAINMENT SOFTWARE ASSN,16-Jul,8/12/2016,16416.0,ENTERTAINMENT SOFTWARE ASSN,4333.33,0.0,4333.33,0.0,0.0,9550.0,0.0,0.0,0.0,9550.0,13883.33,19130.0,Direct,,,View report (https://accesshub.pdc.wa.gov/node/24630),Technology,,
299,24630-19132,24630,FE,17741,JEAN M LEONARD*,Employer,19132,NATIONWIDE INSURANCE,16-Jul,8/12/2016,16676.0,NATIONWIDE INSURANCE,3000.0,0.0,3000.0,0.0,0.0,0.0,0.0,0.0,0.0,0.0,3000.0,19132.0,Direct,,,View report (https://accesshub.pdc.wa.gov/node/24630),Financial institutions and insurance,,
300,24630-19133,24630,FE,17741,JEAN M LEONARD*,Employer,19133,SPRINT NEXTEL,16-Jul,8/12/2016,16683.0,SPRINT NEXTEL,3000.0,0.0,3000.0,0.0,0.0,4800.0,0.0,0.0,0.0,4800.0,7800.0,19133.0,Direct,,,View report (https://accesshub.pdc.wa.gov/node/24630),Technology,,
301,24558-18921,24558,FE,17606,TOM GURR,Employer,18921,PACIFIC TECHNOLOGY ALLIANCE,16-Jul,8/12/2016,16759.0,PACIFIC TECHNOLOGY ALLIANCE,1650.0,0.0,1650.0,0.0,0.0,0.0,0.0,0.0,0.0,0.0,1650.0,18921.0,Direct,,,View report (https://accesshub.pdc.wa.gov/node/24558),Technology,,
302,24635-19377,24635,FE,17857,NINA ODELL,Employer,19377,PUGET SOUND ENERGY INC,16-Jul,8/12/2016,16828.0,PUGET SOUND ENERGY INC,2345.2,0.0,2345.2,69.12,0.0,0.0,0.0,0.0,0.0,69.12,2414.32,19377.0,Direct,,,View report (https://accesshub.pdc.wa.gov/node/24635),Energy and utilities,,
303,24397-19397,24397,FE,17870,OUTCOMES BY LEVY LLC*,Employer,19397,RECREATIONAL BOATING ASSN OF WA,16-Jul,8/12/2016,16844.0,RECREATIONAL BOATING ASSN OF WA,1000.0,0.0,1000.0,55.58,0.0,0.0,0.0,0.0,0.0,55.58,1055.58,19397.0,Direct,,,View report (https://accesshub.pdc.wa.gov/node/24397),,,
304,24630-19134,24630,FE,17741,JEAN M LEONARD*,Employer,19134,STATE FARM INSURANCE COMPANIES,16-Jul,8/12/2016,16951.0,STATE FARM INSURANCE COMPANIES,8033.33,0.0,8033.33,63.94,0.0,0.0,0.0,0.0,0.0,63.94,8097.27,19134.0,Direct,,,View report (https://accesshub.pdc.wa.gov/node/24630),Financial institutions and insurance,,
305,24601-19573,24601,FE,17939,JOHN SCHLATTER,Employer,19573,TAKEDA PHARMACEUTICALS,16-Jul,8/12/2016,16970.0,TAKEDA PHARMACEUTICALS,2500.0,0.0,2500.0,0.0,0.0,0.0,0.0,0.0,0.0,0.0,2500.0,19573.0,Direct,,,View report (https://accesshub.pdc.wa.gov/node/24601),Health Care,,
307,24630-19135,24630,FE,17741,JEAN M LEONARD*,Employer,19135,WA INSURERS,16-Jul,8/12/2016,17130.0,WA INSURERS,7381.67,0.0,7381.67,0.0,0.0,0.0,0.0,0.0,0.0,0.0,7381.67,19135.0,Direct,,,View report (https://accesshub.pdc.wa.gov/node/24630),Financial institutions and insurance,,
308,24616-19379,24616,FE,17859,GERALD J O'KEEFE,Employer,19379,Washington Public Ports Association,16-Jul,8/12/2016,17174.0,Washington Public Ports Association,963.0,0.0,963.0,0.0,0.0,0.0,0.0,0.0,0.0,0.0,963.0,19379.0,Direct,,,View report (https://accesshub.pdc.wa.gov/node/24616),Transportation,,
309,24615-19831,24615,FE,18055,BRANDI VENA,Employer,19831,Washington Public Ports Association,16-Jul,8/12/2016,17174.0,Washington Public Ports Association,583.33,0.0,583.33,0.0,0.0,0.0,0.0,0.0,0.0,0.0,583.33,19831.0,Direct,,,View report (https://accesshub.pdc.wa.gov/node/24615),Local government,,
310,24620-19098,24620,FE,17713,JOHN S KOUNTS,Employer,19098,WA PUBLIC UTILITIES DISTS ASSN,16-Jul,8/12/2016,17176.0,WA PUBLIC UTILITIES DISTS ASSN,495.0,0.0,495.0,0.0,0.0,0.0,0.0,0.0,0.0,0.0,495.0,19098.0,Direct,,,View report (https://accesshub.pdc.wa.gov/node/24620),State government,,
311,24397-19398,24397,FE,17870,OUTCOMES BY LEVY LLC*,Employer,19398,WA RECREATION & PARKS ASSN,16-Jul,8/12/2016,17183.0,WA RECREATION & PARKS ASSN,1100.0,0.0,1100.0,131.54,0.0,0.0,0.0,0.0,0.0,131.54,1231.54,19398.0,Direct,,,View report (https://accesshub.pdc.wa.gov/node/24397),Environmental Affairs - natural resources - parks,,
312,24641-20045,24641,FE,18006,WILLIAM E STRUYK,Employer,20045,ADVANCED MEDICAL TECHNOLOGY ASSN (MILLENNIA PUBLIC AFFAIRS INC*),16-Jul,8/13/2016,16069.0,ADVANCED MEDICAL TECHNOLOGY ASSN,1500.0,0.0,1500.0,0.0,0.0,0.0,0.0,0.0,0.0,0.0,1500.0,20045.0,Subcontract,17813.0,MILLENNIA PUBLIC AFFAIRS INC*,View report (https://accesshub.pdc.wa.gov/node/24641),,,
313,24641-19973,24641,FE,18006,WILLIAM E STRUYK,Employer,19973,ALKERMES PLC (MILLENNIA PUBLIC AFFAIRS INC*),16-Jul,8/13/2016,16079.0,ALKERMES PLC,2500.0,0.0,2500.0,0.0,0.0,0.0,0.0,0.0,0.0,0.0,2500.0,19973.0,Subcontract,17813.0,MILLENNIA PUBLIC AFFAIRS INC*,View report (https://accesshub.pdc.wa.gov/node/24641),,,
314,24527-19414,24527,FE,17875,PAM CRONE LEGISLATIVE CONSULTING SVCS*,Employer,19414,BUILDING CHANGES,16-Jul,8/13/2016,16214.0,BUILDING CHANGES,875.0,0.0,875.0,0.0,0.0,0.0,0.0,0.0,325.0,325.0,1200.0,19414.0,Direct,,,View report (https://accesshub.pdc.wa.gov/node/24527),Human services,,
315,24527-19415,24527,FE,17875,PAM CRONE LEGISLATIVE CONSULTING SVCS*,Employer,19415,COMMUNITY HEALTH NETWORK OF WA,16-Jul,8/13/2016,16348.0,COMMUNITY HEALTH NETWORK OF WA,4800.0,0.0,4800.0,0.0,0.0,0.0,0.0,0.0,0.0,0.0,4800.0,19415.0,Direct,,,View report (https://accesshub.pdc.wa.gov/node/24527),Health Care,,
316,24640-18529,24640,FE,17479,ROMAN M DANIELS-BROWN,Employer,18529,DaVita Inc.,16-Jul,8/13/2016,16380.0,DaVita Inc.,4000.0,0.0,4000.0,97.0,0.0,0.0,0.0,0.0,0.0,97.0,4097.0,18529.0,Direct,,,View report (https://accesshub.pdc.wa.gov/node/24640),Health Care,,
317,24640-18530,24640,FE,17479,ROMAN M DANIELS-BROWN,Employer,18530,EDUCATION MANAGEMENT CORP,16-Jul,8/13/2016,16404.0,EDUCATION MANAGEMENT CORP,5000.0,0.0,5000.0,97.0,0.0,0.0,0.0,0.0,0.0,97.0,5097.0,18530.0,Direct,,,View report (https://accesshub.pdc.wa.gov/node/24640),Higher education,,
318,24527-19416,24527,FE,17875,PAM CRONE LEGISLATIVE CONSULTING SVCS*,Employer,19416,CEDAR RIVER CLINICS,16-Jul,8/13/2016,16439.0,CEDAR RIVER CLINICS,375.0,0.0,375.0,0.0,0.0,0.0,0.0,0.0,375.0,375.0,750.0,19416.0,Direct,,,View report (https://accesshub.pdc.wa.gov/node/24527),Health Care,,
319,24527-19418,24527,FE,17875,PAM CRONE LEGISLATIVE CONSULTING SVCS*,Employer,19418,LEGAL VOICE,16-Jul,8/13/2016,16723.0,LEGAL VOICE,1000.0,0.0,1000.0,0.0,0.0,0.0,0.0,0.0,1000.0,1000.0,2000.0,19418.0,Direct,,,View report (https://accesshub.pdc.wa.gov/node/24527),Health Care,,
320,24640-18531,24640,FE,17479,ROMAN M DANIELS-BROWN,Employer,18531,"Novartis Services, Inc.",16-Jul,8/13/2016,16725.0,"Novartis Services, Inc.",4583.33,0.0,4583.33,0.0,0.0,5500.0,0.0,0.0,0.0,5500.0,10083.33,18531.0,Direct,,,View report (https://accesshub.pdc.wa.gov/node/24640),Health Care,,
321,24640-18532,24640,FE,17479,ROMAN M DANIELS-BROWN,Employer,18532,PACIFIC DENTAL SERVICES,16-Jul,8/13/2016,16749.0,PACIFIC DENTAL SERVICES,6000.0,0.0,6000.0,707.0,0.0,13000.0,0.0,0.0,0.0,13707.0,19707.0,18532.0,Direct,,,View report (https://accesshub.pdc.wa.gov/node/24640),Health Care,,
322,24644-18973,24644,FE,17645,BILL HINKLE,Employer,18973,RENTAL HOUSING ASSN OF WA,16-Jul,8/13/2016,16894.0,RENTAL HOUSING ASSN OF WA,4025.0,0.0,4025.0,0.0,0.0,0.0,0.0,0.0,0.0,0.0,4025.0,18973.0,Direct,,,View report (https://accesshub.pdc.wa.gov/node/24644),Law and justice,,
323,24640-18534,24640,FE,17479,ROMAN M DANIELS-BROWN,Employer,18534,TAKEDA PHARMACEUTICALS,16-Jul,8/13/2016,16970.0,TAKEDA PHARMACEUTICALS,3000.0,0.0,3000.0,0.0,0.0,1500.0,0.0,0.0,0.0,1500.0,4500.0,18534.0,Direct,,,View report (https://accesshub.pdc.wa.gov/node/24640),Health Care,,
324,24640-18538,24640,FE,17479,ROMAN M DANIELS-BROWN,Employer,18538,Washington Orthotic And Prosthetic Association,16-Jul,8/13/2016,17159.0,Washington Orthotic And Prosthetic Association,633.0,0.0,633.0,0.0,0.0,0.0,0.0,0.0,0.0,0.0,633.0,18538.0,Direct,,,View report (https://accesshub.pdc.wa.gov/node/24640),Health Care,,
325,24527-19422,24527,FE,17875,PAM CRONE LEGISLATIVE CONSULTING SVCS*,Employer,19422,WA ST COALITION  AGAINST DOMESTIC VIOLENCE,16-Jul,8/13/2016,17227.0,WA ST COALITION  AGAINST DOMESTIC VIOLENCE,1299.56,0.0,1299.56,0.0,0.0,0.0,0.0,0.0,600.0,600.0,1899.56,19422.0,Direct,,,View report (https://accesshub.pdc.wa.gov/node/24527),,,
326,24640-18539,24640,FE,17479,ROMAN M DANIELS-BROWN,Employer,18539,WESTERN WOOD PRESERVERS INSTITUTE,16-Jul,8/13/2016,17304.0,WESTERN WOOD PRESERVERS INSTITUTE,1750.0,0.0,1750.0,0.0,0.0,0.0,0.0,0.0,0.0,0.0,1750.0,18539.0,Direct,,,View report (https://accesshub.pdc.wa.gov/node/24640),Environmental Affairs - natural resources - parks,,
327,24644-18974,24644,FE,17645,BILL HINKLE,Employer,18974,YAKIMA VALLEY LANDLORDS ASSN,16-Jul,8/13/2016,17322.0,YAKIMA VALLEY LANDLORDS ASSN,750.0,0.0,750.0,0.0,0.0,0.0,0.0,0.0,0.0,0.0,750.0,18974.0,Direct,,,View report (https://accesshub.pdc.wa.gov/node/24644),Law and justice,,
345,24652-19365,24652,FE,17850,PAUL NIELSEN,Employer,19365,ALKERMES PLC,16-Jul,8/15/2016,16079.0,ALKERMES PLC,3000.0,0.0,3000.0,1359.0,0.0,5250.0,0.0,0.0,0.0,6609.0,9609.0,19365.0,Direct,,,View report (https://accesshub.pdc.wa.gov/node/24652),Health Care,,
346,24786-19341,24786,FE,17840,GRANT NELSON,Employer,19341,AMERICAN CHEMISTRY COUNCIL,16-Jul,8/15/2016,16094.0,AMERICAN CHEMISTRY COUNCIL,5000.0,0.0,5000.0,0.0,0.0,0.0,0.0,0.0,0.0,0.0,5000.0,19341.0,Direct,,,View report (https://accesshub.pdc.wa.gov/node/24786),,,
350,24587-19653,24587,FE,17981,DIANA STADDEN,Employer,19653,ARC OF WA ST,16-Jul,8/15/2016,16137.0,ARC OF WA ST,300.0,0.0,300.0,0.0,0.0,0.0,0.0,0.0,0.0,0.0,300.0,19653.0,Direct,,,View report (https://accesshub.pdc.wa.gov/node/24587),,,
351,24786-19343,24786,FE,17840,GRANT NELSON,Employer,19343,"Ash Grove Cement Co., a CRH Company",16-Jul,8/15/2016,16143.0,"Ash Grove Cement Co., a CRH Company",5000.0,0.0,5000.0,0.0,0.0,0.0,0.0,0.0,0.0,0.0,5000.0,19343.0,Direct,,,View report (https://accesshub.pdc.wa.gov/node/24786),Environmental Affairs - natural resources - parks,,
353,24755-19928,24755,FE,18112,SYDNEY SMITH  ZVARA,Employer,19928,Association of Washington Healthcare Plans,16-Jul,8/15/2016,16169.0,Association of Washington Healthcare Plans,1500.0,0.0,1500.0,135.21,0.0,0.0,0.0,0.0,0.0,135.21,1635.21,19928.0,Direct,,,View report (https://accesshub.pdc.wa.gov/node/24755),Health Care,,
355,24655-19359,24655,FE,17848,THE NEXUS GROUP LLC*,Employer,19359,ASSN OF WA SCHOOL PRINCIPALS,16-Jul,8/15/2016,16173.0,ASSN OF WA SCHOOL PRINCIPALS,1320.0,0.0,1320.0,0.0,0.0,0.0,0.0,0.0,0.0,0.0,1320.0,19359.0,Direct,,,View report (https://accesshub.pdc.wa.gov/node/24655),Fiscal,,
356,24726-19514,24726,FE,17906,PUBLIC AFFAIRS OF WA LLC*,Employer,19514,BACK COUNTRY HORSEMEN OF WA,16-Jul,8/15/2016,16181.0,BACK COUNTRY HORSEMEN OF WA,312.5,0.0,312.5,3.79,0.0,0.0,0.0,0.0,0.0,3.79,316.29,19514.0,Direct,,,View report (https://accesshub.pdc.wa.gov/node/24726),Fiscal,,
360,24726-19515,24726,FE,17906,PUBLIC AFFAIRS OF WA LLC*,Employer,19515,BLDG OWNERS & MANAGERS ASSN OF KING CO,16-Jul,8/15/2016,16216.0,BLDG OWNERS & MANAGERS ASSN OF KING CO,1555.32,0.0,1555.32,113.94,115.95,0.0,0.0,0.0,0.0,229.89,1785.21,19515.0,Direct,,,View report (https://accesshub.pdc.wa.gov/node/24726),Business and consumer affairs,,
361,24468-19274,24468,FE,17811,MILLER MALONE & TELLEFSON PS*,Employer,19274,CVS HEALTH,16-Jul,8/15/2016,16229.0,CVS HEALTH,4166.66,0.0,4166.66,0.0,0.0,0.0,0.0,0.0,0.0,0.0,4166.66,19274.0,Direct,,,View report (https://accesshub.pdc.wa.gov/node/24468),Health Care,,
362,24791-18515,24791,FE,17472,AHNE PLLC*,Employer,18515,CGI TECHNOLOGIES & SOLUTIONS INC,16-Jul,8/15/2016,16250.0,CGI TECHNOLOGIES & SOLUTIONS INC,2500.0,0.0,2500.0,0.0,0.0,0.0,0.0,0.0,0.0,0.0,2500.0,18515.0,Direct,,,View report (https://accesshub.pdc.wa.gov/node/24791),Technology,,
363,24726-19516,24726,FE,17906,PUBLIC AFFAIRS OF WA LLC*,Employer,19516,CHECKER CAB OF SEA-TAC CORP,16-Jul,8/15/2016,16251.0,CHECKER CAB OF SEA-TAC CORP,2750.0,0.0,2750.0,318.48,0.0,0.0,0.0,0.0,0.0,318.48,3068.48,19516.0,Direct,,,View report (https://accesshub.pdc.wa.gov/node/24726),Transportation,,
369,24657-19871,24657,FE,18075,RHONDA WEAVER,Employer,19871,COMCAST CABLE COMMUNICATIONS,16-Jul,8/15/2016,16344.0,COMCAST CABLE COMMUNICATIONS,650.0,0.0,650.0,0.0,0.0,0.0,0.0,0.0,0.0,0.0,650.0,19871.0,Direct,,,View report (https://accesshub.pdc.wa.gov/node/24657),Business and consumer affairs,,
376,24726-19517,24726,FE,17906,PUBLIC AFFAIRS OF WA LLC*,Employer,19517,FAMILY WINERIES OF WA ST,16-Jul,8/15/2016,16434.0,FAMILY WINERIES OF WA ST,208.33,0.0,208.33,71.97,0.0,0.0,0.0,0.0,0.0,71.97,280.3,19517.0,Direct,,,View report (https://accesshub.pdc.wa.gov/node/24726),Business and consumer affairs,,
377,24654-19273,24654,FE,17810,BRIAN R MILLER,Employer,19273,FARMERS INSURANCE GROUP,16-Jul,8/15/2016,16436.0,FARMERS INSURANCE GROUP,3493.24,0.0,3493.24,0.0,0.0,0.0,0.0,0.0,0.0,0.0,3493.24,19273.0,Direct,,,View report (https://accesshub.pdc.wa.gov/node/24654),Financial institutions and insurance,,
378,24468-19275,24468,FE,17811,MILLER MALONE & TELLEFSON PS*,Employer,19275,FIDELITY NATIONAL FINANCIAL INC,16-Jul,8/15/2016,16442.0,FIDELITY NATIONAL FINANCIAL INC,4166.67,0.0,4166.67,0.0,0.0,0.0,0.0,0.0,0.0,0.0,4166.67,19275.0,Direct,,,View report (https://accesshub.pdc.wa.gov/node/24468),Financial institutions and insurance,,
379,24468-19276,24468,FE,17811,MILLER MALONE & TELLEFSON PS*,Employer,19276,FORD MOTOR CO,16-Jul,8/15/2016,16449.0,FORD MOTOR CO,1000.0,0.0,1000.0,0.0,0.0,0.0,0.0,0.0,0.0,0.0,1000.0,19276.0,Direct,,,View report (https://accesshub.pdc.wa.gov/node/24468),Transportation,,
381,24468-19277,24468,FE,17811,MILLER MALONE & TELLEFSON PS*,Employer,19277,GETINSURED,16-Jul,8/15/2016,16469.0,GETINSURED,3000.0,0.0,3000.0,0.0,0.0,0.0,0.0,0.0,0.0,0.0,3000.0,19277.0,Direct,,,View report (https://accesshub.pdc.wa.gov/node/24468),Health Care,,
383,24726-19518,24726,FE,17906,PUBLIC AFFAIRS OF WA LLC*,Employer,19518,GOVT BLDG OWNERS & LESSORS ASSN,16-Jul,8/15/2016,16476.0,GOVT BLDG OWNERS & LESSORS ASSN,2916.66,0.0,2916.66,0.0,0.0,0.0,0.0,0.0,0.0,0.0,2916.66,19518.0,Direct,,,View report (https://accesshub.pdc.wa.gov/node/24726),Fiscal,,
384,24726-19519,24726,FE,17906,PUBLIC AFFAIRS OF WA LLC*,Employer,19519,INSTITUTE OF REAL ESTATE MGMT,16-Jul,8/15/2016,16534.0,INSTITUTE OF REAL ESTATE MGMT,375.0,0.0,375.0,52.89,0.0,0.0,0.0,0.0,0.0,52.89,427.89,19519.0,Direct,,,View report (https://accesshub.pdc.wa.gov/node/24726),Fiscal,,
385,24749-20009,24749,FE,17920,G SCOTT RICHARDS,Employer,20009,INVENERGY (DAVID C ARBAUGH),16-May,8/15/2016,16546.0,INVENERGY,1750.0,0.0,1750.0,0.0,0.0,0.0,0.0,0.0,0.0,0.0,1750.0,20009.0,Subcontract,17342.0,DAVID C ARBAUGH,View report (https://accesshub.pdc.wa.gov/node/24749),,,
386,24753-20009,24753,FE,17920,G SCOTT RICHARDS,Employer,20009,INVENERGY (DAVID C ARBAUGH),16-Jun,8/15/2016,16546.0,INVENERGY,1750.0,0.0,1750.0,68.04,0.0,0.0,0.0,0.0,0.0,68.04,1818.04,20009.0,Subcontract,17342.0,DAVID C ARBAUGH,View report (https://accesshub.pdc.wa.gov/node/24753),,,
389,24726-19521,24726,FE,17906,PUBLIC AFFAIRS OF WA LLC*,Employer,19521,Manufactured Housing Communities of WA,16-Jul,8/15/2016,16614.0,Manufactured Housing Communities of WA,1690.65,0.0,1690.65,109.64,205.34,0.0,0.0,0.0,0.0,314.98,2005.63,19521.0,Direct,,,View report (https://accesshub.pdc.wa.gov/node/24726),Fiscal,,
390,24726-19522,24726,FE,17906,PUBLIC AFFAIRS OF WA LLC*,Employer,19522,WA ST MARTIAL ARTS ASSN,16-Jul,8/15/2016,16619.0,WA ST MARTIAL ARTS ASSN,1250.0,0.0,1250.0,102.75,0.0,0.0,0.0,0.0,0.0,102.75,1352.75,19522.0,Direct,,,View report (https://accesshub.pdc.wa.gov/node/24726),Fiscal,,
392,24709-19262,24709,FE,17804,LIS HOUCHEN,Employer,19262,NATL ASSN OF CHAIN DRUG STORES,16-Jul,8/15/2016,16658.0,NATL ASSN OF CHAIN DRUG STORES,754.0,0.0,754.0,0.0,0.0,0.0,0.0,0.0,0.0,0.0,754.0,19262.0,Direct,,,View report (https://accesshub.pdc.wa.gov/node/24709),Health Care,,
393,24726-19523,24726,FE,17906,PUBLIC AFFAIRS OF WA LLC*,Employer,19523,NATL ASSN OF CREDIT MGMT,16-Jul,8/15/2016,16659.0,NATL ASSN OF CREDIT MGMT,604.0,0.0,604.0,98.08,0.0,0.0,0.0,0.0,0.0,98.08,702.08,19523.0,Direct,,,View report (https://accesshub.pdc.wa.gov/node/24726),Labor,,
395,24749-19547,24749,FE,17920,G SCOTT RICHARDS,Employer,19547,THE NATURE CONSERVANCY,16-May,8/15/2016,16677.0,THE NATURE CONSERVANCY,3000.0,0.0,3000.0,141.48,0.0,0.0,0.0,0.0,0.0,141.48,3141.48,19547.0,Direct,,,View report (https://accesshub.pdc.wa.gov/node/24749),Environmental Affairs - natural resources - parks,,
396,24753-19547,24753,FE,17920,G SCOTT RICHARDS,Employer,19547,THE NATURE CONSERVANCY,16-Jun,8/15/2016,16677.0,THE NATURE CONSERVANCY,3000.0,0.0,3000.0,66.96,0.0,0.0,0.0,0.0,0.0,66.96,3066.96,19547.0,Direct,,,View report (https://accesshub.pdc.wa.gov/node/24753),Environmental Affairs - natural resources - parks,,
398,24655-19360,24655,FE,17848,THE NEXUS GROUP LLC*,Employer,19360,NW NATURAL GAS,16-Jul,8/15/2016,16715.0,NW NATURAL GAS,2750.0,0.0,2750.0,0.0,0.0,28250.0,0.0,0.0,0.0,28250.0,31000.0,19360.0,Direct,,,View report (https://accesshub.pdc.wa.gov/node/24655),Energy and utilities,,
399,24791-18516,24791,FE,17472,AHNE PLLC*,Employer,18516,OVERTON & ASSOC,16-Jul,8/15/2016,16744.0,OVERTON & ASSOC,1666.0,0.0,1666.0,0.0,0.0,0.0,0.0,0.0,0.0,0.0,1666.0,18516.0,Direct,,,View report (https://accesshub.pdc.wa.gov/node/24791),Transportation,,
400,24786-19347,24786,FE,17840,GRANT NELSON,Employer,19347,PACIFIC NORTHWEST HARDWARE & IMPLEMENT ASSN,16-Jul,8/15/2016,16750.0,PACIFIC NORTHWEST HARDWARE & IMPLEMENT ASSN,1000.0,0.0,1000.0,0.0,0.0,0.0,0.0,0.0,0.0,0.0,1000.0,19347.0,Direct,,,View report (https://accesshub.pdc.wa.gov/node/24786),,,
401,24749-20029,24749,FE,17920,G SCOTT RICHARDS,Employer,20029,PENINSULA LIGHT CO (JAMES G ROWLAND),16-May,8/15/2016,16772.0,PENINSULA LIGHT CO,2000.0,0.0,2000.0,0.0,0.0,0.0,0.0,0.0,0.0,0.0,2000.0,20029.0,Subcontract,17928.0,JAMES G ROWLAND,View report (https://accesshub.pdc.wa.gov/node/24749),,,
402,24655-19361,24655,FE,17848,THE NEXUS GROUP LLC*,Employer,19361,Pierce County,16-Jul,8/15/2016,16781.0,Pierce County,3100.0,0.0,3100.0,0.0,0.0,0.0,0.0,0.0,0.0,0.0,3100.0,19361.0,Direct,,,View report (https://accesshub.pdc.wa.gov/node/24655),Local government,,
403,24791-19935,24791,FE,17472,AHNE PLLC*,Employer,19935,PORT GAMBLE S'KLALLAM TRIBE (DAVOR GJURASIC),16-Jul,8/15/2016,16799.0,PORT GAMBLE S'KLALLAM TRIBE,2708.33,0.0,2708.33,0.0,0.0,0.0,0.0,0.0,0.0,0.0,2708.33,19935.0,Subcontract,17575.0,DAVOR GJURASIC,View report (https://accesshub.pdc.wa.gov/node/24791),,,
405,24468-19278,24468,FE,17811,MILLER MALONE & TELLEFSON PS*,Employer,19278,Progressive,16-Jul,8/15/2016,16816.0,Progressive,5833.33,0.0,5833.33,0.0,0.0,0.0,0.0,0.0,0.0,0.0,5833.33,19278.0,Direct,,,View report (https://accesshub.pdc.wa.gov/node/24468),Financial institutions and insurance,,
407,24468-19279,24468,FE,17811,MILLER MALONE & TELLEFSON PS*,Employer,19279,REGENCE BLUE SHIELD,16-Jul,8/15/2016,16849.0,REGENCE BLUE SHIELD,9416.67,0.0,9416.67,0.0,0.0,0.0,0.0,0.0,0.0,0.0,9416.67,19279.0,Direct,,,View report (https://accesshub.pdc.wa.gov/node/24468),Health Care,,
411,24791-18517,24791,FE,17472,AHNE PLLC*,Employer,18517,SQUAXIN ISLAND TRIBE,16-Jul,8/15/2016,16945.0,SQUAXIN ISLAND TRIBE,4500.0,0.0,4500.0,0.0,0.0,0.0,0.0,0.0,0.0,0.0,4500.0,18517.0,Direct,,,View report (https://accesshub.pdc.wa.gov/node/24791),Environmental Affairs - natural resources - parks,,
413,24726-19525,24726,FE,17906,PUBLIC AFFAIRS OF WA LLC*,Employer,19525,SUNRISE SERVICES INC,16-Jul,8/15/2016,16959.0,SUNRISE SERVICES INC,725.0,0.0,725.0,94.17,52.72,0.0,0.0,0.0,0.0,146.89,871.89,19525.0,Direct,,,View report (https://accesshub.pdc.wa.gov/node/24726),Health Care,,
414,24786-19348,24786,FE,17840,GRANT NELSON,Employer,19348,Toy Association,16-Jul,8/15/2016,16988.0,Toy Association,5000.0,0.0,5000.0,0.0,0.0,0.0,0.0,0.0,0.0,0.0,5000.0,19348.0,Direct,,,View report (https://accesshub.pdc.wa.gov/node/24786),,,
416,24715-18432,24715,FE,17444,SARAH I CHERIN,Employer,18432,UNITED FOOD & COMM WRKRS # 3000,16-Jul,8/15/2016,17005.0,UNITED FOOD & COMM WRKRS # 3000,303.65,0.0,303.65,0.0,0.0,0.0,0.0,0.0,0.0,0.0,303.65,18432.0,Direct,,,View report (https://accesshub.pdc.wa.gov/node/24715),Labor,,
417,24468-19280,24468,FE,17811,MILLER MALONE & TELLEFSON PS*,Employer,19280,USAA,16-Jul,8/15/2016,17012.0,USAA,3902.25,0.0,3902.25,0.0,0.0,0.0,0.0,0.0,0.0,0.0,3902.25,19280.0,Direct,,,View report (https://accesshub.pdc.wa.gov/node/24468),Financial institutions and insurance,,
418,24760-19104,24760,FE,17719,HERB KROHN,Employer,19104,SMART TD PAC,16-Jul,8/15/2016,17017.0,SMART TD PAC,3000.0,0.0,3000.0,0.0,0.0,0.0,0.0,0.0,0.0,0.0,3000.0,19104.0,Direct,,,View report (https://accesshub.pdc.wa.gov/node/24760),,,
419,24468-19281,24468,FE,17811,MILLER MALONE & TELLEFSON PS*,Employer,19281,Veritec Solutions,16-Jul,8/15/2016,17031.0,Veritec Solutions,2000.0,0.0,2000.0,0.0,0.0,0.0,0.0,0.0,0.0,0.0,2000.0,19281.0,Direct,,,View report (https://accesshub.pdc.wa.gov/node/24468),Financial institutions and insurance,,
421,24726-19526,24726,FE,17906,PUBLIC AFFAIRS OF WA LLC*,Employer,19526,WA APARTMENT ASSN,16-Jul,8/15/2016,17043.0,WA APARTMENT ASSN,1757.05,0.0,1757.05,673.98,187.34,0.0,0.0,0.0,0.0,861.32,2618.37,19526.0,Direct,,,View report (https://accesshub.pdc.wa.gov/node/24726),Fiscal,,
422,24726-19527,24726,FE,17906,PUBLIC AFFAIRS OF WA LLC*,Employer,19527,WA COLLECTORS ASSN,16-Jul,8/15/2016,17068.0,WA COLLECTORS ASSN,1763.01,0.0,1763.01,425.5,115.96,0.0,0.0,0.0,0.0,541.46,2304.47,19527.0,Direct,,,View report (https://accesshub.pdc.wa.gov/node/24726),Fiscal,,
427,24725-19038,24725,FE,17677,ERIC D JOHNSON,Employer,19038,Washington Public Ports Association,16-Jul,8/15/2016,17174.0,Washington Public Ports Association,1304.46,0.0,1304.46,0.0,0.0,0.0,0.0,0.0,0.0,0.0,1304.46,19038.0,Direct,,,View report (https://accesshub.pdc.wa.gov/node/24725),Transportation,,
428,24727-19763,24727,FE,18025,JAMES THOMPSON,Employer,19763,Washington Public Ports Association,16-Jul,8/15/2016,17174.0,Washington Public Ports Association,916.67,0.0,916.67,0.0,0.0,0.0,0.0,0.0,0.0,0.0,916.67,19763.0,Direct,,,View report (https://accesshub.pdc.wa.gov/node/24727),Transportation,,
429,24749-19548,24749,FE,17920,G SCOTT RICHARDS,Employer,19548,WA PUBLIC UTILITIES DISTS ASSN,16-May,8/15/2016,17176.0,WA PUBLIC UTILITIES DISTS ASSN,3000.0,0.0,3000.0,100.0,0.0,0.0,0.0,0.0,0.0,100.0,3100.0,19548.0,Direct,,,View report (https://accesshub.pdc.wa.gov/node/24749),Technology,,
430,24753-19548,24753,FE,17920,G SCOTT RICHARDS,Employer,19548,WA PUBLIC UTILITIES DISTS ASSN,16-Jun,8/15/2016,17176.0,WA PUBLIC UTILITIES DISTS ASSN,3000.0,0.0,3000.0,100.0,0.0,0.0,0.0,0.0,0.0,100.0,3100.0,19548.0,Direct,,,View report (https://accesshub.pdc.wa.gov/node/24753),Energy and utilities,,
432,24766-19850,24766,FE,18067,DAVID P WARREN,Employer,19850,WA PUBLIC UTILITIES DISTS ASSN,16-Jul,8/15/2016,17176.0,WA PUBLIC UTILITIES DISTS ASSN,1000.0,0.0,1000.0,0.0,0.0,0.0,0.0,0.0,0.0,0.0,1000.0,19850.0,Direct,,,View report (https://accesshub.pdc.wa.gov/node/24766),,,
433,24750-18963,24750,FE,17635,Tammie Hetrick,Employer,18963,WA RETAIL ASSN,16-Jul,8/15/2016,17180.0,WA RETAIL ASSN,1600.0,0.0,1600.0,0.0,0.0,0.0,0.0,0.0,0.0,0.0,1600.0,18963.0,Direct,,,View report (https://accesshub.pdc.wa.gov/node/24750),,,
434,24786-19350,24786,FE,17840,GRANT NELSON,Employer,19350,WA RURAL ELECTRIC CO-OP ASSN,16-Jul,8/15/2016,17181.0,WA RURAL ELECTRIC CO-OP ASSN,3000.0,0.0,3000.0,0.0,0.0,0.0,0.0,0.0,0.0,0.0,3000.0,19350.0,Direct,,,View report (https://accesshub.pdc.wa.gov/node/24786),,,
435,24655-19362,24655,FE,17848,THE NEXUS GROUP LLC*,Employer,19362,WA ASSN OF SCHOOL ADMINISTRATORS,16-Jul,8/15/2016,17186.0,WA ASSN OF SCHOOL ADMINISTRATORS,1820.0,0.0,1820.0,0.0,0.0,0.0,0.0,0.0,0.0,0.0,1820.0,19362.0,Direct,,,View report (https://accesshub.pdc.wa.gov/node/24655),Fiscal,,
437,24726-24421,24726,FE,17906,PUBLIC AFFAIRS OF WA LLC*,Employer,24421,TOWING AND RECOVERY ASSN OF WA,16-Jul,8/15/2016,17205.0,TOWING AND RECOVERY ASSN OF WA,500.0,0.0,500.0,0.0,0.0,0.0,0.0,0.0,0.0,0.0,500.0,24421.0,Direct,,,View report (https://accesshub.pdc.wa.gov/node/24726),,,
438,24726-19528,24726,FE,17906,PUBLIC AFFAIRS OF WA LLC*,Employer,19528,WA ASSN OF VEHICLE SUBAGENTS,16-Jul,8/15/2016,17207.0,WA ASSN OF VEHICLE SUBAGENTS,1994.19,0.0,1994.19,407.45,81.25,0.0,0.0,0.0,0.0,488.7,2482.89,19528.0,Direct,,,View report (https://accesshub.pdc.wa.gov/node/24726),Transportation,,
439,24728-18884,24728,FE,17594,ALISON R PHELAN,Employer,18884,WA ST BAR ASSN,16-Jul,8/15/2016,17220.0,WA ST BAR ASSN,6902.0,0.0,6902.0,0.0,0.0,0.0,0.0,0.0,0.0,0.0,6902.0,18884.0,Direct,,,View report (https://accesshub.pdc.wa.gov/node/24728),Law and justice,,
440,24717-18949,24717,FE,17621,NEIL T HARTMAN,Employer,18949,WA ST BUILDING & CONSTRUCTION TRADES COUNCIL,16-Jul,8/15/2016,17223.0,WA ST BUILDING & CONSTRUCTION TRADES COUNCIL,3500.0,0.0,3500.0,0.0,0.0,0.0,0.0,0.0,0.0,0.0,3500.0,18949.0,Direct,,,View report (https://accesshub.pdc.wa.gov/node/24717),Labor,,
441,24716-19358,24716,FE,17847,LEE NEWGENT,Employer,19358,WA ST BUILDING & CONSTRUCTION TRADES COUNCIL,16-Jul,8/15/2016,17223.0,WA ST BUILDING & CONSTRUCTION TRADES COUNCIL,6026.0,0.0,6026.0,0.0,0.0,0.0,0.0,0.0,0.0,0.0,6026.0,19358.0,Direct,,,View report (https://accesshub.pdc.wa.gov/node/24716),Labor,,
442,24468-19282,24468,FE,17811,MILLER MALONE & TELLEFSON PS*,Employer,19282,WA ST DENTAL ASSN,16-Jul,8/15/2016,17238.0,WA ST DENTAL ASSN,5500.0,0.0,5500.0,0.0,0.0,0.0,0.0,0.0,0.0,0.0,5500.0,19282.0,Direct,,,View report (https://accesshub.pdc.wa.gov/node/24468),Health Care,,
446,24786-19351,24786,FE,17840,GRANT NELSON,Employer,19351,WA ST MOTORSPORT DEALERS ASSN,16-Jul,8/15/2016,17262.0,WA ST MOTORSPORT DEALERS ASSN,1000.0,0.0,1000.0,0.0,0.0,4000.0,0.0,0.0,0.0,4000.0,5000.0,19351.0,Direct,,,View report (https://accesshub.pdc.wa.gov/node/24786),,,
447,24726-19529,24726,FE,17906,PUBLIC AFFAIRS OF WA LLC*,Employer,19529,WA ST SNOWMOBILE ASSN,16-Jul,8/15/2016,17282.0,WA ST SNOWMOBILE ASSN,718.63,0.0,718.63,41.2,16.72,0.0,0.0,0.0,0.0,57.92,776.55,19529.0,Direct,,,View report (https://accesshub.pdc.wa.gov/node/24726),Environmental Affairs - natural resources - parks,,
448,24655-19363,24655,FE,17848,THE NEXUS GROUP LLC*,Employer,19363,WA ST SCHOOL RETIREES ASSN,16-Jul,8/15/2016,17286.0,WA ST SCHOOL RETIREES ASSN,4872.0,0.0,4872.0,0.0,0.0,0.0,0.0,0.0,0.0,0.0,4872.0,19363.0,Direct,,,View report (https://accesshub.pdc.wa.gov/node/24655),Fiscal,,
449,24726-19530,24726,FE,17906,PUBLIC AFFAIRS OF WA LLC*,Employer,19530,WA ST SELF STORAGE ASSN,16-Jul,8/15/2016,17287.0,WA ST SELF STORAGE ASSN,586.21,0.0,586.21,28.21,0.0,0.0,0.0,0.0,0.0,28.21,614.42,19530.0,Direct,,,View report (https://accesshub.pdc.wa.gov/node/24726),Fiscal,,
452,24632-18430,24632,FE,17442,ANTHONY CHAVEZ,Employer,18430,WEYERHAEUSER CO,16-Jul,8/15/2016,17305.0,WEYERHAEUSER CO,2782.55,0.0,2782.55,0.0,214.01,53800.0,0.0,0.0,0.0,54014.01,56796.56,18430.0,Direct,,,View report (https://accesshub.pdc.wa.gov/node/24632),Energy and utilities,,
454,24804-19409,24804,FE,17873,PACIFIC NW REGIONAL STRATEGIES LLC*,Employer,19409,ACE METALS CORP,16-Jul,8/16/2016,16064.0,ACE METALS CORP,1000.0,0.0,1000.0,0.0,0.0,0.0,0.0,0.0,0.0,0.0,1000.0,19409.0,Direct,,,View report (https://accesshub.pdc.wa.gov/node/24804),Environmental Affairs - natural resources - parks,,
455,24784-18157,24784,FE,17342,DAVID C ARBAUGH,Employer,18157,ALLERGAN USA INC,16-Jul,8/16/2016,16080.0,ALLERGAN USA INC,3000.0,0.0,3000.0,0.0,0.0,0.0,0.0,0.0,0.0,0.0,3000.0,18157.0,Direct,,,View report (https://accesshub.pdc.wa.gov/node/24784),Health Care,,
456,24807-18673,24807,FE,17528,LUKE ESSER,Employer,18673,"Elevance Health, and its Affiliates",16-Jul,8/16/2016,16107.0,"Elevance Health, and its Affiliates",3000.0,0.0,3000.0,0.0,0.0,0.0,0.0,0.0,0.0,0.0,3000.0,18673.0,Direct,,,View report (https://accesshub.pdc.wa.gov/node/24807),Fiscal,,
457,24814-19599,24814,FE,17957,MICHAEL SHAW,Employer,19599,AMERICAN PLANNING ASSN WA CHAPTER,16-Jul,8/16/2016,16117.0,AMERICAN PLANNING ASSN WA CHAPTER,2000.0,0.0,2000.0,0.0,0.0,0.0,0.0,0.0,0.0,0.0,2000.0,19599.0,Direct,,,View report (https://accesshub.pdc.wa.gov/node/24814),Local government,,
