,id,report_number,origin,filer_id,filer_name,type,funding_source_id,funding_source_name,filing_period,receipt_date,employer_id,employer_name,compensation,sub_lobbyist_compensation,net_compensation,personal_expenses,entertainment,contributions,advertising,political_ads,other,total_expenses,net_total,employment_registration_id,employment_type,contractor_id,contractor_name,url,legislation_subject_matter,issue_bill_number,committee_lobbied
80000,70064-61518,70064,FE,48956,Brooke Davies,Employer,61518,WA BEVERAGE ASSN,20-Jul,12/9/2020,17190.0,WA BEVERAGE ASSN,1750.0,0.0,1750.0,0.0,0.0,0.0,0.0,0.0,0.0,0.0,1750.0,61518.0,Direct,,,View report (https://accesshub.pdc.wa.gov/node/70064),Business and consumer affairs,various,various
80001,70949-61518,70949,FE,48956,Brooke Davies,Employer,61518,WA BEVERAGE ASSN,20-Aug,12/9/2020,17190.0,WA BEVERAGE ASSN,1750.0,0.0,1750.0,0.0,0.0,0.0,0.0,0.0,0.0,0.0,1750.0,61518.0,Direct,,,View report (https://accesshub.pdc.wa.gov/node/70949),Business and consumer affairs,various,various
80002,71793-61518,71793,FE,48956,Brooke Davies,Employer,61518,WA BEVERAGE ASSN,20-Sep,12/9/2020,17190.0,WA BEVERAGE ASSN,1750.0,0.0,1750.0,0.0,0.0,0.0,0.0,0.0,0.0,0.0,1750.0,61518.0,Direct,,,View report (https://accesshub.pdc.wa.gov/node/71793),Business and consumer affairs,various,various
80003,71794-61518,71794,FE,48956,Brooke Davies,Employer,61518,WA BEVERAGE ASSN,20-Oct,12/9/2020,17190.0,WA BEVERAGE ASSN,1750.0,0.0,1750.0,0.0,0.0,0.0,0.0,0.0,0.0,0.0,1750.0,61518.0,Direct,,,View report (https://accesshub.pdc.wa.gov/node/71794),Business and consumer affairs,various,various
80004,72997-18448,72997,FE,17450,CIVIC GROUP*,Employer,18448,WA ASSN OF SEWER & WATER DISTRICTS,20-Nov,12/9/2020,17198.0,WA ASSN OF SEWER & WATER DISTRICTS,7000.0,-1000.0,6000.0,0.0,0.0,0.0,0.0,0.0,0.0,0.0,6000.0,18448.0,Direct,,,View report (https://accesshub.pdc.wa.gov/node/72997),Environmental Affairs - natural resources - parks,"Water issues, water quality","Environment Committee; Ag & Natural Resources Committee; Agriculture, Water, Trade & Economic Development Committee"
80006,73018-18370,73018,FE,17432,CAPITOL STRATEGIES CONSULTING*,Employer,18370,WA WATER POLICY ALLIANCE,20-Nov,12/9/2020,17212.0,WA WATER POLICY ALLIANCE,2236.0,0.0,2236.0,0.0,0.0,0.0,0.0,0.0,0.0,0.0,2236.0,18370.0,Direct,,,View report (https://accesshub.pdc.wa.gov/node/73018),Agriculture,Water rights,Agriculture Committees and Dept. of Ecology
80007,72997-18449,72997,FE,17450,CIVIC GROUP*,Employer,18449,WA ST AUTO DEALERS ASSN INC,20-Nov,12/9/2020,17216.0,WA ST AUTO DEALERS ASSN INC,10230.67,0.0,10230.67,0.0,0.0,0.0,0.0,0.0,0.0,0.0,10230.67,18449.0,Direct,,,View report (https://accesshub.pdc.wa.gov/node/72997),Fiscal,Tax & Finance,Ways & Means Committee
80008,73053-60935,73053,FE,60930,Mario Merced Villanueva,Employer,60935,WA ST CATHOLIC CONFERENCE,20-Nov,12/9/2020,17228.0,WA ST CATHOLIC CONFERENCE,403.8,0.0,403.8,0.0,0.0,0.0,0.0,0.0,0.0,0.0,403.8,60935.0,Direct,,,View report (https://accesshub.pdc.wa.gov/node/73053),Education,CARES Act funding distribution,OSPI
80009,70064-48970,70064,FE,48956,Brooke Davies,Employer,48970,"WASTE MANAGEMENT OF WASHINGTON, INC. (BOSWELL CONSULTING*)",20-Jul,12/9/2020,17260.0,"WASTE MANAGEMENT OF WASHINGTON, INC.",321.43,0.0,321.43,0.0,0.0,0.0,0.0,0.0,0.0,0.0,321.43,48970.0,Subcontract,17398.0,BOSWELL CONSULTING*,View report (https://accesshub.pdc.wa.gov/node/70064),,,
80010,70949-48970,70949,FE,48956,Brooke Davies,Employer,48970,"WASTE MANAGEMENT OF WASHINGTON, INC. (BOSWELL CONSULTING*)",20-Aug,12/9/2020,17260.0,"WASTE MANAGEMENT OF WASHINGTON, INC.",321.43,0.0,321.43,0.0,0.0,0.0,0.0,0.0,0.0,0.0,321.43,48970.0,Subcontract,17398.0,BOSWELL CONSULTING*,View report (https://accesshub.pdc.wa.gov/node/70949),,,
80011,71793-48970,71793,FE,48956,Brooke Davies,Employer,48970,"WASTE MANAGEMENT OF WASHINGTON, INC. (BOSWELL CONSULTING*)",20-Sep,12/9/2020,17260.0,"WASTE MANAGEMENT OF WASHINGTON, INC.",321.43,0.0,321.43,0.0,0.0,0.0,0.0,0.0,0.0,0.0,321.43,48970.0,Subcontract,17398.0,BOSWELL CONSULTING*,View report (https://accesshub.pdc.wa.gov/node/71793),,,
80012,71794-48970,71794,FE,48956,Brooke Davies,Employer,48970,"WASTE MANAGEMENT OF WASHINGTON, INC. (BOSWELL CONSULTING*)",20-Oct,12/9/2020,17260.0,"WASTE MANAGEMENT OF WASHINGTON, INC.",321.43,0.0,321.43,0.0,0.0,0.0,0.0,0.0,0.0,0.0,321.43,48970.0,Subcontract,17398.0,BOSWELL CONSULTING*,View report (https://accesshub.pdc.wa.gov/node/71794),,,
80013,72997-18450,72997,FE,17450,CIVIC GROUP*,Employer,18450,WEYERHAEUSER CO,20-Nov,12/9/2020,17305.0,WEYERHAEUSER CO,5916.67,0.0,5916.67,0.0,0.0,0.0,0.0,0.0,0.0,0.0,5916.67,18450.0,Direct,,,View report (https://accesshub.pdc.wa.gov/node/72997),Fiscal,Tax issues,Ways & Means Committee; Finance Committee
80014,72997-54368,72997,FE,17450,CIVIC GROUP*,Employer,54368,"Salesforce, Inc.",20-Nov,12/9/2020,28211.0,"Salesforce, Inc.",5000.0,0.0,5000.0,0.0,0.0,0.0,0.0,0.0,0.0,0.0,5000.0,54368.0,Direct,,,View report (https://accesshub.pdc.wa.gov/node/72997),Technology,privacy,House ITED
80015,73069-30497,73069,FE,30420,James Richard Theofelis Jr.,Employer,30497,"Third Sector New England, Inc.",20-Nov,12/9/2020,30421.0,"Third Sector New England, Inc.",340.0,0.0,340.0,0.0,0.0,0.0,0.0,0.0,0.0,0.0,340.0,30497.0,Direct,,,View report (https://accesshub.pdc.wa.gov/node/73069),Human services,Govenor's 2021 Budget - Funding for Anchor Community Initiative,Governor's Office
80016,70064-49047,70064,FE,48956,Brooke Davies,Employer,49047,Internet Association (CHRISTOPHERSEN INC*),20-Jul,12/9/2020,31991.0,Internet Association,363.63,0.0,363.63,0.0,0.0,0.0,0.0,0.0,0.0,0.0,363.63,49047.0,Subcontract,17348.0,CHRISTOPHERSEN INC*,View report (https://accesshub.pdc.wa.gov/node/70064),,,
80017,70949-49047,70949,FE,48956,Brooke Davies,Employer,49047,Internet Association (CHRISTOPHERSEN INC*),20-Aug,12/9/2020,31991.0,Internet Association,363.63,0.0,363.63,0.0,0.0,0.0,0.0,0.0,0.0,0.0,363.63,49047.0,Subcontract,17348.0,CHRISTOPHERSEN INC*,View report (https://accesshub.pdc.wa.gov/node/70949),,,
80018,71793-49047,71793,FE,48956,Brooke Davies,Employer,49047,Internet Association (CHRISTOPHERSEN INC*),20-Sep,12/9/2020,31991.0,Internet Association,363.63,0.0,363.63,0.0,0.0,0.0,0.0,0.0,0.0,0.0,363.63,49047.0,Subcontract,17348.0,CHRISTOPHERSEN INC*,View report (https://accesshub.pdc.wa.gov/node/71793),,,
80019,71794-49047,71794,FE,48956,Brooke Davies,Employer,49047,Internet Association (CHRISTOPHERSEN INC*),20-Oct,12/9/2020,31991.0,Internet Association,363.63,0.0,363.63,0.0,0.0,0.0,0.0,0.0,0.0,0.0,363.63,49047.0,Subcontract,17348.0,CHRISTOPHERSEN INC*,View report (https://accesshub.pdc.wa.gov/node/71794),,,
80020,70064-48965,70064,FE,48956,Brooke Davies,Employer,48965,Port of Hood River (BOSWELL CONSULTING*),20-Jul,12/9/2020,36737.0,Port of Hood River,321.43,0.0,321.43,0.0,0.0,0.0,0.0,0.0,0.0,0.0,321.43,48965.0,Subcontract,17398.0,BOSWELL CONSULTING*,View report (https://accesshub.pdc.wa.gov/node/70064),,,
80021,70949-48965,70949,FE,48956,Brooke Davies,Employer,48965,Port of Hood River (BOSWELL CONSULTING*),20-Aug,12/9/2020,36737.0,Port of Hood River,321.43,0.0,321.43,0.0,0.0,0.0,0.0,0.0,0.0,0.0,321.43,48965.0,Subcontract,17398.0,BOSWELL CONSULTING*,View report (https://accesshub.pdc.wa.gov/node/70949),,,
80022,71793-48965,71793,FE,48956,Brooke Davies,Employer,48965,Port of Hood River (BOSWELL CONSULTING*),20-Sep,12/9/2020,36737.0,Port of Hood River,321.43,0.0,321.43,0.0,0.0,0.0,0.0,0.0,0.0,0.0,321.43,48965.0,Subcontract,17398.0,BOSWELL CONSULTING*,View report (https://accesshub.pdc.wa.gov/node/71793),,,
80023,71794-48965,71794,FE,48956,Brooke Davies,Employer,48965,Port of Hood River (BOSWELL CONSULTING*),20-Oct,12/9/2020,36737.0,Port of Hood River,321.43,0.0,321.43,0.0,0.0,0.0,0.0,0.0,0.0,0.0,321.43,48965.0,Subcontract,17398.0,BOSWELL CONSULTING*,View report (https://accesshub.pdc.wa.gov/node/71794),,,
80024,70064-49112,70064,FE,48956,Brooke Davies,Employer,49112,Recompose (CHRISTOPHERSEN INC*),20-Jul,12/9/2020,38316.0,Recompose,363.63,0.0,363.63,0.0,0.0,0.0,0.0,0.0,0.0,0.0,363.63,49112.0,Subcontract,17348.0,CHRISTOPHERSEN INC*,View report (https://accesshub.pdc.wa.gov/node/70064),,,
80025,70949-49112,70949,FE,48956,Brooke Davies,Employer,49112,Recompose (CHRISTOPHERSEN INC*),20-Aug,12/9/2020,38316.0,Recompose,363.63,0.0,363.63,0.0,0.0,0.0,0.0,0.0,0.0,0.0,363.63,49112.0,Subcontract,17348.0,CHRISTOPHERSEN INC*,View report (https://accesshub.pdc.wa.gov/node/70949),,,
80026,71793-49112,71793,FE,48956,Brooke Davies,Employer,49112,Recompose (CHRISTOPHERSEN INC*),20-Sep,12/9/2020,38316.0,Recompose,363.63,0.0,363.63,0.0,0.0,0.0,0.0,0.0,0.0,0.0,363.63,49112.0,Subcontract,17348.0,CHRISTOPHERSEN INC*,View report (https://accesshub.pdc.wa.gov/node/71793),,,
80027,71794-49112,71794,FE,48956,Brooke Davies,Employer,49112,Recompose (CHRISTOPHERSEN INC*),20-Oct,12/9/2020,38316.0,Recompose,363.63,0.0,363.63,0.0,0.0,0.0,0.0,0.0,0.0,0.0,363.63,49112.0,Subcontract,17348.0,CHRISTOPHERSEN INC*,View report (https://accesshub.pdc.wa.gov/node/71794),,,
80028,73035-38818,73035,FE,18034,The Nichols Group Government Relations LLC,Employer,38818,National Association of Professional Employer Organizations,20-Nov,12/9/2020,38798.0,National Association of Professional Employer Organizations,2000.0,0.0,2000.0,0.0,0.0,0.0,0.0,0.0,0.0,0.0,2000.0,38818.0,Direct,,,View report (https://accesshub.pdc.wa.gov/node/73035),Fiscal,"SB 5765, SB 5821","Senate Ways & Means, House Finance, Employment Security Department, Governor's Office"
80029,73035-38900,73035,FE,18034,The Nichols Group Government Relations LLC,Employer,38900,Cooke Aquaculture Pacific LLC,20-Nov,12/9/2020,38899.0,Cooke Aquaculture Pacific LLC,10000.0,0.0,10000.0,0.0,0.0,0.0,0.0,0.0,0.0,0.0,10000.0,38900.0,Direct,,,View report (https://accesshub.pdc.wa.gov/node/73035),Agriculture,Net-pen aquaculture issues,"Senate & House Agriculture Committees, Dept. of Ecology, Dept. of Fish & Wildlife, Dept. of Natural Resources, Dept. of Agriculture, Governor's Office"
80030,73035-39130,73035,FE,18034,The Nichols Group Government Relations LLC,Employer,39130,City of Shelton,20-Nov,12/9/2020,39118.0,City of Shelton,1000.0,0.0,1000.0,0.0,0.0,0.0,0.0,0.0,0.0,0.0,1000.0,39130.0,Direct,,,View report (https://accesshub.pdc.wa.gov/node/73035),Fiscal,Transportation and Capital Budget Requests,"Senate Ways & Means, Senate Transportation, House Capital Budget, House Transportation, WA State Patrol, WSDOT, Governor's Office"
80031,70064-67557,70064,FE,48956,Brooke Davies,Employer,67557,"Assurant, Inc. (CHRISTOPHERSEN INC*)",20-Jul,12/9/2020,44206.0,"Assurant, Inc.",363.63,0.0,363.63,0.0,0.0,0.0,0.0,0.0,0.0,0.0,363.63,67557.0,Subcontract,17348.0,CHRISTOPHERSEN INC*,View report (https://accesshub.pdc.wa.gov/node/70064),,,
80032,70949-67557,70949,FE,48956,Brooke Davies,Employer,67557,"Assurant, Inc. (CHRISTOPHERSEN INC*)",20-Aug,12/9/2020,44206.0,"Assurant, Inc.",363.63,0.0,363.63,0.0,0.0,0.0,0.0,0.0,0.0,0.0,363.63,67557.0,Subcontract,17348.0,CHRISTOPHERSEN INC*,View report (https://accesshub.pdc.wa.gov/node/70949),,,
80033,71793-67557,71793,FE,48956,Brooke Davies,Employer,67557,"Assurant, Inc. (CHRISTOPHERSEN INC*)",20-Sep,12/9/2020,44206.0,"Assurant, Inc.",363.63,0.0,363.63,0.0,0.0,0.0,0.0,0.0,0.0,0.0,363.63,67557.0,Subcontract,17348.0,CHRISTOPHERSEN INC*,View report (https://accesshub.pdc.wa.gov/node/71793),,,
80034,71794-67557,71794,FE,48956,Brooke Davies,Employer,67557,"Assurant, Inc. (CHRISTOPHERSEN INC*)",20-Oct,12/9/2020,44206.0,"Assurant, Inc.",363.63,0.0,363.63,0.0,0.0,0.0,0.0,0.0,0.0,0.0,363.63,67557.0,Subcontract,17348.0,CHRISTOPHERSEN INC*,View report (https://accesshub.pdc.wa.gov/node/71794),,,
80035,73035-45630,73035,FE,18034,The Nichols Group Government Relations LLC,Employer,45630,Capital Region ESD 113,20-Nov,12/9/2020,45627.0,Capital Region ESD 113,3300.0,0.0,3300.0,0.0,0.0,0.0,0.0,0.0,0.0,0.0,3300.0,45630.0,Direct,,,View report (https://accesshub.pdc.wa.gov/node/73035),Education,Education Funding and Policy Issues,"House and Senate Education Committees, House Appropriations Committee, Senate Ways & Means Committee, Superintendent of Public Instruction, Governor's Office"
80036,73049-50751,73049,FE,50747,Maggie Glennon,Employer,50751,Code.org,20-Nov,12/9/2020,46972.0,Code.org,254.04,0.0,254.04,0.0,0.0,0.0,0.0,0.0,0.0,0.0,254.04,50751.0,Direct,,,View report (https://accesshub.pdc.wa.gov/node/73049),Education,Computer Science Education,OSPI
80037,70064-66834,70064,FE,48956,Brooke Davies,Employer,66834,Pasado's Safe Haven,20-Jul,12/9/2020,56480.0,Pasado's Safe Haven,2500.0,0.0,2500.0,0.0,0.0,0.0,0.0,0.0,0.0,0.0,2500.0,66834.0,Direct,,,View report (https://accesshub.pdc.wa.gov/node/70064),Business and consumer affairs,various,various
80038,70949-66834,70949,FE,48956,Brooke Davies,Employer,66834,Pasado's Safe Haven,20-Aug,12/9/2020,56480.0,Pasado's Safe Haven,2500.0,0.0,2500.0,0.0,0.0,0.0,0.0,0.0,0.0,0.0,2500.0,66834.0,Direct,,,View report (https://accesshub.pdc.wa.gov/node/70949),Business and consumer affairs,various,various
80039,71793-66834,71793,FE,48956,Brooke Davies,Employer,66834,Pasado's Safe Haven,20-Sep,12/9/2020,56480.0,Pasado's Safe Haven,2500.0,0.0,2500.0,0.0,0.0,0.0,0.0,0.0,0.0,0.0,2500.0,66834.0,Direct,,,View report (https://accesshub.pdc.wa.gov/node/71793),Business and consumer affairs,various,various
80040,71794-66834,71794,FE,48956,Brooke Davies,Employer,66834,Pasado's Safe Haven,20-Oct,12/9/2020,56480.0,Pasado's Safe Haven,2500.0,0.0,2500.0,0.0,0.0,0.0,0.0,0.0,0.0,0.0,2500.0,66834.0,Direct,,,View report (https://accesshub.pdc.wa.gov/node/71794),Business and consumer affairs,various,various
80041,70064-59227,70064,FE,48956,Brooke Davies,Employer,59227,Maverick Gaming LLC (Coaxis Public Affairs ),20-Jul,12/9/2020,58487.0,Maverick Gaming LLC,1500.0,0.0,1500.0,0.0,0.0,0.0,0.0,0.0,0.0,0.0,1500.0,59227.0,Subcontract,58479.0,Coaxis Public Affairs,View report (https://accesshub.pdc.wa.gov/node/70064),,,
80042,70949-59227,70949,FE,48956,Brooke Davies,Employer,59227,Maverick Gaming LLC (Coaxis Public Affairs ),20-Aug,12/9/2020,58487.0,Maverick Gaming LLC,1500.0,0.0,1500.0,0.0,0.0,0.0,0.0,0.0,0.0,0.0,1500.0,59227.0,Subcontract,58479.0,Coaxis Public Affairs,View report (https://accesshub.pdc.wa.gov/node/70949),,,
80043,71793-59227,71793,FE,48956,Brooke Davies,Employer,59227,Maverick Gaming LLC (Coaxis Public Affairs ),20-Sep,12/9/2020,58487.0,Maverick Gaming LLC,1500.0,0.0,1500.0,0.0,0.0,0.0,0.0,0.0,0.0,0.0,1500.0,59227.0,Subcontract,58479.0,Coaxis Public Affairs,View report (https://accesshub.pdc.wa.gov/node/71793),,,
80044,71794-59227,71794,FE,48956,Brooke Davies,Employer,59227,Maverick Gaming LLC (Coaxis Public Affairs ),20-Oct,12/9/2020,58487.0,Maverick Gaming LLC,1500.0,0.0,1500.0,0.0,0.0,0.0,0.0,0.0,0.0,0.0,1500.0,59227.0,Subcontract,58479.0,Coaxis Public Affairs,View report (https://accesshub.pdc.wa.gov/node/71794),,,
80045,73035-62174,73035,FE,18034,The Nichols Group Government Relations LLC,Employer,62174,American Promotional Events Northwest Inc. DBA TNT Fireworks,20-Nov,12/9/2020,62169.0,American Promotional Events Northwest Inc. DBA TNT Fireworks,5000.0,0.0,5000.0,0.0,0.0,0.0,0.0,0.0,0.0,0.0,5000.0,62174.0,Direct,,,View report (https://accesshub.pdc.wa.gov/node/73035),Local government,HB 2307,"House and Senate Local Government Committee, WA State Fire Marshall, Governor's Office"
80046,70064-68010,70064,FE,48956,Brooke Davies,Employer,68010,Seattle Arena Company (BOSWELL CONSULTING*),20-Jul,12/9/2020,67923.0,Seattle Arena Company,321.41,0.0,321.41,0.0,0.0,0.0,0.0,0.0,0.0,0.0,321.41,68010.0,Subcontract,17398.0,BOSWELL CONSULTING*,View report (https://accesshub.pdc.wa.gov/node/70064),,,
80047,70949-68010,70949,FE,48956,Brooke Davies,Employer,68010,Seattle Arena Company (BOSWELL CONSULTING*),20-Aug,12/9/2020,67923.0,Seattle Arena Company,321.41,0.0,321.41,0.0,0.0,0.0,0.0,0.0,0.0,0.0,321.41,68010.0,Subcontract,17398.0,BOSWELL CONSULTING*,View report (https://accesshub.pdc.wa.gov/node/70949),,,
80048,71793-68010,71793,FE,48956,Brooke Davies,Employer,68010,Seattle Arena Company (BOSWELL CONSULTING*),20-Sep,12/9/2020,67923.0,Seattle Arena Company,321.41,0.0,321.41,0.0,0.0,0.0,0.0,0.0,0.0,0.0,321.41,68010.0,Subcontract,17398.0,BOSWELL CONSULTING*,View report (https://accesshub.pdc.wa.gov/node/71793),,,
80049,71794-68010,71794,FE,48956,Brooke Davies,Employer,68010,Seattle Arena Company (BOSWELL CONSULTING*),20-Oct,12/9/2020,67923.0,Seattle Arena Company,321.41,0.0,321.41,0.0,0.0,0.0,0.0,0.0,0.0,0.0,321.41,68010.0,Subcontract,17398.0,BOSWELL CONSULTING*,View report (https://accesshub.pdc.wa.gov/node/71794),,,
80052,73092-19108,73092,FE,17723,THOMAS W KWIECIAK,Employer,19108,BUILDING INDUSTRY ASSN OF WA,20-Nov,12/10/2020,16215.0,BUILDING INDUSTRY ASSN OF WA,7500.0,0.0,7500.0,0.0,0.0,0.0,0.0,0.0,0.0,0.0,7500.0,19108.0,Direct,,,View report (https://accesshub.pdc.wa.gov/node/73092),Labor,Workers's compensation,"House Labor and Senate Commerce & Labor, Department of Labor & Industries"
80053,73092-19109,73092,FE,17723,THOMAS W KWIECIAK,Employer,19109,CAPITAL BENEFIT SERVICES,20-Nov,12/10/2020,16226.0,CAPITAL BENEFIT SERVICES,4050.0,0.0,4050.0,0.0,0.0,0.0,0.0,0.0,0.0,0.0,4050.0,19109.0,Direct,,,View report (https://accesshub.pdc.wa.gov/node/73092),,,
80054,73107-50083,73107,FE,49575,Silver Consulting,Employer,50083,Northwest Health Law Advocates,20-Nov,12/10/2020,16709.0,Northwest Health Law Advocates,2500.0,0.0,2500.0,0.0,0.0,0.0,0.0,0.0,0.0,0.0,2500.0,50083.0,Direct,,,View report (https://accesshub.pdc.wa.gov/node/73107),Health Care,Health care and fiscal matters,"House and Senate Members, HCA, OIC, HBE, DSHS"
80055,73080-45767,73080,FE,17998,GARY STRANNIGAN,Employer,45767,PREMERA BLUE CROSS,20-Nov,12/10/2020,16812.0,PREMERA BLUE CROSS,763.0,0.0,763.0,0.0,0.0,5000.0,0.0,0.0,0.0,5000.0,5763.0,45767.0,Direct,,,View report (https://accesshub.pdc.wa.gov/node/73080),Health Care,Misc HC Issues and 2021 Session,Washington State Legislature (House and Senate)
80056,73079-70902,73079,FE,70901,SKYLER MAHJOUBIAN,Employer,70902,PREMERA BLUE CROSS,20-Nov,12/10/2020,16812.0,PREMERA BLUE CROSS,1000.0,0.0,1000.0,0.0,0.0,0.0,0.0,0.0,0.0,0.0,1000.0,70902.0,Direct,,,View report (https://accesshub.pdc.wa.gov/node/73079),Health Care,Misc Regulatory Issues,Office of the Insurance Commissioner; Health Care Authority
80057,73092-39100,73092,FE,17723,THOMAS W KWIECIAK,Employer,39100,PURDUE PHARMA,20-Nov,12/10/2020,16833.0,PURDUE PHARMA,4000.0,0.0,4000.0,0.0,0.0,0.0,0.0,0.0,0.0,0.0,4000.0,39100.0,Direct,,,View report (https://accesshub.pdc.wa.gov/node/73092),,,
80058,73107-49640,73107,FE,49575,Silver Consulting,Employer,49640,RURAL HEALTH CLINIC ASSN (SEIB POLICY & PUBLIC AFFAIRS*),20-Nov,12/10/2020,16866.0,RURAL HEALTH CLINIC ASSN,1250.0,0.0,1250.0,0.0,0.0,0.0,0.0,0.0,0.0,0.0,1250.0,49640.0,Subcontract,17950.0,SEIB POLICY & PUBLIC AFFAIRS*,View report (https://accesshub.pdc.wa.gov/node/73107),,,
80059,73087-58298,73087,FE,58297,Samantha Kersul,Employer,58298,TECHNOLOGY NETWORK,20-Nov,12/10/2020,16978.0,TECHNOLOGY NETWORK,8137.5,0.0,8137.5,0.0,0.0,0.0,0.0,0.0,0.0,0.0,8137.5,58298.0,Direct,,,View report (https://accesshub.pdc.wa.gov/node/73087),Technology,"Data Privacy, Broadband/Digital Connectivity, Exposure Notification",Legislature
80060,73107-61415,73107,FE,49575,Silver Consulting,Employer,61415,UNITED HEALTHCARE SERVICES INC,20-Nov,12/10/2020,17009.0,UNITED HEALTHCARE SERVICES INC,10000.0,0.0,10000.0,0.0,0.0,0.0,0.0,0.0,0.0,0.0,10000.0,61415.0,Direct,,,View report (https://accesshub.pdc.wa.gov/node/73107),Health Care,Health care and fiscal matters,"House and Senate Members, HCA, OIC, HBE"
80062,73107-49637,73107,FE,49575,Silver Consulting,Employer,49637,WA ACADEMY OF FAMILY PHYSICIANS (SEIB POLICY & PUBLIC AFFAIRS*),20-Nov,12/10/2020,17052.0,WA ACADEMY OF FAMILY PHYSICIANS,1250.0,0.0,1250.0,0.0,0.0,0.0,0.0,0.0,0.0,0.0,1250.0,49637.0,Subcontract,17950.0,SEIB POLICY & PUBLIC AFFAIRS*,View report (https://accesshub.pdc.wa.gov/node/73107),,,
80063,73075-40646,73075,FE,40645,Catherine Holm,Employer,40646,WA FOOD INDUSTRY,20-Oct,12/10/2020,17117.0,WA FOOD INDUSTRY,2400.0,0.0,2400.0,40.0,0.0,0.0,0.0,0.0,0.0,40.0,2440.0,40646.0,Direct,,,View report (https://accesshub.pdc.wa.gov/node/73075),Labor,"Unemployment, workers compensation","ESD, Rep Hoff, Rep Orcutt, Rep Peterson, Rep Kloba, Senator King, Rep Walen, Senator Conway, Rep Sells, Rep Stokesbary, Rep Mary Dye, Senator Carlyle, Senator Fortunato, Rep Vick, Rep Young, Rep Chambers, Rep Berquist, Rep Mosbrucker, Rep Ormsby,"
80064,73076-40646,73076,FE,40645,Catherine Holm,Employer,40646,WA FOOD INDUSTRY,20-Nov,12/10/2020,17117.0,WA FOOD INDUSTRY,2400.0,0.0,2400.0,133.73,0.0,0.0,0.0,0.0,0.0,133.73,2533.73,40646.0,Direct,,,View report (https://accesshub.pdc.wa.gov/node/73076),Labor,"Unemployment, workers compensation","ESD, Governors Office, Senator Braun, Senator Brown, Senator Keiser, Senator Rolfes, Rep Fitzgibbon, Senator Schoesler, Senator Billig,"
80065,73084-19043,73084,FE,17682,MARK J JOHNSON,Employer,19043,WA RETAIL ASSN,20-Nov,12/10/2020,17180.0,WA RETAIL ASSN,11952.8,0.0,11952.8,0.0,0.0,0.0,0.0,0.0,0.0,0.0,11952.8,19043.0,Direct,,,View report (https://accesshub.pdc.wa.gov/node/73084),Technology,Privacy,Tech Committee
80066,73095-40385,73095,FE,40384,Jessica Spiegel,Employer,40385,Western States Petroleum Assn.,20-Nov,12/10/2020,17302.0,Western States Petroleum Assn.,223.68,0.0,223.68,0.0,0.0,47500.0,0.0,0.0,0.0,47500.0,47723.68,40385.0,Direct,,,View report (https://accesshub.pdc.wa.gov/node/73095),Environmental Affairs - natural resources - parks,air and water quality regulations,Department of Ecology
80067,73107-50909,73107,FE,49575,Silver Consulting,Employer,50909,Vancouver Clinic (SEIB POLICY & PUBLIC AFFAIRS*),20-Nov,12/10/2020,38259.0,Vancouver Clinic,1250.0,0.0,1250.0,0.0,0.0,0.0,0.0,0.0,0.0,0.0,1250.0,50909.0,Subcontract,17950.0,SEIB POLICY & PUBLIC AFFAIRS*,View report (https://accesshub.pdc.wa.gov/node/73107),,,
80068,73107-71085,73107,FE,49575,Silver Consulting,Employer,71085,Consumer Direct Care Network Washington LLC.,20-Nov,12/10/2020,71083.0,Consumer Direct Care Network Washington LLC.,8000.0,-3000.0,5000.0,0.0,0.0,0.0,0.0,0.0,0.0,0.0,5000.0,71085.0,Direct,,,View report (https://accesshub.pdc.wa.gov/node/73107),Health Care,Health care and fiscal matters,"House and Senate Members, HCA, DSHS"
80070,73125-66249,73125,FE,17790,GAIL TORAASON MCGAFFICK INC*,Employer,66249,AMERICAN MASSAGE THERAPY ASSN- WA CHAPTER,20-Nov,12/11/2020,16115.0,AMERICAN MASSAGE THERAPY ASSN- WA CHAPTER,4000.0,0.0,4000.0,0.0,0.0,0.0,0.0,0.0,0.0,0.0,4000.0,66249.0,Direct,,,View report (https://accesshub.pdc.wa.gov/node/73125),Health Care,"monitor Board of Massage, Governor's Proclamations, massage rules","Board of Massage, DOH, Governor's office"
80071,73130-19574,73130,FE,17940,CARL SCHROEDER,Employer,19574,ASSN OF WA CITIES,20-Nov,12/11/2020,16168.0,ASSN OF WA CITIES,1074.69,0.0,1074.69,0.0,0.0,0.0,0.0,0.0,0.0,0.0,1074.69,19574.0,Direct,,,View report (https://accesshub.pdc.wa.gov/node/73130),Local government,Housing,"Members of the House of Representatives, Senate"
80072,72261-37576,72261,FE,17355,Logan M. Bahr,Employer,37576,ASSN OF WA CITIES,20-Nov,12/11/2020,16168.0,ASSN OF WA CITIES,1352.61,0.0,1352.61,0.0,0.0,0.0,0.0,0.0,0.0,0.0,1352.61,37576.0,Direct,,,View report (https://accesshub.pdc.wa.gov/node/72261),Local government,Broadband,Rep. Gregerson
80073,73142-35258,73142,FE,34688,Roz Thompson,Employer,35258,ASSN OF WA SCHOOL PRINCIPALS,20-Nov,12/11/2020,16173.0,ASSN OF WA SCHOOL PRINCIPALS,931.2,0.0,931.2,0.0,0.0,0.0,0.0,0.0,0.0,0.0,931.2,35258.0,Direct,,,View report (https://accesshub.pdc.wa.gov/node/73142),Education,"Response to Coronavirus in schools, looking ahead to legislative session in 2021, budget, broadband","State Board of Education, OSPI, WASA, PESB, WSSDA, WEA, Governor’s Office, OFM, PTA, AESD"
80074,73166-56617,73166,FE,56616,Steve Taylor,Employer,56617,COWLITZ PUD,20-Nov,12/11/2020,16373.0,COWLITZ PUD,12917.0,0.0,12917.0,0.0,0.0,0.0,0.0,0.0,0.0,0.0,12917.0,56617.0,Direct,,,View report (https://accesshub.pdc.wa.gov/node/73166),Energy and utilities,Clean Energy Transformation Act,Department of Commerce
80075,73074-18237,73074,FE,17380,Paul B Benz,Employer,18237,FAITH ACTION NETWORK,20-Oct,12/11/2020,16432.0,FAITH ACTION NETWORK,438.98,0.0,438.98,0.0,0.0,0.0,0.0,0.0,0.0,0.0,438.98,18237.0,Direct,,,View report (https://accesshub.pdc.wa.gov/node/73074),Law and justice,Voting rights restoration; criminal justice; police reform,Sen. Hunt; Rep. Senn; Rep. Sells & Sen. Conway
80076,73125-19244,73125,FE,17790,GAIL TORAASON MCGAFFICK INC*,Employer,19244,FRESENIUS MEDICAL CARE NORTH AMERICA,20-Nov,12/11/2020,16462.0,FRESENIUS MEDICAL CARE NORTH AMERICA,4000.0,0.0,4000.0,0.0,0.0,0.0,0.0,0.0,0.0,0.0,4000.0,19244.0,Direct,,,View report (https://accesshub.pdc.wa.gov/node/73125),,,
80078,73158-19262,73158,FE,17804,LIS HOUCHEN,Employer,19262,NATL ASSN OF CHAIN DRUG STORES,20-Dec,12/11/2020,16658.0,NATL ASSN OF CHAIN DRUG STORES,790.72,0.0,790.72,0.0,0.0,0.0,0.0,0.0,0.0,0.0,790.72,19262.0,Direct,,,View report (https://accesshub.pdc.wa.gov/node/73158),Health Care,Pharmacy-COVID,WA Pharmacy Quality Assurance Commission
80080,73125-20022,73125,FE,17790,GAIL TORAASON MCGAFFICK INC*,Employer,20022,PIERCE CO ALLIANCE (MELANIE STEWART & ASSOC LLC*),20-Nov,12/11/2020,16782.0,PIERCE CO ALLIANCE,2000.0,0.0,2000.0,0.0,0.0,0.0,0.0,0.0,0.0,0.0,2000.0,20022.0,Subcontract,17991.0,MELANIE STEWART & ASSOC LLC*,View report (https://accesshub.pdc.wa.gov/node/73125),,,
80081,73127-56486,73127,FE,17656,ANDREA E HOWELL,Employer,56486,Sierra Pacific Industries,20-Nov,12/11/2020,16916.0,Sierra Pacific Industries,225.0,0.0,225.0,0.0,0.0,0.0,0.0,0.0,0.0,0.0,225.0,56486.0,Direct,,,View report (https://accesshub.pdc.wa.gov/node/73127),Environmental Affairs - natural resources - parks,Forest Management Issues,Dept. of Natural Resources
80083,73133-29493,73133,FE,29492,Aaron Hunt,Employer,29493,UNION PACIFIC RAILROAD CO,20-Nov,12/11/2020,17004.0,UNION PACIFIC RAILROAD CO,1000.0,0.0,1000.0,0.0,0.0,0.0,0.0,0.0,0.0,0.0,1000.0,29493.0,Direct,,,View report (https://accesshub.pdc.wa.gov/node/73133),Transportation,Transportation policy,Rep. Fey
80084,60902-18579,60902,FE,17498,MILTON H DOUMIT JR,Employer,18579,VERIZON,20-Nov,12/11/2020,17030.0,VERIZON,10000.0,0.0,10000.0,0.0,0.0,0.0,0.0,0.0,0.0,0.0,10000.0,18579.0,Direct,,,View report (https://accesshub.pdc.wa.gov/node/60902),Technology,Privacy and Broadband,House and Senate Tech members
80085,73125-28018,73125,FE,17790,GAIL TORAASON MCGAFFICK INC*,Employer,28018,VIRGINIA MASON FRANCISCAN HEALTH,20-Nov,12/11/2020,17037.0,VIRGINIA MASON FRANCISCAN HEALTH,1500.0,0.0,1500.0,0.0,0.0,0.0,0.0,0.0,0.0,0.0,1500.0,28018.0,Direct,,,View report (https://accesshub.pdc.wa.gov/node/73125),Health Care,monitor health care issues and rules,"HCA, DOH, Governor's office"
80086,73175-29932,73175,FE,29929,Sean P Pickard,Employer,29932,Delta Dental of WA,20-Nov,12/11/2020,17096.0,Delta Dental of WA,1000.0,0.0,1000.0,0.0,0.0,0.0,0.0,0.0,0.0,0.0,1000.0,29932.0,Direct,,,View report (https://accesshub.pdc.wa.gov/node/73175),Health Care,"Health care, oral health","Health Care and fiscal committees, OIC and HBE"
80087,73132-18940,73132,FE,17616,Heather Hansen,Employer,18940,WA FARM FORESTRY ASSN,20-Nov,12/11/2020,17111.0,WA FARM FORESTRY ASSN,2800.0,0.0,2800.0,0.0,0.0,0.0,0.0,0.0,0.0,0.0,2800.0,18940.0,Direct,,,View report (https://accesshub.pdc.wa.gov/node/73132),Environmental Affairs - natural resources - parks,Timber,"DNR, Natural Resources"
80088,73132-18941,73132,FE,17616,Heather Hansen,Employer,18941,WA FRIENDS OF FARMS & FORESTS,20-Nov,12/11/2020,17114.0,WA FRIENDS OF FARMS & FORESTS,950.0,0.0,950.0,0.0,0.0,0.0,0.0,0.0,0.0,0.0,950.0,18941.0,Direct,,,View report (https://accesshub.pdc.wa.gov/node/73132),Agriculture,pesticides,WSDA
80092,73161-19073,73161,FE,17702,BRACKEN R KILLPACK,Employer,19073,WA ST DENTAL ASSN,20-Nov,12/11/2020,17238.0,WA ST DENTAL ASSN,3500.0,0.0,3500.0,0.0,0.0,0.0,0.0,0.0,0.0,0.0,3500.0,19073.0,Direct,,,View report (https://accesshub.pdc.wa.gov/node/73161),Health Care,Dental-related issues,"Heath Committees, Fiscal Committees, Department of Health, and Governor’s Office"
80093,73162-35942,73162,FE,35584,Emily Lovell,Employer,35942,WA ST DENTAL ASSN,20-Nov,12/11/2020,17238.0,WA ST DENTAL ASSN,2700.0,0.0,2700.0,0.0,0.0,0.0,0.0,0.0,0.0,0.0,2700.0,35942.0,Direct,,,View report (https://accesshub.pdc.wa.gov/node/73162),Health Care,Dental-related issues,Department of Health
80094,73163-49682,73163,FE,48719,Sophie Doumit,Employer,49682,WA ST DENTAL ASSN,20-Nov,12/11/2020,17238.0,WA ST DENTAL ASSN,1200.0,0.0,1200.0,0.0,0.0,0.0,0.0,0.0,0.0,0.0,1200.0,49682.0,Direct,,,View report (https://accesshub.pdc.wa.gov/node/73163),Health Care,dental access and workforce issues,"House Healthcare and Wellness Committee, Senate Health & Long Term Care, Health Care Authority, and Department of Health"
80095,73141-18560,73141,FE,17491,SCOTT DILLEY,Employer,18560,WA ST DAIRY FEDERATION,20-Nov,12/11/2020,17239.0,WA ST DAIRY FEDERATION,5000.0,0.0,5000.0,0.0,0.0,0.0,0.0,0.0,0.0,0.0,5000.0,18560.0,Direct,,,View report (https://accesshub.pdc.wa.gov/node/73141),Agriculture,All dairy issues,Legislature & State Agencies
80096,73139-18868,73139,FE,17583,JAY GORDON,Employer,18868,WA ST DAIRY FEDERATION,20-Nov,12/11/2020,17239.0,WA ST DAIRY FEDERATION,5000.0,0.0,5000.0,0.0,0.0,0.0,0.0,0.0,0.0,0.0,5000.0,18868.0,Direct,,,View report (https://accesshub.pdc.wa.gov/node/73139),Agriculture,All dairy issues,Legislature & State Agencies
80097,61220-19906,61220,FE,18099,DAN WOOD,Employer,19906,WA ST DAIRY FEDERATION,20-Nov,12/11/2020,17239.0,WA ST DAIRY FEDERATION,5000.0,0.0,5000.0,0.0,0.0,0.0,0.0,0.0,0.0,0.0,5000.0,19906.0,Direct,,,View report (https://accesshub.pdc.wa.gov/node/61220),Agriculture,All dairy issues,Legislature and State agencies
80098,73132-18942,73132,FE,17616,Heather Hansen,Employer,18942,WA ST FAIRS ASSN,20-Nov,12/11/2020,17244.0,WA ST FAIRS ASSN,1411.33,0.0,1411.33,0.0,0.0,0.0,0.0,0.0,0.0,0.0,1411.33,18942.0,Direct,,,View report (https://accesshub.pdc.wa.gov/node/73132),Fiscal,fair funding,"Ways & Means, Appropriations"
80099,73132-37289,73132,FE,17616,Heather Hansen,Employer,37289,WA ST GRANGE,20-Nov,12/11/2020,17251.0,WA ST GRANGE,3000.0,0.0,3000.0,0.0,0.0,0.0,0.0,0.0,0.0,0.0,3000.0,37289.0,Direct,,,View report (https://accesshub.pdc.wa.gov/node/73132),Agriculture,agriculture,WSDA
80100,67824-19880,67824,FE,18083,CHELENE WHITEAKER,Employer,19880,WA ST HOSPITAL ASSN,20-May,12/11/2020,17252.0,WA ST HOSPITAL ASSN,375.0,0.0,375.0,0.0,0.0,0.0,0.0,0.0,0.0,0.0,375.0,19880.0,Direct,,,View report (https://accesshub.pdc.wa.gov/node/67824),Health Care,"health care, COVID",Broad education of hosptial response
80103,73173-61353,73173,FE,17669,SYBILL HYPPOLITE,Employer,61353,Washington State Labor Council,20-Nov,12/11/2020,17258.0,Washington State Labor Council,3999.6,0.0,3999.6,0.0,0.0,0.0,0.0,0.0,0.0,0.0,3999.6,61353.0,Direct,,,View report (https://accesshub.pdc.wa.gov/node/73173),Labor,"Labor, Healthcare, Pandemic Response",Senate/House Health Care Committees
80104,73132-18943,73132,FE,17616,Heather Hansen,Employer,18943,WA ST NURSERY & LANDSCAPE ASSN,20-Nov,12/11/2020,17266.0,WA ST NURSERY & LANDSCAPE ASSN,1291.67,0.0,1291.67,0.0,0.0,0.0,0.0,0.0,0.0,0.0,1291.67,18943.0,Direct,,,View report (https://accesshub.pdc.wa.gov/node/73132),Agriculture,"ag, water, labor","WSDA, ag committees"
80105,73125-19246,73125,FE,17790,GAIL TORAASON MCGAFFICK INC*,Employer,19246,Washington State Podiatric Medical Association,20-Nov,12/11/2020,17272.0,Washington State Podiatric Medical Association,3000.0,0.0,3000.0,0.0,0.0,0.0,0.0,0.0,0.0,0.0,3000.0,19246.0,Direct,,,View report (https://accesshub.pdc.wa.gov/node/73125),Health Care,"monitor health care rules, Podiatric Medical Board","DOH, Governor, Podiatric Medical Board, Legislature, HCA"
80106,73125-19247,73125,FE,17790,GAIL TORAASON MCGAFFICK INC*,Employer,19247,Yakima Valley Memorial Hospital Association,20-Nov,12/11/2020,17321.0,Yakima Valley Memorial Hospital Association,2500.0,0.0,2500.0,0.0,0.0,0.0,0.0,0.0,0.0,0.0,2500.0,19247.0,Direct,,,View report (https://accesshub.pdc.wa.gov/node/73125),Health Care,"monitor health care rules, Governor's proclamations","DOH, Governor's office, HCA"
80107,73132-68642,73132,FE,17616,Heather Hansen,Employer,68642,Washington State Golf Association (dba Washington Golf),20-Nov,12/11/2020,68640.0,Washington State Golf Association (dba Washington Golf),1170.0,0.0,1170.0,0.0,0.0,0.0,0.0,0.0,0.0,0.0,1170.0,68642.0,Direct,,,View report (https://accesshub.pdc.wa.gov/node/73132),Fiscal,"taxes, labor","Finance, Labor"
80108,73183-18621,73183,FE,17507,Dziedzic Public Affairs,Employer,18621,WASHINGTON BIKES,20-Nov,12/12/2020,16191.0,WASHINGTON BIKES,3000.0,0.0,3000.0,0.0,0.0,0.0,0.0,0.0,0.0,0.0,3000.0,18621.0,Direct,,,View report (https://accesshub.pdc.wa.gov/node/73183),Transportation,active transportation,House and Senate members
80109,73183-18622,73183,FE,17507,Dziedzic Public Affairs,Employer,18622,BLEEDING DISORDER FOUNDATION OF WA,20-Nov,12/12/2020,16195.0,BLEEDING DISORDER FOUNDATION OF WA,3000.0,0.0,3000.0,0.0,0.0,0.0,0.0,0.0,0.0,0.0,3000.0,18622.0,Direct,,,View report (https://accesshub.pdc.wa.gov/node/73183),Health Care,health care matters,"House and Senate members, health benefit exchange"
80110,73189-19414,73189,FE,17875,PAM CRONE LEGISLATIVE CONSULTING SVCS*,Employer,19414,BUILDING CHANGES,20-Nov,12/12/2020,16214.0,BUILDING CHANGES,1650.01,0.0,1650.01,0.0,0.0,0.0,0.0,0.0,0.0,0.0,1650.01,19414.0,Direct,,,View report (https://accesshub.pdc.wa.gov/node/73189),Education,students experiencing homelessness,Education committees
80111,72991-50513,72991,FE,50512,Mollie Corcoran,Employer,50513,Chevron U.S.A. Inc. and Affiliates,20-Nov,12/12/2020,16255.0,Chevron U.S.A. Inc. and Affiliates,610.17,0.0,610.17,0.0,0.0,0.0,0.0,0.0,0.0,0.0,610.17,50513.0,Direct,,,View report (https://accesshub.pdc.wa.gov/node/72991),Energy and utilities,Carbon Pricing / Climate Change Bill,Legislative
80112,73186-38464,73186,FE,38463,Cadena Consulting,Employer,38464,CITY OF BURIEN,20-Nov,12/12/2020,16275.0,CITY OF BURIEN,3625.0,0.0,3625.0,0.0,0.0,0.0,0.0,0.0,0.0,0.0,3625.0,38464.0,Direct,,,View report (https://accesshub.pdc.wa.gov/node/73186),Local government,"Transportation, local government, housing, and environmental matters",House and senate members
80113,73186-45099,73186,FE,38463,Cadena Consulting,Employer,45099,CITY OF EVERETT,20-Nov,12/12/2020,16281.0,CITY OF EVERETT,3090.0,0.0,3090.0,0.0,0.0,0.0,0.0,0.0,0.0,0.0,3090.0,45099.0,Direct,,,View report (https://accesshub.pdc.wa.gov/node/73186),Local government,"Transportation, local government, housing, and environmental matters",House and senate members
80114,73183-45100,73183,FE,17507,Dziedzic Public Affairs,Employer,45100,CITY OF EVERETT,20-Nov,12/12/2020,16281.0,CITY OF EVERETT,3090.0,0.0,3090.0,0.0,0.0,0.0,0.0,0.0,0.0,0.0,3090.0,45100.0,Direct,,,View report (https://accesshub.pdc.wa.gov/node/73183),Health Care,"health care issues, opioids, behavioral health",House and Senate members
80115,73183-49066,73183,FE,17507,Dziedzic Public Affairs,Employer,49066,COMMUNITIES IN SCHOOLS OF WA,20-Nov,12/12/2020,16351.0,COMMUNITIES IN SCHOOLS OF WA,5000.0,0.0,5000.0,0.0,0.0,0.0,0.0,0.0,0.0,0.0,5000.0,49066.0,Direct,,,View report (https://accesshub.pdc.wa.gov/node/73183),Education,student supports,House and Senate members
80116,73183-18624,73183,FE,17507,Dziedzic Public Affairs,Employer,18624,FOUNDATION FOR HEALTHY GENERATIONS,20-Nov,12/12/2020,16354.0,FOUNDATION FOR HEALTHY GENERATIONS,4000.0,0.0,4000.0,0.0,0.0,0.0,0.0,0.0,0.0,0.0,4000.0,18624.0,Direct,,,View report (https://accesshub.pdc.wa.gov/node/73183),Health Care,health and prevention matters,House and Senate members
80117,73183-18626,73183,FE,17507,Dziedzic Public Affairs,Employer,18626,HOPELINK,20-Nov,12/12/2020,16511.0,HOPELINK,7000.0,0.0,7000.0,0.0,0.0,0.0,0.0,0.0,0.0,0.0,7000.0,18626.0,Direct,,,View report (https://accesshub.pdc.wa.gov/node/73183),Human services,"housing and homelessness, health care and safety net issues",House and Senate members
80118,73183-60876,73183,FE,17507,Dziedzic Public Affairs,Employer,60876,KING CO COUNCIL,20-Nov,12/12/2020,16575.0,KING CO COUNCIL,4000.0,0.0,4000.0,0.0,0.0,0.0,0.0,0.0,0.0,0.0,4000.0,60876.0,Direct,,,View report (https://accesshub.pdc.wa.gov/node/73183),Health Care,"access to health care, behavioral health, public health",House and Senate members
80119,73189-19417,73189,FE,17875,PAM CRONE LEGISLATIVE CONSULTING SVCS*,Employer,19417,The Mockingbird Society,20-Nov,12/12/2020,16639.0,The Mockingbird Society,1500.0,0.0,1500.0,0.0,0.0,0.0,0.0,0.0,0.0,0.0,1500.0,19417.0,Direct,,,View report (https://accesshub.pdc.wa.gov/node/73189),Human services,"legal rep, foster youth","House Early Learning and Human Services DCYF, and Senate Human Services Approps Ways/Means"
80120,73186-59721,73186,FE,38463,Cadena Consulting,Employer,59721,GoWest Credit Union Association,20-Nov,12/12/2020,16703.0,GoWest Credit Union Association,4750.0,0.0,4750.0,0.0,0.0,0.0,0.0,0.0,0.0,0.0,4750.0,59721.0,Direct,,,View report (https://accesshub.pdc.wa.gov/node/73186),Business and consumer affairs,business matters,House and senate members
80122,73186-43382,73186,FE,38463,Cadena Consulting,Employer,43382,SOUTHERN GLAZER'S WINE & SPIRITS,20-Nov,12/12/2020,16935.0,SOUTHERN GLAZER'S WINE & SPIRITS,4000.0,0.0,4000.0,0.0,0.0,0.0,0.0,0.0,0.0,0.0,4000.0,43382.0,Direct,,,View report (https://accesshub.pdc.wa.gov/node/73186),Business and consumer affairs,business matters,House and senate members
80123,73183-18629,73183,FE,17507,Dziedzic Public Affairs,Employer,18629,TEAMCHILD,20-Nov,12/12/2020,16976.0,TEAMCHILD,2300.0,0.0,2300.0,0.0,0.0,0.0,0.0,0.0,0.0,0.0,2300.0,18629.0,Direct,,,View report (https://accesshub.pdc.wa.gov/node/73183),Law and justice,juvenile rehabilitation,House and Senate members
80124,73189-19421,73189,FE,17875,PAM CRONE LEGISLATIVE CONSULTING SVCS*,Employer,19421,DISABILITY RIGHTS WA,20-Nov,12/12/2020,17163.0,DISABILITY RIGHTS WA,2000.0,0.0,2000.0,0.0,0.0,0.0,0.0,0.0,0.0,0.0,2000.0,19421.0,Direct,,,View report (https://accesshub.pdc.wa.gov/node/73189),Health Care,behavioral health,Health care committees
80125,73183-18630,73183,FE,17507,Dziedzic Public Affairs,Employer,18630,Washington Trails Association,20-Nov,12/12/2020,17200.0,Washington Trails Association,2500.0,0.0,2500.0,0.0,0.0,0.0,0.0,0.0,0.0,0.0,2500.0,18630.0,Direct,,,View report (https://accesshub.pdc.wa.gov/node/73183),Environmental Affairs - natural resources - parks,Outdoor recreation,house and senate members
80126,73186-62168,73186,FE,38463,Cadena Consulting,Employer,62168,"WASTE MANAGEMENT OF WASHINGTON, INC. (BOSWELL CONSULTING*)",20-Nov,12/12/2020,17260.0,"WASTE MANAGEMENT OF WASHINGTON, INC.",1500.0,0.0,1500.0,0.0,0.0,0.0,0.0,0.0,0.0,0.0,1500.0,62168.0,Subcontract,17398.0,BOSWELL CONSULTING*,View report (https://accesshub.pdc.wa.gov/node/73186),,,
80127,73186-45563,73186,FE,38463,Cadena Consulting,Employer,45563,WA ST TRANSIT ASSN,20-Nov,12/12/2020,17288.0,WA ST TRANSIT ASSN,3600.0,0.0,3600.0,0.0,0.0,0.0,0.0,0.0,0.0,0.0,3600.0,45563.0,Direct,,,View report (https://accesshub.pdc.wa.gov/node/73186),Transportation,transportation matters,House and senate members
80128,73190-19597,73190,FE,17956,LARRY B SHANNON,Employer,19597,WA ST ASSN FOR JUSTICE,20-Nov,12/12/2020,17289.0,WA ST ASSN FOR JUSTICE,14000.0,0.0,14000.0,65.41,0.0,0.0,0.0,0.0,0.0,65.41,14065.41,19597.0,Direct,,,View report (https://accesshub.pdc.wa.gov/node/73190),Labor,labor,Commerce and Labor Senate Committee
80129,73186-43384,73186,FE,38463,Cadena Consulting,Employer,43384,WA ST UNIVERSITY,20-Nov,12/12/2020,17290.0,WA ST UNIVERSITY,1500.0,0.0,1500.0,0.0,0.0,0.0,0.0,0.0,0.0,0.0,1500.0,43384.0,Direct,,,View report (https://accesshub.pdc.wa.gov/node/73186),Higher education,higher education,house and senate members
80130,73183-18631,73183,FE,17507,Dziedzic Public Affairs,Employer,18631,WITHIN REACH,20-Nov,12/12/2020,17314.0,WITHIN REACH,2200.0,0.0,2200.0,0.0,0.0,0.0,0.0,0.0,0.0,0.0,2200.0,18631.0,Direct,,,View report (https://accesshub.pdc.wa.gov/node/73183),Health Care,"early childhood development, access to health care",house and senate members
80131,73187-51667,73187,FE,27257,Paribello Public Affairs,Employer,51667,"Airbnb, Inc.",20-Nov,12/12/2020,30820.0,"Airbnb, Inc.",3000.0,0.0,3000.0,0.0,0.0,0.0,0.0,0.0,0.0,0.0,3000.0,51667.0,Direct,,,View report (https://accesshub.pdc.wa.gov/node/73187),Business and consumer affairs,business matters,house and senate members
80132,73186-39599,73186,FE,38463,Cadena Consulting,Employer,39599,CHI Franciscan Health,20-Nov,12/12/2020,32196.0,CHI Franciscan Health,3500.0,0.0,3500.0,0.0,0.0,0.0,0.0,0.0,0.0,0.0,3500.0,39599.0,Direct,,,View report (https://accesshub.pdc.wa.gov/node/73186),Health Care,health care matters,House and senate members
80133,73183-45533,73183,FE,17507,Dziedzic Public Affairs,Employer,45533,Fort Worden Foundation,20-Nov,12/12/2020,45530.0,Fort Worden Foundation,2500.0,0.0,2500.0,0.0,0.0,0.0,0.0,0.0,0.0,0.0,2500.0,45533.0,Direct,,,View report (https://accesshub.pdc.wa.gov/node/73183),Fiscal,Fiscal matters,House and Senate members
80134,73183-47007,73183,FE,17507,Dziedzic Public Affairs,Employer,47007,Downtown Emergency Service Center,20-Nov,12/12/2020,47006.0,Downtown Emergency Service Center,2000.0,0.0,2000.0,0.0,0.0,0.0,0.0,0.0,0.0,0.0,2000.0,47007.0,Direct,,,View report (https://accesshub.pdc.wa.gov/node/73183),Human services,"Housing and homelessness, behavioral health",House and Senate members
80135,73187-51666,73187,FE,27257,Paribello Public Affairs,Employer,51666,Ilani Resort and Casino,20-Nov,12/12/2020,51060.0,Ilani Resort and Casino,5000.0,0.0,5000.0,0.0,0.0,0.0,0.0,0.0,0.0,0.0,5000.0,51666.0,Direct,,,View report (https://accesshub.pdc.wa.gov/node/73187),Business and consumer affairs,"business matters, tribal matters, environmental affair",house and senate members
80136,73186-59787,73186,FE,38463,Cadena Consulting,Employer,59787,Bellevue Chamber of Commerce,20-Nov,12/12/2020,59665.0,Bellevue Chamber of Commerce,1000.0,0.0,1000.0,0.0,0.0,0.0,0.0,0.0,0.0,0.0,1000.0,59787.0,Direct,,,View report (https://accesshub.pdc.wa.gov/node/73186),Business and consumer affairs,business affairs,House and senate members
80137,73183-60995,73183,FE,17507,Dziedzic Public Affairs,Employer,60995,Bellevue School District,20-Nov,12/12/2020,60963.0,Bellevue School District,5000.0,0.0,5000.0,0.0,0.0,0.0,0.0,0.0,0.0,0.0,5000.0,60995.0,Direct,,,View report (https://accesshub.pdc.wa.gov/node/73183),Education,Education and student supports,House and Senate members
80138,73183-71021,73183,FE,17507,Dziedzic Public Affairs,Employer,71021,Washington School-Based Health Alliance,20-Nov,12/12/2020,61254.0,Washington School-Based Health Alliance,2000.0,0.0,2000.0,0.0,0.0,0.0,0.0,0.0,0.0,0.0,2000.0,71021.0,Direct,,,View report (https://accesshub.pdc.wa.gov/node/73183),Health Care,school based health centers,House and Senate members
80139,73187-66238,73187,FE,27257,Paribello Public Affairs,Employer,66238,King County Medical Society,20-Nov,12/12/2020,66236.0,King County Medical Society,2000.0,0.0,2000.0,0.0,0.0,0.0,0.0,0.0,0.0,0.0,2000.0,66238.0,Direct,,,View report (https://accesshub.pdc.wa.gov/node/73187),Health Care,health care matters,house and senate members
80140,73197-19617,73197,FE,17964,SCOTT C SIGMON,Employer,19617,WA ST CHAPTER OF ASSOC PUBLIC SAFETY COMMUNICATIONS OFFICIALS,20-Nov,12/13/2020,16158.0,WA ST CHAPTER OF ASSOC PUBLIC SAFETY COMMUNICATIONS OFFICIALS,2000.0,0.0,2000.0,0.0,0.0,0.0,0.0,0.0,0.0,0.0,2000.0,19617.0,Direct,,,View report (https://accesshub.pdc.wa.gov/node/73197),Local government,911 Telecommunicator Certification,House Public Safety Committee Members
80141,73197-19619,73197,FE,17964,SCOTT C SIGMON,Employer,19619,COASTAL CONSERVATION ASSN WA,20-Nov,12/13/2020,16333.0,COASTAL CONSERVATION ASSN WA,500.0,0.0,500.0,0.0,0.0,0.0,0.0,0.0,0.0,0.0,500.0,19619.0,Direct,,,View report (https://accesshub.pdc.wa.gov/node/73197),Environmental Affairs - natural resources - parks,Columbia River Policy,WDFW
80142,73197-19622,73197,FE,17964,SCOTT C SIGMON,Employer,19622,GILEAD SCIENCES INC,20-Nov,12/13/2020,16471.0,GILEAD SCIENCES INC,4500.0,0.0,4500.0,0.0,0.0,1000.0,0.0,0.0,0.0,1000.0,5500.0,19622.0,Direct,,,View report (https://accesshub.pdc.wa.gov/node/73197),Health Care,HIV/AIDS Preferred Drug List,Health Care Authority
80143,73197-19623,73197,FE,17964,SCOTT C SIGMON,Employer,19623,LEADINGAGE WA,20-Nov,12/13/2020,16588.0,LEADINGAGE WA,9000.0,0.0,9000.0,0.0,0.0,0.0,0.0,0.0,0.0,0.0,9000.0,19623.0,Direct,,,View report (https://accesshub.pdc.wa.gov/node/73197),Health Care,Long Term Care Funding,Governor's Office / OFM
80144,73197-19624,73197,FE,17964,SCOTT C SIGMON,Employer,19624,CONSUMER HEALTHCARE PRODUCTS ASSN,20-Nov,12/13/2020,16692.0,CONSUMER HEALTHCARE PRODUCTS ASSN,4000.0,0.0,4000.0,0.0,0.0,0.0,0.0,0.0,0.0,0.0,4000.0,19624.0,Direct,,,View report (https://accesshub.pdc.wa.gov/node/73197),Environmental Affairs - natural resources - parks,Plastic Packaging Study,Department of Ecology
80145,73197-19625,73197,FE,17964,SCOTT C SIGMON,Employer,19625,PARTNERS IN CAREERS,20-Nov,12/13/2020,16764.0,PARTNERS IN CAREERS,1500.0,0.0,1500.0,0.0,0.0,0.0,0.0,0.0,0.0,0.0,1500.0,19625.0,Direct,,,View report (https://accesshub.pdc.wa.gov/node/73197),Human services,WorkFirst Funding,Governor;s Office / OFM
80146,73195-19451,73195,FE,17887,SVEN PETERSON,Employer,19451,PREMERA BLUE CROSS,20-Nov,12/13/2020,16812.0,PREMERA BLUE CROSS,538.46,0.0,538.46,0.0,0.0,0.0,0.0,0.0,0.0,0.0,538.46,19451.0,Direct,,,View report (https://accesshub.pdc.wa.gov/node/73195),Health Care,Misc Regulatory Issues,Office of the Insurance Commissioner; WAHBE
80147,73194-45585,73194,FE,17722,SARAH M KWIATKOWSKI,Employer,45585,PREMERA BLUE CROSS,20-Nov,12/13/2020,16812.0,PREMERA BLUE CROSS,835.77,0.0,835.77,0.0,0.0,0.0,0.0,0.0,0.0,0.0,835.77,45585.0,Direct,,,View report (https://accesshub.pdc.wa.gov/node/73194),Health Care,"HC Taxes, Telehealth, Subsidies/FPHS, LTC, School Based Clinics, Telehealth Parity, HCA Cascade Care, Subsidy Funding","WA State Legislature, OIC, HCA, Legislative Staff"
80148,73197-19626,73197,FE,17964,SCOTT C SIGMON,Employer,19626,"UCB, INC",20-Nov,12/13/2020,17002.0,"UCB, INC",4000.0,0.0,4000.0,0.0,0.0,0.0,0.0,0.0,0.0,0.0,4000.0,19626.0,Direct,,,View report (https://accesshub.pdc.wa.gov/node/73197),Health Care,Emerging Therapies Workgroup,Health Care Authority
80149,73197-25407,73197,FE,17964,SCOTT C SIGMON,Employer,25407,"bluebird bio, Inc.",20-Nov,12/13/2020,25383.0,"bluebird bio, Inc.",2000.0,0.0,2000.0,0.0,0.0,0.0,0.0,0.0,0.0,0.0,2000.0,25407.0,Direct,,,View report (https://accesshub.pdc.wa.gov/node/73197),Health Care,Emerging Therapies / Gene Therapy,Health Care Authority
80151,72436-18730,72436,FE,17553,JESSICA FORTESCUE,Employer,18730,ABBVIE INC,20-Oct,12/14/2020,16061.0,ABBVIE INC,4000.0,0.0,4000.0,0.0,0.0,0.0,0.0,0.0,0.0,0.0,4000.0,18730.0,Direct,,,View report (https://accesshub.pdc.wa.gov/node/72436),Health Care,Education on HepC Elimination Plan,"Health Care Authority, Dept. of Health"
80152,73237-18730,73237,FE,17553,JESSICA FORTESCUE,Employer,18730,ABBVIE INC,20-Nov,12/14/2020,16061.0,ABBVIE INC,4000.0,0.0,4000.0,0.0,0.0,0.0,0.0,0.0,0.0,0.0,4000.0,18730.0,Direct,,,View report (https://accesshub.pdc.wa.gov/node/73237),Health Care,Education on HepC Elimination Plan,"Health Care Authority, Dept. of Health"
80153,73280-18649,73280,FE,17520,Emerick & Bloom,Employer,18649,Washington Acupuncture and Eastern Medicine Association,20-Nov,12/14/2020,16067.0,Washington Acupuncture and Eastern Medicine Association,3500.0,0.0,3500.0,0.0,0.0,0.0,0.0,0.0,0.0,0.0,3500.0,18649.0,Direct,,,View report (https://accesshub.pdc.wa.gov/node/73280),Health Care,Acupuncture,DOH
80154,73292-62626,73292,FE,62625,Jennifer Lee,Employer,62626,AMERICAN CIVIL LIBERTIES UNION OF WA,20-Nov,12/14/2020,16097.0,AMERICAN CIVIL LIBERTIES UNION OF WA,834.0,0.0,834.0,0.0,0.0,0.0,0.0,0.0,0.0,0.0,834.0,62626.0,Direct,,,View report (https://accesshub.pdc.wa.gov/node/73292),Technology,Data privacy,Reps. Kloba and Boehnke
80155,73219-50372,73219,FE,50371,Tom Wolf,Employer,50372,BP AMERICA INC,20-Nov,12/14/2020,16139.0,BP AMERICA INC,2200.0,0.0,2200.0,0.0,0.0,0.0,0.0,0.0,0.0,0.0,2200.0,50372.0,Direct,,,View report (https://accesshub.pdc.wa.gov/node/73219),Energy and utilities,Carbon pricing,"Senator Reuven Carlyle, Rep. Joe Fitzgibbon, Senator Liz Lovelett, Rep. Sharon Shewmake, Rep. Debra Lekanoff"
80156,73089-19743,73089,FE,18021,LISA THATCHER,Employer,19743,ASSN OF DENTAL SUPPORT ORGANIZATIONS,20-Nov,12/14/2020,16153.0,ASSN OF DENTAL SUPPORT ORGANIZATIONS,2500.0,0.0,2500.0,0.0,0.0,0.0,0.0,0.0,0.0,0.0,2500.0,19743.0,Direct,,,View report (https://accesshub.pdc.wa.gov/node/73089),Health Care,Support services offered to Dentists,Department of Health
80157,73232-19826,73232,FE,18051,JERRY VANDERWOOD,Employer,19826,ASSOCIATED GENERAL CONTRACTORS OF WA,20-Nov,12/14/2020,16154.0,ASSOCIATED GENERAL CONTRACTORS OF WA,2652.25,0.0,2652.25,0.0,0.0,1059.82,0.0,0.0,0.0,1059.82,3712.07,19826.0,Direct,,,View report (https://accesshub.pdc.wa.gov/node/73232),Business and consumer affairs,construction,"LNI, Ecology, WSDOT, ESD, Labor, Environment, Tax, Capital Budget, Transportation committees"
80158,73234-19897,73234,FE,18093,MICHELE WILLMS,Employer,19897,ASSOCIATED GENERAL CONTRACTORS OF WA,20-Nov,12/14/2020,16154.0,ASSOCIATED GENERAL CONTRACTORS OF WA,1626.92,0.0,1626.92,0.0,0.0,0.0,0.0,0.0,0.0,0.0,1626.92,19897.0,Direct,,,View report (https://accesshub.pdc.wa.gov/node/73234),Transportation,Transportation,WSDOT
80159,72436-27763,72436,FE,17553,JESSICA FORTESCUE,Employer,27763,ASSN of WA Housing Authorities,20-Oct,12/14/2020,16155.0,ASSN of WA Housing Authorities,1400.0,0.0,1400.0,0.0,0.0,0.0,0.0,0.0,0.0,0.0,1400.0,27763.0,Direct,,,View report (https://accesshub.pdc.wa.gov/node/72436),Human services,"Housing, local government","Housing, Local Government, fiscal"
80160,73237-27763,73237,FE,17553,JESSICA FORTESCUE,Employer,27763,ASSN of WA Housing Authorities,20-Nov,12/14/2020,16155.0,ASSN of WA Housing Authorities,1400.0,0.0,1400.0,0.0,0.0,0.0,0.0,0.0,0.0,0.0,1400.0,27763.0,Direct,,,View report (https://accesshub.pdc.wa.gov/node/73237),Human services,"Housing, local government","Housing, Local Government, fiscal"
80161,73089-19744,73089,FE,18021,LISA THATCHER,Employer,19744,ASSN OF WA PUBLIC HOSPITAL DISTRICTS,20-Nov,12/14/2020,16170.0,ASSN OF WA PUBLIC HOSPITAL DISTRICTS,4500.0,0.0,4500.0,0.0,0.0,0.0,0.0,0.0,0.0,0.0,4500.0,19744.0,Direct,,,View report (https://accesshub.pdc.wa.gov/node/73089),Fiscal,Public bidding issues,CPARB
80162,73081-18343,73081,FE,17428,DEANNE C CALVERT,Employer,18343,SANOFI US,20-Nov,12/14/2020,16178.0,SANOFI US,1201.92,0.0,1201.92,0.0,0.0,0.0,0.0,0.0,0.0,0.0,1201.92,18343.0,Direct,,,View report (https://accesshub.pdc.wa.gov/node/73081),Health Care,"Pharmaceuticals, vaccines, budget, Medicaid",Legislature
80163,73282-18454,73282,FE,17453,Bill Clarke,Employer,18454,BIOTECHNOLOGY INNOVATION ORGANIZATION,20-Nov,12/14/2020,16193.0,BIOTECHNOLOGY INNOVATION ORGANIZATION,5000.0,0.0,5000.0,0.0,0.0,0.0,0.0,0.0,0.0,0.0,5000.0,18454.0,Direct,,,View report (https://accesshub.pdc.wa.gov/node/73282),Health Care,Drug pricing; drug takeback,H. Health Care; S. Health Care
80164,72436-20012,72436,FE,17553,JESSICA FORTESCUE,Employer,20012,BRISTOL-MYERS SQUIBB CO (PIERCE CONSULTING SVCS LLC*),20-Oct,12/14/2020,16208.0,BRISTOL-MYERS SQUIBB CO,245.82,0.0,245.82,0.0,0.0,0.0,0.0,0.0,0.0,0.0,245.82,20012.0,Subcontract,17597.0,PIERCE CONSULTING SVCS LLC*,View report (https://accesshub.pdc.wa.gov/node/72436),,,
80165,73237-20012,73237,FE,17553,JESSICA FORTESCUE,Employer,20012,BRISTOL-MYERS SQUIBB CO (PIERCE CONSULTING SVCS LLC*),20-Nov,12/14/2020,16208.0,BRISTOL-MYERS SQUIBB CO,245.82,0.0,245.82,0.0,0.0,0.0,0.0,0.0,0.0,0.0,245.82,20012.0,Subcontract,17597.0,PIERCE CONSULTING SVCS LLC*,View report (https://accesshub.pdc.wa.gov/node/73237),,,
80166,73260-25642,73260,FE,18088,White Tudor LLC,Employer,25642,CENTER FOR DIAGNOSTIC IMAGING,20-Nov,12/14/2020,16242.0,CENTER FOR DIAGNOSTIC IMAGING,2000.0,0.0,2000.0,0.0,0.0,0.0,0.0,0.0,0.0,0.0,2000.0,25642.0,Direct,,,View report (https://accesshub.pdc.wa.gov/node/73260),Health Care,balance billing,"legislature, OIC"
80167,73120-18515,73120,FE,17472,AHNE PLLC*,Employer,18515,CGI TECHNOLOGIES & SOLUTIONS INC,20-Nov,12/14/2020,16250.0,CGI TECHNOLOGIES & SOLUTIONS INC,5000.0,0.0,5000.0,0.0,0.0,0.0,0.0,0.0,0.0,0.0,5000.0,18515.0,Direct,,,View report (https://accesshub.pdc.wa.gov/node/73120),Technology,various,various
80168,73117-63584,73117,FE,17950,SEIB POLICY & PUBLIC AFFAIRS*,Employer,63584,Seattle Children's Hospital,20-Nov,12/14/2020,16259.0,Seattle Children's Hospital,6000.0,0.0,6000.0,0.0,0.0,0.0,0.0,0.0,0.0,0.0,6000.0,63584.0,Direct,,,View report (https://accesshub.pdc.wa.gov/node/73117),Health Care,various,various
80170,73276-47034,73276,FE,17666,ALEX HUR,Employer,47034,Cities Insurance Assn of WA,20-Nov,12/14/2020,16269.0,Cities Insurance Assn of WA,840.0,0.0,840.0,0.0,0.0,0.0,0.0,0.0,0.0,0.0,840.0,47034.0,Direct,,,View report (https://accesshub.pdc.wa.gov/node/73276),Financial institutions and insurance,"Insurance, risk","FIHI, local government"
80171,73111-27621,73111,FE,17329,"Advocates, Inc.",Employer,27621,CITY OF FEDERAL WAY,20-Nov,12/14/2020,16282.0,CITY OF FEDERAL WAY,3862.5,0.0,3862.5,0.0,0.0,0.0,0.0,0.0,0.0,0.0,3862.5,27621.0,Direct,,,View report (https://accesshub.pdc.wa.gov/node/73111),Local government,various,various
80172,73282-47868,73282,FE,17453,Bill Clarke,Employer,47868,CITY OF SUMNER,20-Nov,12/14/2020,16315.0,CITY OF SUMNER,5000.0,0.0,5000.0,0.0,0.0,0.0,0.0,0.0,0.0,0.0,5000.0,47868.0,Direct,,,View report (https://accesshub.pdc.wa.gov/node/73282),Fiscal,Capital Project Funding,House Capital Budget; Senate Ways & Means
80173,73089-19748,73089,FE,18021,LISA THATCHER,Employer,19748,CLARK PUBLIC UTILITIES,20-Nov,12/14/2020,16324.0,CLARK PUBLIC UTILITIES,5500.0,0.0,5500.0,0.0,0.0,0.0,0.0,0.0,0.0,0.0,5500.0,19748.0,Direct,,,View report (https://accesshub.pdc.wa.gov/node/73089),Energy and utilities,Energy and Utility issues,Dept of Commerce; Dept of Ecology
80175,73157-18892,73157,FE,17597,PIERCE CONSULTING SVCS LLC*,Employer,18892,COMCAST CABLE COMMUNICATIONS,20-Nov,12/14/2020,16344.0,COMCAST CABLE COMMUNICATIONS,4000.0,-393.31,3606.69,100.0,0.0,0.0,0.0,0.0,0.0,100.0,3706.69,18892.0,Direct,,,View report (https://accesshub.pdc.wa.gov/node/73157),Energy and utilities,various,various
80176,72436-19984,72436,FE,17553,JESSICA FORTESCUE,Employer,19984,COMCAST CABLE COMMUNICATIONS (PIERCE CONSULTING SVCS LLC*),20-Oct,12/14/2020,16344.0,COMCAST CABLE COMMUNICATIONS,393.31,0.0,393.31,0.0,0.0,0.0,0.0,0.0,0.0,0.0,393.31,19984.0,Subcontract,17597.0,PIERCE CONSULTING SVCS LLC*,View report (https://accesshub.pdc.wa.gov/node/72436),,,
80177,73237-19984,73237,FE,17553,JESSICA FORTESCUE,Employer,19984,COMCAST CABLE COMMUNICATIONS (PIERCE CONSULTING SVCS LLC*),20-Nov,12/14/2020,16344.0,COMCAST CABLE COMMUNICATIONS,393.31,0.0,393.31,0.0,0.0,0.0,0.0,0.0,0.0,0.0,393.31,19984.0,Subcontract,17597.0,PIERCE CONSULTING SVCS LLC*,View report (https://accesshub.pdc.wa.gov/node/73237),,,
80178,73282-18455,73282,FE,17453,Bill Clarke,Employer,18455,The Trust for Public Land,20-Nov,12/14/2020,16358.0,The Trust for Public Land,3166.67,0.0,3166.67,0.0,0.0,0.0,0.0,0.0,0.0,0.0,3166.67,18455.0,Direct,,,View report (https://accesshub.pdc.wa.gov/node/73282),Environmental Affairs - natural resources - parks,Parks; recreation; farm/forest preservation,H. Capital Budget; S. Ways & Means; H. Enviro; S. Local Gov; S. Nat. Resources
80179,73157-59743,73157,FE,17597,PIERCE CONSULTING SVCS LLC*,Employer,59743,DELOITTE CONSULTING LLP,20-Nov,12/14/2020,16384.0,DELOITTE CONSULTING LLP,2500.0,0.0,2500.0,0.0,0.0,0.0,0.0,0.0,0.0,0.0,2500.0,59743.0,Direct,,,View report (https://accesshub.pdc.wa.gov/node/73157),Health Care,various,various
80180,73089-19750,73089,FE,18021,LISA THATCHER,Employer,19750,DENTA QUEST,20-Nov,12/14/2020,16386.0,DENTA QUEST,6000.0,0.0,6000.0,0.0,0.0,0.0,0.0,0.0,0.0,0.0,6000.0,19750.0,Direct,,,View report (https://accesshub.pdc.wa.gov/node/73089),Fiscal,Dental Medicaid,HCA
80181,73276-19010,73276,FE,17666,ALEX HUR,Employer,19010,"Meta Platforms, Inc.",20-Nov,12/14/2020,16430.0,"Meta Platforms, Inc.",5000.0,0.0,5000.0,0.0,0.0,0.0,0.0,0.0,0.0,0.0,5000.0,19010.0,Direct,,,View report (https://accesshub.pdc.wa.gov/node/73276),Technology,Tech,"Tech, state government"
80182,72449-19089,72449,FE,17710,TERRY KOHL,Employer,19089,FAMILY WINERIES OF WA ST,20-Nov,12/14/2020,16434.0,FAMILY WINERIES OF WA ST,208.33,0.0,208.33,0.0,0.0,0.0,0.0,0.0,0.0,0.0,208.33,19089.0,Direct,,,View report (https://accesshub.pdc.wa.gov/node/72449),Business and consumer affairs,Washington Wineries,HS Senate Commerce Law
80183,73285-19089,73285,FE,17710,TERRY KOHL,Employer,19089,FAMILY WINERIES OF WA ST,20-Oct,12/14/2020,16434.0,FAMILY WINERIES OF WA ST,208.33,0.0,208.33,0.0,0.0,0.0,0.0,0.0,0.0,0.0,208.33,19089.0,Direct,,,View report (https://accesshub.pdc.wa.gov/node/73285),Business and consumer affairs,Washington Wineries,HS Senate Commerce Law
80189,73157-18893,73157,FE,17597,PIERCE CONSULTING SVCS LLC*,Employer,18893,RUSSELL INVESTMENT GROUP,20-Nov,12/14/2020,16456.0,RUSSELL INVESTMENT GROUP,3000.0,-294.99,2705.01,100.0,0.0,0.0,0.0,0.0,0.0,100.0,2805.01,18893.0,Direct,,,View report (https://accesshub.pdc.wa.gov/node/73157),Financial institutions and insurance,various,various
80190,73122-19719,73122,FE,18003,ERIK STROM,Employer,19719,RUSSELL INVESTMENT GROUP,20-Nov,12/14/2020,16456.0,RUSSELL INVESTMENT GROUP,5000.0,0.0,5000.0,0.0,0.0,0.0,0.0,0.0,0.0,0.0,5000.0,19719.0,Direct,,,View report (https://accesshub.pdc.wa.gov/node/73122),State government,various,various
80191,72436-19975,72436,FE,17553,JESSICA FORTESCUE,Employer,19975,RUSSELL INVESTMENT GROUP (PIERCE CONSULTING SVCS LLC*),20-Oct,12/14/2020,16456.0,RUSSELL INVESTMENT GROUP,294.99,0.0,294.99,0.0,0.0,0.0,0.0,0.0,0.0,0.0,294.99,19975.0,Subcontract,17597.0,PIERCE CONSULTING SVCS LLC*,View report (https://accesshub.pdc.wa.gov/node/72436),,,
80192,73237-19975,73237,FE,17553,JESSICA FORTESCUE,Employer,19975,RUSSELL INVESTMENT GROUP (PIERCE CONSULTING SVCS LLC*),20-Nov,12/14/2020,16456.0,RUSSELL INVESTMENT GROUP,294.99,0.0,294.99,0.0,0.0,0.0,0.0,0.0,0.0,0.0,294.99,19975.0,Subcontract,17597.0,PIERCE CONSULTING SVCS LLC*,View report (https://accesshub.pdc.wa.gov/node/73237),,,
80193,73280-69827,73280,FE,17520,Emerick & Bloom,Employer,69827,FRESENIUS MEDICAL CARE NORTH AMERICA,20-Nov,12/14/2020,16462.0,FRESENIUS MEDICAL CARE NORTH AMERICA,2000.0,0.0,2000.0,0.0,0.0,0.0,0.0,0.0,0.0,0.0,2000.0,69827.0,Direct,,,View report (https://accesshub.pdc.wa.gov/node/73280),,,
80194,73089-19751,73089,FE,18021,LISA THATCHER,Employer,19751,GLAXO SMITHKLINE,20-Nov,12/14/2020,16473.0,GLAXO SMITHKLINE,4494.77,0.0,4494.77,0.0,0.0,0.0,0.0,0.0,0.0,0.0,4494.77,19751.0,Direct,,,View report (https://accesshub.pdc.wa.gov/node/73089),Environmental Affairs - natural resources - parks,Healthcare and pharma issues,Dept of Health; HCA
80195,73218-62859,73218,FE,62858,Ian Goodhew,Employer,62859,Google LLC and its Affiliates,20-Nov,12/14/2020,16475.0,Google LLC and its Affiliates,3161.06,0.0,3161.06,0.0,0.0,0.0,0.0,0.0,0.0,0.0,3161.06,62859.0,Direct,,,View report (https://accesshub.pdc.wa.gov/node/73218),Technology,"Data privacy, contact tracing, exposure notification, digital retail sales tax, payroll tax","Senator Reuven Carlyle, Rep. Vandana Slatter, Rep. Larry Springer, Bryant Karras, Amy Reynolds, Angela Kleis, Mike Webb, Yasmine Trudeau"
80196,73282-60240,73282,FE,17453,Bill Clarke,Employer,60240,GRANT PUD,20-Nov,12/14/2020,16481.0,GRANT PUD,4250.0,0.0,4250.0,100.0,0.0,0.0,0.0,0.0,0.0,100.0,4350.0,60240.0,Direct,,,View report (https://accesshub.pdc.wa.gov/node/73282),Energy and utilities,Energy,S. Energy & Environment; H. Energy & Environment; S. Ways & Means; H. Finance; S. Local Government; H. Local Government
80197,73276-19011,73276,FE,17666,ALEX HUR,Employer,19011,ONEAMERICA,20-Nov,12/14/2020,16494.0,ONEAMERICA,3000.0,0.0,3000.0,0.0,0.0,0.0,0.0,0.0,0.0,0.0,3000.0,19011.0,Direct,,,View report (https://accesshub.pdc.wa.gov/node/73276),Education,"K-12, immigrant rights, civil rights","K-12, state government, judiciary, approps, ways and means"
80198,73280-18651,73280,FE,17520,Emerick & Bloom,Employer,18651,HOME CARE ASSN OF WA,20-Nov,12/14/2020,16509.0,HOME CARE ASSN OF WA,3700.0,0.0,3700.0,0.0,0.0,0.0,0.0,0.0,0.0,0.0,3700.0,18651.0,Direct,,,View report (https://accesshub.pdc.wa.gov/node/73280),Health Care,In-Home Services,"DOH, HCA, DSHS"
80201,73255-19283,73255,FE,17812,MILLER NASH LLP*,Employer,19283,JAMESTOWN S'KLALLAM TRIBE,20-Nov,12/14/2020,16557.0,JAMESTOWN S'KLALLAM TRIBE,5000.0,0.0,5000.0,0.0,0.0,0.0,0.0,0.0,0.0,0.0,5000.0,19283.0,Direct,,,View report (https://accesshub.pdc.wa.gov/node/73255),State government,Gaming,"Washington State Gambling Commission, Washington State Lottery Commission, Senate Ways & Means, House Commerce & Labor, Senate LCRD"
80202,73282-18456,73282,FE,17453,Bill Clarke,Employer,18456,KITTITAS CO BOARD OF COMMISSIONERS,20-Nov,12/14/2020,16582.0,KITTITAS CO BOARD OF COMMISSIONERS,2000.0,0.0,2000.0,0.0,0.0,0.0,0.0,0.0,0.0,0.0,2000.0,18456.0,Direct,,,View report (https://accesshub.pdc.wa.gov/node/73282),Local government,Water; budget,S. Ag & Water; H. Ag & Nat Resources; H. Cap. Budget; S. Ways & Means
80203,73276-50625,73276,FE,17666,ALEX HUR,Employer,50625,MASTER BLDRS ASSN OF KING & SNO COUNTIES,20-Nov,12/14/2020,16622.0,MASTER BLDRS ASSN OF KING & SNO COUNTIES,7000.0,0.0,7000.0,0.0,0.0,0.0,0.0,0.0,0.0,0.0,7000.0,50625.0,Direct,,,View report (https://accesshub.pdc.wa.gov/node/73276),Local government,Housing,"Local Government, Environment"
80204,73157-18894,73157,FE,17597,PIERCE CONSULTING SVCS LLC*,Employer,18894,MICROSOFT CORP,20-Nov,12/14/2020,16636.0,MICROSOFT CORP,4460.0,0.0,4460.0,100.0,0.0,0.0,0.0,0.0,0.0,100.0,4560.0,18894.0,Direct,,,View report (https://accesshub.pdc.wa.gov/node/73157),Technology,various,various
80205,72436-70206,72436,FE,17553,JESSICA FORTESCUE,Employer,70206,MICROSOFT CORP,20-Oct,12/14/2020,16636.0,MICROSOFT CORP,3750.0,0.0,3750.0,0.0,0.0,0.0,0.0,0.0,0.0,0.0,3750.0,70206.0,Direct,,,View report (https://accesshub.pdc.wa.gov/node/72436),Technology,Technology,"Governor's office, ESD, LegTech, OSPI"
80206,73237-70206,73237,FE,17553,JESSICA FORTESCUE,Employer,70206,MICROSOFT CORP,20-Nov,12/14/2020,16636.0,MICROSOFT CORP,3750.0,0.0,3750.0,0.0,0.0,0.0,0.0,0.0,0.0,0.0,3750.0,70206.0,Direct,,,View report (https://accesshub.pdc.wa.gov/node/73237),Technology,Technology,"Governor's office, ESD, LegTech, OSPI"
80207,73117-19587,73117,FE,17950,SEIB POLICY & PUBLIC AFFAIRS*,Employer,19587,Molina Healthcare Inc,20-Nov,12/14/2020,16641.0,Molina Healthcare Inc,9000.0,0.0,9000.0,0.0,0.0,0.0,0.0,0.0,0.0,0.0,9000.0,19587.0,Direct,,,View report (https://accesshub.pdc.wa.gov/node/73117),Health Care,various,various
80210,73244-28354,73244,FE,28352,Keely Hopkins,Employer,28354,NATL RIFLE ASSN OF AMERICA,20-Nov,12/14/2020,16672.0,NATL RIFLE ASSN OF AMERICA,280.8,0.0,280.8,0.0,0.0,0.0,0.0,0.0,0.0,0.0,280.8,28354.0,Direct,,,View report (https://accesshub.pdc.wa.gov/node/73244),Law and justice,Firearms issues,WDFW
80211,72762-18680,72762,FE,17531,EVERGREEN PUBLIC AFFAIRS LLC*,Employer,18680,NATL ASSN OF SOCIAL WORKERS WA ST CHAPTER,20-Nov,12/14/2020,16673.0,NATL ASSN OF SOCIAL WORKERS WA ST CHAPTER,1175.0,0.0,1175.0,0.0,0.0,0.0,0.0,0.0,0.0,0.0,1175.0,18680.0,Direct,,,View report (https://accesshub.pdc.wa.gov/node/72762),Health Care,police reform; abuse/neglect law,"Reps Wilcox, Entnmann, Maycumber, Orwall"
80212,73248-58149,73248,FE,58148,Justin Allegro,Employer,58149,THE NATURE CONSERVANCY,20-Nov,12/14/2020,16677.0,THE NATURE CONSERVANCY,2964.0,0.0,2964.0,0.0,0.0,0.0,0.0,0.0,0.0,0.0,2964.0,58149.0,Direct,,,View report (https://accesshub.pdc.wa.gov/node/73248),Environmental Affairs - natural resources - parks,"Forest, Water, and Climate legislative planning for 2021",House E&E and RDAN; Senate EET and AGNR;
80213,73260-62012,73260,FE,18088,White Tudor LLC,Employer,62012,NATURAL RESOURCES DEFENSE COUNCIL INC. AND ITS AFFILIATES,20-Nov,12/14/2020,16679.0,NATURAL RESOURCES DEFENSE COUNCIL INC. AND ITS AFFILIATES,1000.0,0.0,1000.0,0.0,0.0,0.0,0.0,0.0,0.0,0.0,1000.0,62012.0,Direct,,,View report (https://accesshub.pdc.wa.gov/node/73260),Transportation,"transportation revenue, carbon reductions","Legislature, OFM, ECY, Commerce"
80214,73204-19828,73204,FE,18053,JANET VARON,Employer,19828,Northwest Health Law Advocates,20-Nov,12/14/2020,16709.0,Northwest Health Law Advocates,211.0,0.0,211.0,0.0,0.0,0.0,0.0,0.0,0.0,0.0,211.0,19828.0,Direct,,,View report (https://accesshub.pdc.wa.gov/node/73204),Health Care,,Rep. Ricelli
80215,73120-18516,73120,FE,17472,AHNE PLLC*,Employer,18516,OVERTON & ASSOC,20-Nov,12/14/2020,16744.0,OVERTON & ASSOC,2000.0,0.0,2000.0,0.0,0.0,0.0,0.0,0.0,0.0,0.0,2000.0,18516.0,Direct,,,View report (https://accesshub.pdc.wa.gov/node/73120),Environmental Affairs - natural resources - parks,various,various
80216,73167-18921,73167,FE,17606,TOM GURR,Employer,18921,PACIFIC TECHNOLOGY ALLIANCE,20-Nov,12/14/2020,16759.0,PACIFIC TECHNOLOGY ALLIANCE,800.0,0.0,800.0,0.0,0.0,0.0,0.0,0.0,0.0,0.0,800.0,18921.0,Direct,,,View report (https://accesshub.pdc.wa.gov/node/73167),Technology,Telecommunications,"House Technology & Economic Development Committee, Senate Energy, Environment & Telecommunications Committee"
80217,73193-39102,73193,FE,39101,Caroline Eliassen,Employer,39102,PHILLIPS 66,20-Nov,12/14/2020,16779.0,PHILLIPS 66,866.67,0.0,866.67,0.0,0.0,10000.0,0.0,0.0,0.0,10000.0,10866.67,39102.0,Direct,,,View report (https://accesshub.pdc.wa.gov/node/73193),Energy and utilities,Carbon Fee draft proposal,State House and Senate
80218,73267-70470,73267,FE,70469,Johns-Brown Governmental Relations,Employer,70470,PLANNED PARENTHOOD ALLIANCE ADVOCATES,20-Nov,12/14/2020,16789.0,PLANNED PARENTHOOD ALLIANCE ADVOCATES,1000.0,0.0,1000.0,0.0,0.0,0.0,0.0,0.0,0.0,0.0,1000.0,70470.0,Direct,,,View report (https://accesshub.pdc.wa.gov/node/73267),Fiscal,family planning reimbursement,OFM/Appropriations/Ways and Means
80219,73120-19935,73120,FE,17472,AHNE PLLC*,Employer,19935,PORT GAMBLE S'KLALLAM TRIBE (DAVOR GJURASIC),20-Nov,12/14/2020,16799.0,PORT GAMBLE S'KLALLAM TRIBE,3125.0,0.0,3125.0,0.0,0.0,0.0,0.0,0.0,0.0,0.0,3125.0,19935.0,Subcontract,17575.0,DAVOR GJURASIC,View report (https://accesshub.pdc.wa.gov/node/73120),,,
80220,73089-19753,73089,FE,18021,LISA THATCHER,Employer,19753,PORT OF TACOMA,20-Nov,12/14/2020,16806.0,PORT OF TACOMA,3000.0,0.0,3000.0,0.0,0.0,0.0,0.0,0.0,0.0,0.0,3000.0,19753.0,Direct,,,View report (https://accesshub.pdc.wa.gov/node/73089),Fiscal,MTCA Funding,Department of Ecology
80221,73111-18118,73111,FE,17329,"Advocates, Inc.",Employer,18118,PUYALLUP TRIBE OF INDIANS,20-Nov,12/14/2020,16835.0,PUYALLUP TRIBE OF INDIANS,14000.0,0.0,14000.0,0.0,0.0,0.0,0.0,0.0,0.0,0.0,14000.0,18118.0,Direct,,,View report (https://accesshub.pdc.wa.gov/node/73111),Environmental Affairs - natural resources - parks,various,various
80224,73276-47036,73276,FE,17666,ALEX HUR,Employer,47036,WA RURAL CO INSURANCE PROGRAM,20-Nov,12/14/2020,16865.0,WA RURAL CO INSURANCE PROGRAM,240.0,0.0,240.0,0.0,0.0,0.0,0.0,0.0,0.0,0.0,240.0,47036.0,Direct,,,View report (https://accesshub.pdc.wa.gov/node/73276),Financial institutions and insurance,Insurance,FIHI
80225,73117-19589,73117,FE,17950,SEIB POLICY & PUBLIC AFFAIRS*,Employer,19589,RURAL HEALTH CLINIC ASSN,20-Nov,12/14/2020,16866.0,RURAL HEALTH CLINIC ASSN,1800.0,-1250.0,550.0,0.0,0.0,0.0,0.0,0.0,0.0,0.0,550.0,19589.0,Direct,,,View report (https://accesshub.pdc.wa.gov/node/73117),Health Care,various,various
80226,73236-58867,73236,FE,58841,Jessica Galvez,Employer,58867,SAVE THE CHILDREN ACTION NETWORK,20-Nov,12/14/2020,16876.0,SAVE THE CHILDREN ACTION NETWORK,232.0,0.0,232.0,0.0,0.0,0.0,0.0,0.0,0.0,0.0,232.0,58867.0,Direct,,,View report (https://accesshub.pdc.wa.gov/node/73236),Education,Early Childhood Education/Childcare,Rep. Tana Senn
80227,73276-47035,73276,FE,17666,ALEX HUR,Employer,47035,Schools Insurance Assn of WA,20-Nov,12/14/2020,16881.0,Schools Insurance Assn of WA,1290.0,0.0,1290.0,0.0,0.0,0.0,0.0,0.0,0.0,0.0,1290.0,47035.0,Direct,,,View report (https://accesshub.pdc.wa.gov/node/73276),Financial institutions and insurance,"School safety, insurance, risk","K-12, FIHI, approps, ways and means"
80228,73276-19013,73276,FE,17666,ALEX HUR,Employer,19013,STATEWIDE POVERTY ACTION NETWORK,20-Nov,12/14/2020,16952.0,STATEWIDE POVERTY ACTION NETWORK,4250.0,0.0,4250.0,0.0,0.0,0.0,0.0,0.0,0.0,0.0,4250.0,19013.0,Direct,,,View report (https://accesshub.pdc.wa.gov/node/73276),Human services,Human Services,"Early Learning and Human Services, Human Services"
80229,73282-18458,73282,FE,17453,Bill Clarke,Employer,18458,TROUT UNLIMITED,20-Nov,12/14/2020,16995.0,TROUT UNLIMITED,1500.0,0.0,1500.0,0.0,0.0,0.0,0.0,0.0,0.0,0.0,1500.0,18458.0,Direct,,,View report (https://accesshub.pdc.wa.gov/node/73282),Environmental Affairs - natural resources - parks,Fishery management; habitat; budget,S. Natural Resources; H. Ag & Natural Res
80230,73276-47037,73276,FE,17666,ALEX HUR,Employer,47037,UNITED SCHOOLS INSURANCE PROGRAM,20-Nov,12/14/2020,17014.0,UNITED SCHOOLS INSURANCE PROGRAM,630.0,0.0,630.0,0.0,0.0,0.0,0.0,0.0,0.0,0.0,630.0,47037.0,Direct,,,View report (https://accesshub.pdc.wa.gov/node/73276),Financial institutions and insurance,Insurance/Risk,"FIHI, K-12, BFS"
80231,73157-18895,73157,FE,17597,PIERCE CONSULTING SVCS LLC*,Employer,18895,VULCAN INC,20-Nov,12/14/2020,17039.0,VULCAN INC,4000.0,-393.31,3606.69,0.0,0.0,0.0,0.0,0.0,0.0,0.0,3606.69,18895.0,Direct,,,View report (https://accesshub.pdc.wa.gov/node/73157),Business and consumer affairs,various,various
80232,72436-20007,72436,FE,17553,JESSICA FORTESCUE,Employer,20007,VULCAN INC (PIERCE CONSULTING SVCS LLC*),20-Oct,12/14/2020,17039.0,VULCAN INC,393.31,0.0,393.31,0.0,0.0,0.0,0.0,0.0,0.0,0.0,393.31,20007.0,Subcontract,17597.0,PIERCE CONSULTING SVCS LLC*,View report (https://accesshub.pdc.wa.gov/node/72436),,,
80233,73237-20007,73237,FE,17553,JESSICA FORTESCUE,Employer,20007,VULCAN INC (PIERCE CONSULTING SVCS LLC*),20-Nov,12/14/2020,17039.0,VULCAN INC,393.31,0.0,393.31,0.0,0.0,0.0,0.0,0.0,0.0,0.0,393.31,20007.0,Subcontract,17597.0,PIERCE CONSULTING SVCS LLC*,View report (https://accesshub.pdc.wa.gov/node/73237),,,
80234,73260-24893,73260,FE,18088,White Tudor LLC,Employer,24893,WA ASSN OF AREA AGENCIES ON AGING,20-Nov,12/14/2020,17044.0,WA ASSN OF AREA AGENCIES ON AGING,5000.0,0.0,5000.0,0.0,0.0,0.0,0.0,0.0,0.0,0.0,5000.0,24893.0,Direct,,,View report (https://accesshub.pdc.wa.gov/node/73260),Health Care,many,"DSHS, HCA, legislature"
80235,72762-18682,72762,FE,17531,EVERGREEN PUBLIC AFFAIRS LLC*,Employer,18682,WA ASSN OF COLLEGES FOR TEACHER EDUCATION,20-Nov,12/14/2020,17049.0,WA ASSN OF COLLEGES FOR TEACHER EDUCATION,250.0,0.0,250.0,0.0,0.0,0.0,0.0,0.0,0.0,0.0,250.0,18682.0,Direct,,,View report (https://accesshub.pdc.wa.gov/node/72762),Education,teacher preparation,Sen. C Wilson; Educaation Colaborative
80236,73117-19591,73117,FE,17950,SEIB POLICY & PUBLIC AFFAIRS*,Employer,19591,WA ACADEMY OF FAMILY PHYSICIANS,20-Nov,12/14/2020,17052.0,WA ACADEMY OF FAMILY PHYSICIANS,6000.0,-1250.0,4750.0,0.0,0.0,0.0,0.0,0.0,0.0,0.0,4750.0,19591.0,Direct,,,View report (https://accesshub.pdc.wa.gov/node/73117),Health Care,various,various
80237,73282-18459,73282,FE,17453,Bill Clarke,Employer,18459,WA ASSN OF REALTORS,20-Nov,12/14/2020,17059.0,WA ASSN OF REALTORS,6000.0,0.0,6000.0,0.0,0.0,0.0,0.0,0.0,0.0,0.0,6000.0,18459.0,Direct,,,View report (https://accesshub.pdc.wa.gov/node/73282),Business and consumer affairs,Growth Management; taxation; housing; water,S. Local Gov; H. Enviro; S. Finance; S. Ways & Means
80238,73157-29242,73157,FE,17597,PIERCE CONSULTING SVCS LLC*,Employer,29242,WA CHARTERS ACTION,20-Nov,12/14/2020,17071.0,WA CHARTERS ACTION,3750.0,0.0,3750.0,100.0,0.0,0.0,0.0,0.0,0.0,100.0,3850.0,29242.0,Direct,,,View report (https://accesshub.pdc.wa.gov/node/73157),Education,various,various
80239,71487-44833,71487,FE,44832,Mitch Price,Employer,44833,WA CHARTERS ACTION,20-Sep,12/14/2020,17071.0,WA CHARTERS ACTION,461.19,0.0,461.19,0.0,0.0,0.0,0.0,0.0,0.0,0.0,461.19,44833.0,Direct,,,View report (https://accesshub.pdc.wa.gov/node/71487),Education,various,various
80240,72274-44833,72274,FE,44832,Mitch Price,Employer,44833,WA CHARTERS ACTION,20-Oct,12/14/2020,17071.0,WA CHARTERS ACTION,307.46,0.0,307.46,0.0,0.0,0.0,0.0,0.0,0.0,0.0,307.46,44833.0,Direct,,,View report (https://accesshub.pdc.wa.gov/node/72274),Education,various,various
80241,65664-44842,65664,FE,44841,Patrick D'Amelio,Employer,44842,WA CHARTERS ACTION,20-Feb,12/14/2020,17071.0,WA CHARTERS ACTION,339.18,0.0,339.18,0.0,0.0,0.0,0.0,0.0,0.0,0.0,339.18,44842.0,Direct,,,View report (https://accesshub.pdc.wa.gov/node/65664),Education,various,various
80242,70541-44842,70541,FE,44841,Patrick D'Amelio,Employer,44842,WA CHARTERS ACTION,20-Aug,12/14/2020,17071.0,WA CHARTERS ACTION,339.18,0.0,339.18,0.0,0.0,0.0,0.0,0.0,0.0,0.0,339.18,44842.0,Direct,,,View report (https://accesshub.pdc.wa.gov/node/70541),,,
80243,73115-44842,73115,FE,44841,Patrick D'Amelio,Employer,44842,WA CHARTERS ACTION,20-Nov,12/14/2020,17071.0,WA CHARTERS ACTION,850.35,0.0,850.35,0.0,0.0,0.0,0.0,0.0,0.0,0.0,850.35,44842.0,Direct,,,View report (https://accesshub.pdc.wa.gov/node/73115),,,
80244,72275-70965,72275,FE,70964,Natalie Hester,Employer,70965,WA CHARTERS ACTION,20-Oct,12/14/2020,17071.0,WA CHARTERS ACTION,1254.08,0.0,1254.08,0.0,0.0,0.0,0.0,0.0,0.0,0.0,1254.08,70965.0,Direct,,,View report (https://accesshub.pdc.wa.gov/node/72275),Education,various,various
80245,72436-71915,72436,FE,17553,JESSICA FORTESCUE,Employer,71915,WA CHARTERS ACTION,20-Oct,12/14/2020,17071.0,WA CHARTERS ACTION,3000.0,0.0,3000.0,0.0,0.0,0.0,0.0,0.0,0.0,0.0,3000.0,71915.0,Direct,,,View report (https://accesshub.pdc.wa.gov/node/72436),Education,Education,"Education, fiscal"
80246,73237-71915,73237,FE,17553,JESSICA FORTESCUE,Employer,71915,WA CHARTERS ACTION,20-Nov,12/14/2020,17071.0,WA CHARTERS ACTION,3000.0,0.0,3000.0,0.0,0.0,0.0,0.0,0.0,0.0,0.0,3000.0,71915.0,Direct,,,View report (https://accesshub.pdc.wa.gov/node/73237),Education,Education,"Education, fiscal"
80247,73260-19887,73260,FE,18088,White Tudor LLC,Employer,19887,WA ASSN FOR COMMUNITY HEALTH,20-Nov,12/14/2020,17084.0,WA ASSN FOR COMMUNITY HEALTH,7000.0,0.0,7000.0,0.0,0.0,0.0,0.0,0.0,0.0,0.0,7000.0,19887.0,Direct,,,View report (https://accesshub.pdc.wa.gov/node/73260),Health Care,many,"HCA, DOH, legislature"
80251,72762-18685,72762,FE,17531,EVERGREEN PUBLIC AFFAIRS LLC*,Employer,18685,WA ASSN OF DRUG COURTS,20-Nov,12/14/2020,17094.0,WA ASSN OF DRUG COURTS,250.0,0.0,250.0,0.0,0.0,0.0,0.0,0.0,0.0,0.0,250.0,18685.0,Direct,,,View report (https://accesshub.pdc.wa.gov/node/72762),Fiscal,criminal justice treatment account,Governor's Office
80252,73157-18897,73157,FE,17597,PIERCE CONSULTING SVCS LLC*,Employer,18897,Delta Dental of WA,20-Nov,12/14/2020,17096.0,Delta Dental of WA,3000.0,-294.99,2705.01,0.0,0.0,0.0,0.0,0.0,0.0,0.0,2705.01,18897.0,Direct,,,View report (https://accesshub.pdc.wa.gov/node/73157),Health Care,various,various
80253,72436-20010,72436,FE,17553,JESSICA FORTESCUE,Employer,20010,Delta Dental of WA (PIERCE CONSULTING SVCS LLC*),20-Oct,12/14/2020,17096.0,Delta Dental of WA,294.99,0.0,294.99,0.0,0.0,0.0,0.0,0.0,0.0,0.0,294.99,20010.0,Subcontract,17597.0,PIERCE CONSULTING SVCS LLC*,View report (https://accesshub.pdc.wa.gov/node/72436),,,
80254,73237-20010,73237,FE,17553,JESSICA FORTESCUE,Employer,20010,Delta Dental of WA (PIERCE CONSULTING SVCS LLC*),20-Nov,12/14/2020,17096.0,Delta Dental of WA,294.99,0.0,294.99,0.0,0.0,0.0,0.0,0.0,0.0,0.0,294.99,20010.0,Subcontract,17597.0,PIERCE CONSULTING SVCS LLC*,View report (https://accesshub.pdc.wa.gov/node/73237),,,
80255,73291-63096,73291,FE,17635,Tammie Hetrick,Employer,63096,WA FOOD INDUSTRY,20-Nov,12/14/2020,17117.0,WA FOOD INDUSTRY,3000.0,0.0,3000.0,0.0,0.0,0.0,0.0,0.0,0.0,0.0,3000.0,63096.0,Direct,,,View report (https://accesshub.pdc.wa.gov/node/73291),Labor,Unemployment. Covid,"ESD, labor leg committee and Governor’s office"
80256,73157-18899,73157,FE,17597,PIERCE CONSULTING SVCS LLC*,Employer,18899,WA FOREST PROTECTION ASSN,20-Nov,12/14/2020,17120.0,WA FOREST PROTECTION ASSN,2000.0,-196.66,1803.34,100.0,0.0,0.0,0.0,0.0,0.0,100.0,1903.34,18899.0,Direct,,,View report (https://accesshub.pdc.wa.gov/node/73157),Environmental Affairs - natural resources - parks,various,various
80257,73290-45577,73290,FE,45576,Terri Standish-Kuon,Employer,45577,INDEPENDENT COLLEGES OF WASHINGTON,20-Nov,12/14/2020,17133.0,INDEPENDENT COLLEGES OF WASHINGTON,351.0,0.0,351.0,0.0,0.0,0.0,0.0,0.0,0.0,0.0,351.0,45577.0,Direct,,,View report (https://accesshub.pdc.wa.gov/node/73290),Education,Higher Education,"J.Aultman, M. Meotti, L. Fehrenbach, C. Fotinos,	M. Mulvihill	Sen Conway C. Fotinos J. Aultman, L. Fehrenback S. Conway"
80258,73121-18329,73121,FE,17416,BETTY BUCKLEY,Employer,18329,WA INDEPENDENT TELECOMMUNICATIONS ASSN,20-Nov,12/14/2020,17138.0,WA INDEPENDENT TELECOMMUNICATIONS ASSN,500.0,0.0,500.0,0.0,0.0,0.0,0.0,0.0,0.0,0.0,500.0,18329.0,Direct,,,View report (https://accesshub.pdc.wa.gov/node/73121),Technology,various,various
80259,72436-27760,72436,FE,17553,JESSICA FORTESCUE,Employer,27760,Washington Mortgage Bankers Association,20-Oct,12/14/2020,17147.0,Washington Mortgage Bankers Association,2500.0,0.0,2500.0,0.0,0.0,0.0,0.0,0.0,0.0,0.0,2500.0,27760.0,Direct,,,View report (https://accesshub.pdc.wa.gov/node/72436),Financial institutions and insurance,"Banking, Housing","Fiscal, DFI, DOR"
80260,73237-27760,73237,FE,17553,JESSICA FORTESCUE,Employer,27760,Washington Mortgage Bankers Association,20-Nov,12/14/2020,17147.0,Washington Mortgage Bankers Association,2500.0,0.0,2500.0,0.0,0.0,0.0,0.0,0.0,0.0,0.0,2500.0,27760.0,Direct,,,View report (https://accesshub.pdc.wa.gov/node/73237),Financial institutions and insurance,"Banking, Housing","Fiscal, DFI, DOR"
80261,73260-19888,73260,FE,18088,White Tudor LLC,Employer,19888,WA OCCUPATIONAL THERAPY ASSN,20-Nov,12/14/2020,17161.0,WA OCCUPATIONAL THERAPY ASSN,3000.0,0.0,3000.0,0.0,0.0,0.0,0.0,0.0,0.0,0.0,3000.0,19888.0,Direct,,,View report (https://accesshub.pdc.wa.gov/node/73260),Health Care,varied,legislature
80262,73280-18652,73280,FE,17520,Emerick & Bloom,Employer,18652,Home Care Association of America,20-Nov,12/14/2020,17168.0,Home Care Association of America,2000.0,0.0,2000.0,0.0,0.0,0.0,0.0,0.0,0.0,0.0,2000.0,18652.0,Direct,,,View report (https://accesshub.pdc.wa.gov/node/73280),Health Care,Home Care,"DOH, DSHS"
80263,73282-18460,73282,FE,17453,Bill Clarke,Employer,18460,WA PUBLIC UTILITIES DISTS ASSN,20-Nov,12/14/2020,17176.0,WA PUBLIC UTILITIES DISTS ASSN,5750.0,0.0,5750.0,100.0,0.0,0.0,0.0,0.0,0.0,100.0,5850.0,18460.0,Direct,,,View report (https://accesshub.pdc.wa.gov/node/73282),Energy and utilities,Water rights; energy; telecommunications; infrastructure,S. Ag & Water; H. Ag & Nat. Resources; S. Enviro; H. Cap. Budget; S. Ways & Means
80264,73157-18901,73157,FE,17597,PIERCE CONSULTING SVCS LLC*,Employer,18901,WA ROUNDTABLE,20-Nov,12/14/2020,17178.0,WA ROUNDTABLE,2175.0,-213.86,1961.14,0.0,0.0,0.0,0.0,0.0,0.0,0.0,1961.14,18901.0,Direct,,,View report (https://accesshub.pdc.wa.gov/node/73157),Business and consumer affairs,various,various
80265,72436-19949,72436,FE,17553,JESSICA FORTESCUE,Employer,19949,WA ROUNDTABLE (PIERCE CONSULTING SVCS LLC*),20-Oct,12/14/2020,17178.0,WA ROUNDTABLE,213.86,0.0,213.86,0.0,0.0,0.0,0.0,0.0,0.0,0.0,213.86,19949.0,Subcontract,17597.0,PIERCE CONSULTING SVCS LLC*,View report (https://accesshub.pdc.wa.gov/node/72436),,,
80266,73237-19949,73237,FE,17553,JESSICA FORTESCUE,Employer,19949,WA ROUNDTABLE (PIERCE CONSULTING SVCS LLC*),20-Nov,12/14/2020,17178.0,WA ROUNDTABLE,213.86,0.0,213.86,0.0,0.0,0.0,0.0,0.0,0.0,0.0,213.86,19949.0,Subcontract,17597.0,PIERCE CONSULTING SVCS LLC*,View report (https://accesshub.pdc.wa.gov/node/73237),,,
80267,73089-19759,73089,FE,18021,LISA THATCHER,Employer,19759,WA SOCIETY OF CPA'S,20-Nov,12/14/2020,17188.0,WA SOCIETY OF CPA'S,6000.0,0.0,6000.0,0.0,0.0,0.0,0.0,0.0,0.0,0.0,6000.0,19759.0,Direct,,,View report (https://accesshub.pdc.wa.gov/node/73089),Business and consumer affairs,professional issues that impact CPA's,Department of Revenue
80268,72436-39303,72436,FE,17553,JESSICA FORTESCUE,Employer,39303,THE WASHINGTON TREASURER'S OFFICE (MCBRIDE PUBLIC AFFAIRS LLC*),20-Oct,12/14/2020,17204.0,THE WASHINGTON TREASURER'S OFFICE,2500.0,0.0,2500.0,0.0,0.0,0.0,0.0,0.0,0.0,0.0,2500.0,39303.0,Subcontract,17779.0,MCBRIDE PUBLIC AFFAIRS LLC*,View report (https://accesshub.pdc.wa.gov/node/72436),,,
80269,73237-39303,73237,FE,17553,JESSICA FORTESCUE,Employer,39303,THE WASHINGTON TREASURER'S OFFICE (MCBRIDE PUBLIC AFFAIRS LLC*),20-Nov,12/14/2020,17204.0,THE WASHINGTON TREASURER'S OFFICE,2500.0,0.0,2500.0,0.0,0.0,0.0,0.0,0.0,0.0,0.0,2500.0,39303.0,Subcontract,17779.0,MCBRIDE PUBLIC AFFAIRS LLC*,View report (https://accesshub.pdc.wa.gov/node/73237),,,
80270,73157-18902,73157,FE,17597,PIERCE CONSULTING SVCS LLC*,Employer,18902,WA WHOLESALE DRUGGIST ASSN,20-Nov,12/14/2020,17208.0,WA WHOLESALE DRUGGIST ASSN,2750.0,-270.4,2479.6,0.0,0.0,0.0,0.0,0.0,0.0,0.0,2479.6,18902.0,Direct,,,View report (https://accesshub.pdc.wa.gov/node/73157),Health Care,various,various
80271,72436-19995,72436,FE,17553,JESSICA FORTESCUE,Employer,19995,WA WHOLESALE DRUGGIST ASSN (PIERCE CONSULTING SVCS LLC*),20-Oct,12/14/2020,17208.0,WA WHOLESALE DRUGGIST ASSN,270.4,0.0,270.4,0.0,0.0,0.0,0.0,0.0,0.0,0.0,270.4,19995.0,Subcontract,17597.0,PIERCE CONSULTING SVCS LLC*,View report (https://accesshub.pdc.wa.gov/node/72436),,,
80272,73237-19995,73237,FE,17553,JESSICA FORTESCUE,Employer,19995,WA WHOLESALE DRUGGIST ASSN (PIERCE CONSULTING SVCS LLC*),20-Nov,12/14/2020,17208.0,WA WHOLESALE DRUGGIST ASSN,270.4,0.0,270.4,0.0,0.0,0.0,0.0,0.0,0.0,0.0,270.4,19995.0,Subcontract,17597.0,PIERCE CONSULTING SVCS LLC*,View report (https://accesshub.pdc.wa.gov/node/73237),,,
80273,73284-39387,73284,FE,39386,Teresa Taylor,Employer,39387,WA ST COUNCIL OF POLICE & SHERIFFS,20-Nov,12/14/2020,17236.0,WA ST COUNCIL OF POLICE & SHERIFFS,2500.0,0.0,2500.0,0.0,0.0,0.0,0.0,0.0,0.0,0.0,2500.0,39387.0,Direct,,,View report (https://accesshub.pdc.wa.gov/node/73284),Law and justice,Law and Justice,Senate Law & Justice Committee; House Public Safety Committee
80275,73202-19654,73202,FE,17982,ZOSIA E STANLEY,Employer,19654,WA ST HOSPITAL ASSN,20-Nov,12/14/2020,17252.0,WA ST HOSPITAL ASSN,650.0,0.0,650.0,0.0,0.0,0.0,0.0,0.0,0.0,0.0,650.0,19654.0,Direct,,,View report (https://accesshub.pdc.wa.gov/node/73202),Health Care,Hospital issues,"DSHS, HCA, DOH"
80276,73089-19760,73089,FE,18021,LISA THATCHER,Employer,19760,WA ST HOSPITAL ASSN,20-Nov,12/14/2020,17252.0,WA ST HOSPITAL ASSN,10500.0,0.0,10500.0,0.0,0.0,0.0,0.0,0.0,0.0,0.0,10500.0,19760.0,Direct,,,View report (https://accesshub.pdc.wa.gov/node/73089),Health Care,Hospital specific issues,Dept of Health; Dept of Ecology; Dept of L&I; HCA
80277,73280-18653,73280,FE,17520,Emerick & Bloom,Employer,18653,WA ST HOSPICE & PALLIATIVE CARE ORG,20-Nov,12/14/2020,17255.0,WA ST HOSPICE & PALLIATIVE CARE ORG,4000.0,0.0,4000.0,0.0,0.0,0.0,0.0,0.0,0.0,0.0,4000.0,18653.0,Direct,,,View report (https://accesshub.pdc.wa.gov/node/73280),Health Care,Hospice,"DOH, HCA, DSHS"
80279,73277-55723,73277,FE,55722,Billie Dickinson,Employer,55723,WA ST MEDICAL ASSN,20-Nov,12/14/2020,17261.0,WA ST MEDICAL ASSN,541.67,0.0,541.67,0.0,0.0,0.0,0.0,0.0,0.0,0.0,541.67,55723.0,Direct,,,View report (https://accesshub.pdc.wa.gov/node/73277),Health Care,Various,Various
80280,73238-60411,73238,FE,59611,Alex Wehinger,Employer,60411,WA ST MEDICAL ASSN,20-Nov,12/14/2020,17261.0,WA ST MEDICAL ASSN,1100.0,0.0,1100.0,0.0,0.0,0.0,0.0,0.0,0.0,0.0,1100.0,60411.0,Direct,,,View report (https://accesshub.pdc.wa.gov/node/73238),Health Care,Various,Various
80283,72449-19093,72449,FE,17710,TERRY KOHL,Employer,19093,WA ST SNOWMOBILE ASSN,20-Nov,12/14/2020,17282.0,WA ST SNOWMOBILE ASSN,854.17,0.0,854.17,0.0,0.0,0.0,0.0,0.0,0.0,0.0,854.17,19093.0,Direct,,,View report (https://accesshub.pdc.wa.gov/node/72449),Environmental Affairs - natural resources - parks,Snowmobile Recreation,HS SEN Labor Commerce Healthcare DOL DOH
80284,73285-19093,73285,FE,17710,TERRY KOHL,Employer,19093,WA ST SNOWMOBILE ASSN,20-Oct,12/14/2020,17282.0,WA ST SNOWMOBILE ASSN,854.17,0.0,854.17,0.0,0.0,0.0,0.0,0.0,0.0,0.0,854.17,19093.0,Direct,,,View report (https://accesshub.pdc.wa.gov/node/73285),Environmental Affairs - natural resources - parks,Snowmobile Recreation,HS SEN Labor Commerce Healthcare DOL DOH
80285,72449-19094,72449,FE,17710,TERRY KOHL,Employer,19094,WA ST SELF STORAGE ASSN,20-Nov,12/14/2020,17287.0,WA ST SELF STORAGE ASSN,1245.83,0.0,1245.83,0.0,0.0,0.0,0.0,0.0,0.0,0.0,1245.83,19094.0,Direct,,,View report (https://accesshub.pdc.wa.gov/node/72449),Business and consumer affairs,Real Estate Self Storage Law,HS SEN Judicial Commerce Labor HS Business Finance
80286,73285-19094,73285,FE,17710,TERRY KOHL,Employer,19094,WA ST SELF STORAGE ASSN,20-Oct,12/14/2020,17287.0,WA ST SELF STORAGE ASSN,1245.83,0.0,1245.83,0.0,0.0,0.0,0.0,0.0,0.0,0.0,1245.83,19094.0,Direct,,,View report (https://accesshub.pdc.wa.gov/node/73285),Business and consumer affairs,Real Estate Self Storage Law,HS SEN Judicial Commerce Labor HS Business Finance
80287,73282-18461,73282,FE,17453,Bill Clarke,Employer,18461,REGIONAL WATER COOPERATIVE OF PIERCE CO,20-Nov,12/14/2020,17293.0,REGIONAL WATER COOPERATIVE OF PIERCE CO,3750.0,0.0,3750.0,100.0,0.0,0.0,0.0,0.0,0.0,100.0,3850.0,18461.0,Direct,,,View report (https://accesshub.pdc.wa.gov/node/73282),Energy and utilities,Water rights; infrastructure,S. Ag & Water; H. Ag & Natural Resources; H. Capital Budget; S. Ways & Means
80288,73282-18462,73282,FE,17453,Bill Clarke,Employer,18462,AG WATER BOARD OF WHATCOM COUNTY,20-Nov,12/14/2020,17306.0,AG WATER BOARD OF WHATCOM COUNTY,2000.0,0.0,2000.0,0.0,0.0,0.0,0.0,0.0,0.0,0.0,2000.0,18462.0,Direct,,,View report (https://accesshub.pdc.wa.gov/node/73282),Environmental Affairs - natural resources - parks,Water and Infrastructure,S. Ag Water; H. Ag Natural Resources
80289,73280-72224,73280,FE,17520,Emerick & Bloom,Employer,72224,Yakima Valley Memorial Hospital Association,20-Nov,12/14/2020,17321.0,Yakima Valley Memorial Hospital Association,2500.0,0.0,2500.0,0.0,0.0,0.0,0.0,0.0,0.0,0.0,2500.0,72224.0,Direct,,,View report (https://accesshub.pdc.wa.gov/node/73280),Health Care,Hospital Issues,"DOH, HCA"
80291,73089-48656,73089,FE,18021,LISA THATCHER,Employer,48656,Eastern Wa St Historical Society,20-Nov,12/14/2020,26027.0,Eastern Wa St Historical Society,3500.0,0.0,3500.0,0.0,0.0,0.0,0.0,0.0,0.0,0.0,3500.0,48656.0,Direct,,,View report (https://accesshub.pdc.wa.gov/node/73089),Fiscal,Operating and Capital Budgets,EIS; OFM
80292,73266-33677,73266,FE,17977,SOUND VIEW STRATEGIES LLC*,Employer,33677,City of Medina,20-Nov,12/14/2020,26873.0,City of Medina,3000.0,-2000.0,1000.0,0.0,0.0,0.0,0.0,0.0,0.0,0.0,1000.0,33677.0,Direct,,,View report (https://accesshub.pdc.wa.gov/node/73266),Transportation,Transportation Issues,DOT
80293,73089-26749,73089,FE,18021,LISA THATCHER,Employer,26749,The Northwest Seaport Alliance,20-Nov,12/14/2020,28007.0,The Northwest Seaport Alliance,5000.0,0.0,5000.0,0.0,0.0,0.0,0.0,0.0,0.0,0.0,5000.0,26749.0,Direct,,,View report (https://accesshub.pdc.wa.gov/node/73089),Fiscal,MTCA Funding,Department of Ecology
80294,73282-29417,73282,FE,17453,Bill Clarke,Employer,29417,1-800 CONTACTS,20-Nov,12/14/2020,29415.0,1-800 CONTACTS,5000.0,-2500.0,2500.0,0.0,0.0,0.0,0.0,0.0,0.0,0.0,2500.0,29417.0,Direct,,,View report (https://accesshub.pdc.wa.gov/node/73282),Health Care,Eye Care,Senate Health Care; House Health Care
80295,73282-32049,73282,FE,17453,Bill Clarke,Employer,32049,Renewable Energy Group,20-Nov,12/14/2020,30764.0,Renewable Energy Group,8000.0,0.0,8000.0,0.0,0.0,0.0,0.0,0.0,0.0,0.0,8000.0,32049.0,Direct,,,View report (https://accesshub.pdc.wa.gov/node/73282),Environmental Affairs - natural resources - parks,Environmental,S. Environment Energy & Telecom; H. Environment
80296,73157-30933,73157,FE,17597,PIERCE CONSULTING SVCS LLC*,Employer,30933,Washington State Opportunity Scholarship,20-Nov,12/14/2020,30931.0,Washington State Opportunity Scholarship,2000.0,-196.66,1803.34,0.0,0.0,0.0,0.0,0.0,0.0,0.0,1803.34,30933.0,Direct,,,View report (https://accesshub.pdc.wa.gov/node/73157),Higher education,various,various
80297,73117-49884,73117,FE,17950,SEIB POLICY & PUBLIC AFFAIRS*,Employer,49884,Vancouver Clinic,20-Nov,12/14/2020,38259.0,Vancouver Clinic,4500.0,-1250.0,3250.0,0.0,0.0,0.0,0.0,0.0,0.0,0.0,3250.0,49884.0,Direct,,,View report (https://accesshub.pdc.wa.gov/node/73117),Health Care,various,various
80298,73089-38359,73089,FE,18021,LISA THATCHER,Employer,38359,KITSAP PUD 01,20-Nov,12/14/2020,38358.0,KITSAP PUD 01,2000.0,0.0,2000.0,0.0,0.0,0.0,0.0,0.0,0.0,0.0,2000.0,38359.0,Direct,,,View report (https://accesshub.pdc.wa.gov/node/73089),Energy and utilities,Energy and utility issues,Dept of Commerce; Dept of Ecology
80299,73276-39189,73276,FE,17666,ALEX HUR,Employer,39189,Northwest Education Access,20-Nov,12/14/2020,39188.0,Northwest Education Access,3000.0,0.0,3000.0,0.0,0.0,0.0,0.0,0.0,0.0,0.0,3000.0,39189.0,Direct,,,View report (https://accesshub.pdc.wa.gov/node/73276),Higher education,Higher Ed,"Higher Education, Approps, Ways and Means"
80301,73089-70353,73089,FE,18021,LISA THATCHER,Employer,70353,National Council of State Boards of Nursing,20-Nov,12/14/2020,45163.0,National Council of State Boards of Nursing,6000.0,0.0,6000.0,0.0,0.0,0.0,0.0,0.0,0.0,0.0,6000.0,70353.0,Direct,,,View report (https://accesshub.pdc.wa.gov/node/73089),Health Care,Interstate Nurse Compact,Department of Health
80305,73117-51462,73117,FE,17950,SEIB POLICY & PUBLIC AFFAIRS*,Employer,51462,LifePoint Health,20-Nov,12/14/2020,49203.0,LifePoint Health,6000.0,0.0,6000.0,0.0,0.0,0.0,0.0,0.0,0.0,0.0,6000.0,51462.0,Direct,,,View report (https://accesshub.pdc.wa.gov/node/73117),Health Care,various,various
80307,73120-64785,73120,FE,17472,AHNE PLLC*,Employer,64785,Skagit County,20-Nov,12/14/2020,50955.0,Skagit County,4416.67,0.0,4416.67,0.0,0.0,0.0,0.0,0.0,0.0,0.0,4416.67,64785.0,Direct,,,View report (https://accesshub.pdc.wa.gov/node/73120),Transportation,various,various
80308,73260-58037,73260,FE,18088,White Tudor LLC,Employer,58037,Ashley House,20-Nov,12/14/2020,51022.0,Ashley House,3500.0,0.0,3500.0,0.0,0.0,0.0,0.0,0.0,0.0,0.0,3500.0,58037.0,Direct,,,View report (https://accesshub.pdc.wa.gov/node/73260),Health Care,capital budget,OFM and legislature
80309,73276-71057,73276,FE,17666,ALEX HUR,Employer,71057,Rivian Automotive LLC,20-Nov,12/14/2020,52004.0,Rivian Automotive LLC,3500.0,0.0,3500.0,0.0,0.0,0.0,0.0,0.0,0.0,0.0,3500.0,71057.0,Direct,,,View report (https://accesshub.pdc.wa.gov/node/73276),Business and consumer affairs,Electric Vehicles,"Business and consumer affairs, labor and commerce"
80310,73111-53890,73111,FE,17329,"Advocates, Inc.",Employer,53890,MoneyTree Inc (Thru MultiState),20-Nov,12/14/2020,53889.0,MoneyTree Inc (Thru MultiState),1666.67,0.0,1666.67,0.0,0.0,0.0,0.0,0.0,0.0,0.0,1666.67,53890.0,Direct,,,View report (https://accesshub.pdc.wa.gov/node/73111),Business and consumer affairs,various,various
80311,73276-53976,73276,FE,17666,ALEX HUR,Employer,53976,Postmates,20-Nov,12/14/2020,53975.0,Postmates,5000.0,0.0,5000.0,0.0,0.0,0.0,0.0,0.0,0.0,0.0,5000.0,53976.0,Direct,,,View report (https://accesshub.pdc.wa.gov/node/73276),Technology,"Data privacy, independent contractors","Innovation/Tech, Tech, Labor"
80312,73282-54814,73282,FE,17453,Bill Clarke,Employer,54814,Kittitas Reclamation District,20-Nov,12/14/2020,54813.0,Kittitas Reclamation District,4000.0,0.0,4000.0,100.0,0.0,0.0,0.0,0.0,0.0,100.0,4100.0,54814.0,Direct,,,View report (https://accesshub.pdc.wa.gov/node/73282),Environmental Affairs - natural resources - parks,Water Resources,H. Capital Budget; S. Ways & Means; H. Ag & Natural Resources; S. Ag Water & Natural Resources
80313,73119-58489,73119,FE,58479,Coaxis Public Affairs,Employer,58489,Maverick Gaming LLC,20-Nov,12/14/2020,58487.0,Maverick Gaming LLC,15000.0,-6000.0,9000.0,0.0,0.0,0.0,0.0,0.0,0.0,0.0,9000.0,58489.0,Direct,,,View report (https://accesshub.pdc.wa.gov/node/73119),Business and consumer affairs,various,various
80314,73276-62338,73276,FE,17666,ALEX HUR,Employer,62338,Group Health Foundation,20-Nov,12/14/2020,61438.0,Group Health Foundation,3055.0,0.0,3055.0,0.0,0.0,0.0,0.0,0.0,0.0,0.0,3055.0,62338.0,Direct,,,View report (https://accesshub.pdc.wa.gov/node/73276),,,
80315,73137-71037,73137,FE,71036,Anna Boone,Employer,71037,Zillow Group,20-Nov,12/14/2020,62547.0,Zillow Group,260.82,0.0,260.82,0.0,0.0,0.0,0.0,0.0,0.0,0.0,260.82,71037.0,Direct,,,View report (https://accesshub.pdc.wa.gov/node/73137),Technology,Privacy,"Senate Environment, Energy & Technology Committee; House Innovation, Technology & Economic Development Committee"
80318,73257-67956,73257,FE,62907,DLA Piper LLP (US),Employer,67956,State Privacy & Security Coalition,20-Nov,12/14/2020,65475.0,State Privacy & Security Coalition,26352.0,0.0,26352.0,0.0,0.0,0.0,0.0,0.0,0.0,0.0,26352.0,67956.0,Direct,,,View report (https://accesshub.pdc.wa.gov/node/73257),Technology,Washington Privacy Act,Senator Carlyle
80319,73289-66246,73289,FE,66187,The Holt Company,Employer,66246,"PeaceHealth Networks On Demand, LLC",20-Nov,12/14/2020,66198.0,"PeaceHealth Networks On Demand, LLC",720.0,0.0,720.0,0.0,0.0,0.0,0.0,0.0,0.0,0.0,720.0,66246.0,Direct,,,View report (https://accesshub.pdc.wa.gov/node/73289),Health Care,vaccine distribution planning,Department of Health
80320,73117-71093,73117,FE,17950,SEIB POLICY & PUBLIC AFFAIRS*,Employer,71093,Consumer Direct Care Network Washington LLC. (Silver Consulting),20-Nov,12/14/2020,71083.0,Consumer Direct Care Network Washington LLC.,3000.0,0.0,3000.0,0.0,0.0,0.0,0.0,0.0,0.0,0.0,3000.0,71093.0,Subcontract,49575.0,Silver Consulting,View report (https://accesshub.pdc.wa.gov/node/73117),,,
80321,73157-71254,73157,FE,17597,PIERCE CONSULTING SVCS LLC*,Employer,71254,Mary's Place,20-Nov,12/14/2020,71253.0,Mary's Place,1250.0,0.0,1250.0,0.0,0.0,0.0,0.0,0.0,0.0,0.0,1250.0,71254.0,Direct,,,View report (https://accesshub.pdc.wa.gov/node/73157),Human services,various,various
80322,72436-71332,72436,FE,17553,JESSICA FORTESCUE,Employer,71332,Mary's Place (PIERCE CONSULTING SVCS LLC*),20-Oct,12/14/2020,71253.0,Mary's Place,1250.0,0.0,1250.0,0.0,0.0,0.0,0.0,0.0,0.0,0.0,1250.0,71332.0,Subcontract,17597.0,PIERCE CONSULTING SVCS LLC*,View report (https://accesshub.pdc.wa.gov/node/72436),,,
80323,73237-71332,73237,FE,17553,JESSICA FORTESCUE,Employer,71332,Mary's Place (PIERCE CONSULTING SVCS LLC*),20-Nov,12/14/2020,71253.0,Mary's Place,1250.0,0.0,1250.0,0.0,0.0,0.0,0.0,0.0,0.0,0.0,1250.0,71332.0,Subcontract,17597.0,PIERCE CONSULTING SVCS LLC*,View report (https://accesshub.pdc.wa.gov/node/73237),,,
80324,73346-19910,73346,FE,18102,Bryce Yadon,Employer,19910,FUTUREWISE,20-Nov,12/15/2020,16054.0,FUTUREWISE,2500.0,0.0,2500.0,0.0,0.0,0.0,0.0,0.0,0.0,0.0,2500.0,19910.0,Direct,,,View report (https://accesshub.pdc.wa.gov/node/73346),Local government,Growth Management Act Updates,"Rep. Shewmake, Rep. Lekanoff, Department of Commerce, WSDOT,"
80325,73327-18599,73327,FE,17505,PATRICK DUNN & ASSOCIATES LTD*,Employer,18599,4000 PROPERTY LLC,20-Nov,12/15/2020,16056.0,4000 PROPERTY LLC,500.0,0.0,500.0,0.0,0.0,0.0,0.0,0.0,0.0,0.0,500.0,18599.0,Direct,,,View report (https://accesshub.pdc.wa.gov/node/73327),Business and consumer affairs,Taxes,"Commerce, Department of Revenue"
80326,70668-63014,70668,FE,17433,CARNEY BADLEY SPELLMAN*,Employer,63014,ABBOTT LABORATORIES,20-Aug,12/15/2020,16060.0,ABBOTT LABORATORIES,3333.34,0.0,3333.34,0.0,0.0,0.0,0.0,0.0,0.0,0.0,3333.34,63014.0,Direct,,,View report (https://accesshub.pdc.wa.gov/node/70668),Health Care,"HB 2360, HB 2496 - potentially others",Department of Ecology
80327,72468-63014,72468,FE,17433,CARNEY BADLEY SPELLMAN*,Employer,63014,ABBOTT LABORATORIES,20-Oct,12/15/2020,16060.0,ABBOTT LABORATORIES,3333.34,0.0,3333.34,0.0,0.0,0.0,0.0,0.0,0.0,0.0,3333.34,63014.0,Direct,,,View report (https://accesshub.pdc.wa.gov/node/72468),Health Care,"HB 2360, HB 2496 - potentially others",Department of Ecology
80328,73451-18490,73451,FE,17465,Coyne Jesernig LLC,Employer,18490,ALASKA AIRLINES,20-Nov,12/15/2020,16077.0,ALASKA AIRLINES,3000.0,0.0,3000.0,0.0,0.0,0.0,0.0,0.0,0.0,0.0,3000.0,18490.0,Direct,,,View report (https://accesshub.pdc.wa.gov/node/73451),Transportation,Real ID,H & S Transportation
80329,72976-19288,72976,FE,17813,MILLENNIA PUBLIC AFFAIRS INC*,Employer,19288,ALKERMES PLC,20-Nov,12/15/2020,16079.0,ALKERMES PLC,5000.0,0.0,5000.0,0.0,0.0,0.0,0.0,0.0,0.0,0.0,5000.0,19288.0,Direct,,,View report (https://accesshub.pdc.wa.gov/node/72976),Business and consumer affairs,Business & Consumer Affairs,House Senate All
80330,73398-19765,73398,FE,18027,ROWLAND THOMPSON,Employer,19765,ALLIED DAILY NEWSPAPERS OF WA,20-Nov,12/15/2020,16082.0,ALLIED DAILY NEWSPAPERS OF WA,4000.0,0.0,4000.0,161.2,92.11,0.0,0.0,0.0,0.0,253.31,4253.31,19765.0,Direct,,,View report (https://accesshub.pdc.wa.gov/node/73398),State government,Open government issues,State Government Committees and possibly all others and executive branch
80331,70668-18371,70668,FE,17433,CARNEY BADLEY SPELLMAN*,Employer,18371,ALLSTATE INSURANCE CO,20-Aug,12/15/2020,16085.0,ALLSTATE INSURANCE CO,4500.0,0.0,4500.0,0.0,0.0,3500.0,0.0,0.0,0.0,3500.0,8000.0,18371.0,Direct,,,View report (https://accesshub.pdc.wa.gov/node/70668),Business and consumer affairs,"Insurance, Taxation, Tort Issues Insurance, Taxation, Tort Issues",Senate FII Cmte; House BFS Cmte; Senate L&J Cmte; House Jud Cmte; Senate W/M Cmte; House Approp. Cmte; Ins. Comm
80332,72468-18371,72468,FE,17433,CARNEY BADLEY SPELLMAN*,Employer,18371,ALLSTATE INSURANCE CO,20-Oct,12/15/2020,16085.0,ALLSTATE INSURANCE CO,4500.0,0.0,4500.0,0.0,0.0,0.0,0.0,0.0,0.0,0.0,4500.0,18371.0,Direct,,,View report (https://accesshub.pdc.wa.gov/node/72468),Business and consumer affairs,"Insurance, Taxation, Tort Issues Insurance, Taxation, Tort Issues",Senate FII Cmte; House BFS Cmte; Senate L&J Cmte; House Jud Cmte; Senate W/M Cmte; House Approp. Cmte; Ins. Comm
80333,73337-18131,73337,FE,17336,ALLIANCES NORTHWEST*,Employer,18131,AMAZON.COM SERVICES LLC,20-Nov,12/15/2020,16088.0,AMAZON.COM SERVICES LLC,15000.0,0.0,15000.0,0.0,0.0,0.0,0.0,0.0,0.0,0.0,15000.0,18131.0,Direct,,,View report (https://accesshub.pdc.wa.gov/node/73337),Technology,"Subject Matter, Issue, or Bill Number -- All matters relating to business, commercial development, the environment, internet, insurance, finance, retail, tax and transportation issues.","2) Legislative Committee or State Agency Considering Matter -- All committees of the Legislature, the Executive, CTED, DOE, DOH, DOR, DFI, DOT, DSHS, DNR, GA, the and the Secretary of State."
80334,73348-50723,73348,FE,50721,Enoka Herat,Employer,50723,AMERICAN CIVIL LIBERTIES UNION OF WA,20-Nov,12/15/2020,16097.0,AMERICAN CIVIL LIBERTIES UNION OF WA,411.3,0.0,411.3,0.0,0.0,0.0,0.0,0.0,0.0,0.0,411.3,50723.0,Direct,,,View report (https://accesshub.pdc.wa.gov/node/73348),Law and justice,policing,Rep. Johnson
