,id,report_number,origin,filer_id,filer_name,type,funding_source_id,funding_source_name,filing_period,receipt_date,employer_id,employer_name,compensation,sub_lobbyist_compensation,net_compensation,personal_expenses,entertainment,contributions,advertising,political_ads,other,total_expenses,net_total,employment_registration_id,employment_type,contractor_id,contractor_name,url,legislation_subject_matter,issue_bill_number,committee_lobbied
10000,26782-19937,26782,FE,17992,STEWART GOVERNMENT AFFAIRS,Employer,19937,AMERICAN MASSAGE THERAPY ASSN- WA CHAPTER (MELANIE STEWART & ASSOC LLC*),16-Sep,11/8/2016,16115.0,AMERICAN MASSAGE THERAPY ASSN- WA CHAPTER,300.0,0.0,300.0,0.0,0.0,0.0,0.0,0.0,0.0,0.0,300.0,19937.0,Subcontract,17991.0,MELANIE STEWART & ASSOC LLC*,View report (https://accesshub.pdc.wa.gov/node/26782),,,
10001,26788-18145,26788,FE,17339,Amber D Lewis Consulting LLC,Employer,18145,ASSISTED LIVING FEDERATION OF AMERICA,16-Oct,11/8/2016,16145.0,ASSISTED LIVING FEDERATION OF AMERICA,3500.0,0.0,3500.0,0.0,0.0,0.0,0.0,0.0,0.0,0.0,3500.0,18145.0,Direct,,,View report (https://accesshub.pdc.wa.gov/node/26788),Health Care,assisted living,health care committees
10004,26778-20063,26778,FE,17992,STEWART GOVERNMENT AFFAIRS,Employer,20063,THE COLLEGE BOARD (CHRISTOPHERSEN INC*),16-Jun,11/8/2016,16334.0,THE COLLEGE BOARD,375.0,0.0,375.0,0.0,0.0,0.0,0.0,0.0,0.0,0.0,375.0,20063.0,Subcontract,17348.0,CHRISTOPHERSEN INC*,View report (https://accesshub.pdc.wa.gov/node/26778),,,
10005,26779-20063,26779,FE,17992,STEWART GOVERNMENT AFFAIRS,Employer,20063,THE COLLEGE BOARD (CHRISTOPHERSEN INC*),16-Jul,11/8/2016,16334.0,THE COLLEGE BOARD,375.0,0.0,375.0,0.0,0.0,0.0,0.0,0.0,0.0,0.0,375.0,20063.0,Subcontract,17348.0,CHRISTOPHERSEN INC*,View report (https://accesshub.pdc.wa.gov/node/26779),,,
10006,26781-20063,26781,FE,17992,STEWART GOVERNMENT AFFAIRS,Employer,20063,THE COLLEGE BOARD (CHRISTOPHERSEN INC*),16-Aug,11/8/2016,16334.0,THE COLLEGE BOARD,375.0,0.0,375.0,0.0,0.0,0.0,0.0,0.0,0.0,0.0,375.0,20063.0,Subcontract,17348.0,CHRISTOPHERSEN INC*,View report (https://accesshub.pdc.wa.gov/node/26781),,,
10007,26782-20063,26782,FE,17992,STEWART GOVERNMENT AFFAIRS,Employer,20063,THE COLLEGE BOARD (CHRISTOPHERSEN INC*),16-Sep,11/8/2016,16334.0,THE COLLEGE BOARD,375.0,0.0,375.0,0.0,0.0,0.0,0.0,0.0,0.0,0.0,375.0,20063.0,Subcontract,17348.0,CHRISTOPHERSEN INC*,View report (https://accesshub.pdc.wa.gov/node/26782),,,
10009,26788-18147,26788,FE,17339,Amber D Lewis Consulting LLC,Employer,18147,DB3,16-Oct,11/8/2016,16382.0,DB3,2000.0,0.0,2000.0,0.0,0.0,0.0,0.0,0.0,0.0,0.0,2000.0,18147.0,Direct,,,View report (https://accesshub.pdc.wa.gov/node/26788),Business and consumer affairs,cannabis,WA LCB
10010,26778-19930,26778,FE,17992,STEWART GOVERNMENT AFFAIRS,Employer,19930,DIAGEO (MELANIE STEWART & ASSOC LLC*),16-Jun,11/8/2016,16387.0,DIAGEO,300.0,0.0,300.0,0.0,0.0,0.0,0.0,0.0,0.0,0.0,300.0,19930.0,Subcontract,17991.0,MELANIE STEWART & ASSOC LLC*,View report (https://accesshub.pdc.wa.gov/node/26778),,,
10011,26779-19930,26779,FE,17992,STEWART GOVERNMENT AFFAIRS,Employer,19930,DIAGEO (MELANIE STEWART & ASSOC LLC*),16-Jul,11/8/2016,16387.0,DIAGEO,300.0,0.0,300.0,0.0,0.0,0.0,0.0,0.0,0.0,0.0,300.0,19930.0,Subcontract,17991.0,MELANIE STEWART & ASSOC LLC*,View report (https://accesshub.pdc.wa.gov/node/26779),,,
10012,26781-19930,26781,FE,17992,STEWART GOVERNMENT AFFAIRS,Employer,19930,DIAGEO (MELANIE STEWART & ASSOC LLC*),16-Aug,11/8/2016,16387.0,DIAGEO,300.0,0.0,300.0,0.0,0.0,0.0,0.0,0.0,0.0,0.0,300.0,19930.0,Subcontract,17991.0,MELANIE STEWART & ASSOC LLC*,View report (https://accesshub.pdc.wa.gov/node/26781),,,
10013,26782-19930,26782,FE,17992,STEWART GOVERNMENT AFFAIRS,Employer,19930,DIAGEO (MELANIE STEWART & ASSOC LLC*),16-Sep,11/8/2016,16387.0,DIAGEO,300.0,0.0,300.0,0.0,0.0,0.0,0.0,0.0,0.0,0.0,300.0,19930.0,Subcontract,17991.0,MELANIE STEWART & ASSOC LLC*,View report (https://accesshub.pdc.wa.gov/node/26782),,,
10014,26778-19958,26778,FE,17992,STEWART GOVERNMENT AFFAIRS,Employer,19958,ELI LILLY & COMPANY (MELANIE STEWART & ASSOC LLC*),16-Jun,11/8/2016,16410.0,ELI LILLY & COMPANY,300.0,0.0,300.0,0.0,0.0,0.0,0.0,0.0,0.0,0.0,300.0,19958.0,Subcontract,17991.0,MELANIE STEWART & ASSOC LLC*,View report (https://accesshub.pdc.wa.gov/node/26778),,,
10015,26779-19958,26779,FE,17992,STEWART GOVERNMENT AFFAIRS,Employer,19958,ELI LILLY & COMPANY (MELANIE STEWART & ASSOC LLC*),16-Jul,11/8/2016,16410.0,ELI LILLY & COMPANY,300.0,0.0,300.0,0.0,0.0,0.0,0.0,0.0,0.0,0.0,300.0,19958.0,Subcontract,17991.0,MELANIE STEWART & ASSOC LLC*,View report (https://accesshub.pdc.wa.gov/node/26779),,,
10016,26781-19958,26781,FE,17992,STEWART GOVERNMENT AFFAIRS,Employer,19958,ELI LILLY & COMPANY (MELANIE STEWART & ASSOC LLC*),16-Aug,11/8/2016,16410.0,ELI LILLY & COMPANY,300.0,0.0,300.0,0.0,0.0,0.0,0.0,0.0,0.0,0.0,300.0,19958.0,Subcontract,17991.0,MELANIE STEWART & ASSOC LLC*,View report (https://accesshub.pdc.wa.gov/node/26781),,,
10017,26782-19958,26782,FE,17992,STEWART GOVERNMENT AFFAIRS,Employer,19958,ELI LILLY & COMPANY (MELANIE STEWART & ASSOC LLC*),16-Sep,11/8/2016,16410.0,ELI LILLY & COMPANY,300.0,0.0,300.0,0.0,0.0,0.0,0.0,0.0,0.0,0.0,300.0,19958.0,Subcontract,17991.0,MELANIE STEWART & ASSOC LLC*,View report (https://accesshub.pdc.wa.gov/node/26782),,,
10018,26778-20019,26778,FE,17992,STEWART GOVERNMENT AFFAIRS,Employer,20019,FRESENIUS MEDICAL CARE NORTH AMERICA (MELANIE STEWART & ASSOC LLC*),16-Jun,11/8/2016,16462.0,FRESENIUS MEDICAL CARE NORTH AMERICA,300.0,0.0,300.0,0.0,0.0,0.0,0.0,0.0,0.0,0.0,300.0,20019.0,Subcontract,17991.0,MELANIE STEWART & ASSOC LLC*,View report (https://accesshub.pdc.wa.gov/node/26778),,,
10019,26779-20019,26779,FE,17992,STEWART GOVERNMENT AFFAIRS,Employer,20019,FRESENIUS MEDICAL CARE NORTH AMERICA (MELANIE STEWART & ASSOC LLC*),16-Jul,11/8/2016,16462.0,FRESENIUS MEDICAL CARE NORTH AMERICA,300.0,0.0,300.0,0.0,0.0,0.0,0.0,0.0,0.0,0.0,300.0,20019.0,Subcontract,17991.0,MELANIE STEWART & ASSOC LLC*,View report (https://accesshub.pdc.wa.gov/node/26779),,,
10020,26781-20019,26781,FE,17992,STEWART GOVERNMENT AFFAIRS,Employer,20019,FRESENIUS MEDICAL CARE NORTH AMERICA (MELANIE STEWART & ASSOC LLC*),16-Aug,11/8/2016,16462.0,FRESENIUS MEDICAL CARE NORTH AMERICA,300.0,0.0,300.0,0.0,0.0,0.0,0.0,0.0,0.0,0.0,300.0,20019.0,Subcontract,17991.0,MELANIE STEWART & ASSOC LLC*,View report (https://accesshub.pdc.wa.gov/node/26781),,,
10021,26782-20019,26782,FE,17992,STEWART GOVERNMENT AFFAIRS,Employer,20019,FRESENIUS MEDICAL CARE NORTH AMERICA (MELANIE STEWART & ASSOC LLC*),16-Sep,11/8/2016,16462.0,FRESENIUS MEDICAL CARE NORTH AMERICA,300.0,0.0,300.0,0.0,0.0,0.0,0.0,0.0,0.0,0.0,300.0,20019.0,Subcontract,17991.0,MELANIE STEWART & ASSOC LLC*,View report (https://accesshub.pdc.wa.gov/node/26782),,,
10022,26788-18148,26788,FE,17339,Amber D Lewis Consulting LLC,Employer,18148,HUDSON GOVT AFFAIRS LLC,16-Oct,11/8/2016,16512.0,HUDSON GOVT AFFAIRS LLC,4000.0,0.0,4000.0,0.0,0.0,0.0,0.0,0.0,0.0,0.0,4000.0,18148.0,Direct,,,View report (https://accesshub.pdc.wa.gov/node/26788),Health Care,dental,health care committees
10023,26778-24866,26778,FE,17992,STEWART GOVERNMENT AFFAIRS,Employer,24866,JAKES FIREWORKS (BOSWELL CONSULTING*),16-Jun,11/8/2016,16556.0,JAKES FIREWORKS,500.0,0.0,500.0,0.0,0.0,0.0,0.0,0.0,0.0,0.0,500.0,24866.0,Subcontract,17398.0,BOSWELL CONSULTING*,View report (https://accesshub.pdc.wa.gov/node/26778),,,
10024,26779-24866,26779,FE,17992,STEWART GOVERNMENT AFFAIRS,Employer,24866,JAKES FIREWORKS (BOSWELL CONSULTING*),16-Jul,11/8/2016,16556.0,JAKES FIREWORKS,500.0,0.0,500.0,0.0,0.0,0.0,0.0,0.0,0.0,0.0,500.0,24866.0,Subcontract,17398.0,BOSWELL CONSULTING*,View report (https://accesshub.pdc.wa.gov/node/26779),,,
10025,26781-24866,26781,FE,17992,STEWART GOVERNMENT AFFAIRS,Employer,24866,JAKES FIREWORKS (BOSWELL CONSULTING*),16-Aug,11/8/2016,16556.0,JAKES FIREWORKS,500.0,0.0,500.0,0.0,0.0,0.0,0.0,0.0,0.0,0.0,500.0,24866.0,Subcontract,17398.0,BOSWELL CONSULTING*,View report (https://accesshub.pdc.wa.gov/node/26781),,,
10026,26782-24866,26782,FE,17992,STEWART GOVERNMENT AFFAIRS,Employer,24866,JAKES FIREWORKS (BOSWELL CONSULTING*),16-Sep,11/8/2016,16556.0,JAKES FIREWORKS,500.0,0.0,500.0,0.0,0.0,0.0,0.0,0.0,0.0,0.0,500.0,24866.0,Subcontract,17398.0,BOSWELL CONSULTING*,View report (https://accesshub.pdc.wa.gov/node/26782),,,
10027,26788-18149,26788,FE,17339,Amber D Lewis Consulting LLC,Employer,18149,LEWIS CO FIRE DIST 1,16-Oct,11/8/2016,16600.0,LEWIS CO FIRE DIST 1,1350.0,0.0,1350.0,0.0,0.0,0.0,0.0,0.0,0.0,0.0,1350.0,18149.0,Direct,,,View report (https://accesshub.pdc.wa.gov/node/26788),Fiscal,capital request,Capital Budget
10028,26788-19948,26788,FE,17339,Amber D Lewis Consulting LLC,Employer,19948,"NATIONAL GUARD ASSOC OF WA (Advocates, Inc.)",16-Oct,11/8/2016,16666.0,NATIONAL GUARD ASSOC OF WA,416.67,0.0,416.67,0.0,0.0,0.0,0.0,0.0,0.0,0.0,416.67,19948.0,Subcontract,17329.0,"Advocates, Inc.",View report (https://accesshub.pdc.wa.gov/node/26788),,,
10029,26788-18150,26788,FE,17339,Amber D Lewis Consulting LLC,Employer,18150,NATURAL EXTRACTIONS INC,16-Oct,11/8/2016,16678.0,NATURAL EXTRACTIONS INC,2000.0,0.0,2000.0,0.0,0.0,0.0,0.0,0.0,0.0,0.0,2000.0,18150.0,Direct,,,View report (https://accesshub.pdc.wa.gov/node/26788),Business and consumer affairs,cannabis,WA LCB
10030,26777-19187,26777,FE,17771,MARIE SULLIVAN PUBLIC AFFAIRS CORP.,Employer,19187,PASCO SCHOOL DIST,16-Oct,11/8/2016,16766.0,PASCO SCHOOL DIST,2500.0,0.0,2500.0,593.08,0.0,0.0,0.0,0.0,0.0,593.08,3093.08,19187.0,Direct,,,View report (https://accesshub.pdc.wa.gov/node/26777),Education,capital budget request,"16th district legislators, candidates"
10031,26778-20061,26778,FE,17992,STEWART GOVERNMENT AFFAIRS,Employer,20061,Pediatrix Medical Group (CHRISTOPHERSEN INC*),16-Jun,11/8/2016,16769.0,Pediatrix Medical Group,375.0,0.0,375.0,0.0,0.0,0.0,0.0,0.0,0.0,0.0,375.0,20061.0,Subcontract,17348.0,CHRISTOPHERSEN INC*,View report (https://accesshub.pdc.wa.gov/node/26778),,,
10032,26779-20061,26779,FE,17992,STEWART GOVERNMENT AFFAIRS,Employer,20061,Pediatrix Medical Group (CHRISTOPHERSEN INC*),16-Jul,11/8/2016,16769.0,Pediatrix Medical Group,375.0,0.0,375.0,0.0,0.0,0.0,0.0,0.0,0.0,0.0,375.0,20061.0,Subcontract,17348.0,CHRISTOPHERSEN INC*,View report (https://accesshub.pdc.wa.gov/node/26779),,,
10033,26781-20061,26781,FE,17992,STEWART GOVERNMENT AFFAIRS,Employer,20061,Pediatrix Medical Group (CHRISTOPHERSEN INC*),16-Aug,11/8/2016,16769.0,Pediatrix Medical Group,375.0,0.0,375.0,0.0,0.0,0.0,0.0,0.0,0.0,0.0,375.0,20061.0,Subcontract,17348.0,CHRISTOPHERSEN INC*,View report (https://accesshub.pdc.wa.gov/node/26781),,,
10034,26782-20061,26782,FE,17992,STEWART GOVERNMENT AFFAIRS,Employer,20061,Pediatrix Medical Group (CHRISTOPHERSEN INC*),16-Sep,11/8/2016,16769.0,Pediatrix Medical Group,375.0,0.0,375.0,0.0,0.0,0.0,0.0,0.0,0.0,0.0,375.0,20061.0,Subcontract,17348.0,CHRISTOPHERSEN INC*,View report (https://accesshub.pdc.wa.gov/node/26782),,,
10035,26778-20021,26778,FE,17992,STEWART GOVERNMENT AFFAIRS,Employer,20021,PIERCE CO ALLIANCE (MELANIE STEWART & ASSOC LLC*),16-Jun,11/8/2016,16782.0,PIERCE CO ALLIANCE,300.0,0.0,300.0,0.0,0.0,0.0,0.0,0.0,0.0,0.0,300.0,20021.0,Subcontract,17991.0,MELANIE STEWART & ASSOC LLC*,View report (https://accesshub.pdc.wa.gov/node/26778),,,
10036,26779-20021,26779,FE,17992,STEWART GOVERNMENT AFFAIRS,Employer,20021,PIERCE CO ALLIANCE (MELANIE STEWART & ASSOC LLC*),16-Jul,11/8/2016,16782.0,PIERCE CO ALLIANCE,300.0,0.0,300.0,0.0,0.0,0.0,0.0,0.0,0.0,0.0,300.0,20021.0,Subcontract,17991.0,MELANIE STEWART & ASSOC LLC*,View report (https://accesshub.pdc.wa.gov/node/26779),,,
10037,26781-20021,26781,FE,17992,STEWART GOVERNMENT AFFAIRS,Employer,20021,PIERCE CO ALLIANCE (MELANIE STEWART & ASSOC LLC*),16-Aug,11/8/2016,16782.0,PIERCE CO ALLIANCE,300.0,0.0,300.0,0.0,0.0,0.0,0.0,0.0,0.0,0.0,300.0,20021.0,Subcontract,17991.0,MELANIE STEWART & ASSOC LLC*,View report (https://accesshub.pdc.wa.gov/node/26781),,,
10038,26782-20021,26782,FE,17992,STEWART GOVERNMENT AFFAIRS,Employer,20021,PIERCE CO ALLIANCE (MELANIE STEWART & ASSOC LLC*),16-Sep,11/8/2016,16782.0,PIERCE CO ALLIANCE,300.0,0.0,300.0,0.0,0.0,0.0,0.0,0.0,0.0,0.0,300.0,20021.0,Subcontract,17991.0,MELANIE STEWART & ASSOC LLC*,View report (https://accesshub.pdc.wa.gov/node/26782),,,
10039,26788-18151,26788,FE,17339,Amber D Lewis Consulting LLC,Employer,18151,PORT OF CENTRALIA,16-Oct,11/8/2016,16795.0,PORT OF CENTRALIA,2500.0,0.0,2500.0,0.0,0.0,0.0,0.0,0.0,0.0,0.0,2500.0,18151.0,Direct,,,View report (https://accesshub.pdc.wa.gov/node/26788),Transportation,budget,Transportation and fiscal committees
10040,26789-18208,26789,FE,17359,CHRISTOPHER BANDOLI,Employer,18208,REGENCE BLUE SHIELD,16-Oct,11/8/2016,16849.0,REGENCE BLUE SHIELD,2500.0,0.0,2500.0,162.0,0.0,2500.0,0.0,0.0,0.0,2662.0,5162.0,18208.0,Direct,,,View report (https://accesshub.pdc.wa.gov/node/26789),Health Care,Insurance,Health Care Committees
10041,26777-19189,26777,FE,17771,MARIE SULLIVAN PUBLIC AFFAIRS CORP.,Employer,19189,Richland School District,16-Oct,11/8/2016,16860.0,Richland School District,2500.0,0.0,2500.0,0.0,0.0,0.0,0.0,0.0,0.0,0.0,2500.0,19189.0,Direct,,,View report (https://accesshub.pdc.wa.gov/node/26777),Education,school siting,House local government
10042,26778-20015,26778,FE,17992,STEWART GOVERNMENT AFFAIRS,Employer,20015,SPECTRUM HEALTH SYSTEMS (MELANIE STEWART & ASSOC LLC*),16-Jun,11/8/2016,16936.0,SPECTRUM HEALTH SYSTEMS,300.0,0.0,300.0,0.0,0.0,0.0,0.0,0.0,0.0,0.0,300.0,20015.0,Subcontract,17991.0,MELANIE STEWART & ASSOC LLC*,View report (https://accesshub.pdc.wa.gov/node/26778),,,
10043,26779-20015,26779,FE,17992,STEWART GOVERNMENT AFFAIRS,Employer,20015,SPECTRUM HEALTH SYSTEMS (MELANIE STEWART & ASSOC LLC*),16-Jul,11/8/2016,16936.0,SPECTRUM HEALTH SYSTEMS,300.0,0.0,300.0,0.0,0.0,0.0,0.0,0.0,0.0,0.0,300.0,20015.0,Subcontract,17991.0,MELANIE STEWART & ASSOC LLC*,View report (https://accesshub.pdc.wa.gov/node/26779),,,
10044,26781-20015,26781,FE,17992,STEWART GOVERNMENT AFFAIRS,Employer,20015,SPECTRUM HEALTH SYSTEMS (MELANIE STEWART & ASSOC LLC*),16-Aug,11/8/2016,16936.0,SPECTRUM HEALTH SYSTEMS,300.0,0.0,300.0,0.0,0.0,0.0,0.0,0.0,0.0,0.0,300.0,20015.0,Subcontract,17991.0,MELANIE STEWART & ASSOC LLC*,View report (https://accesshub.pdc.wa.gov/node/26781),,,
10045,26782-20015,26782,FE,17992,STEWART GOVERNMENT AFFAIRS,Employer,20015,SPECTRUM HEALTH SYSTEMS (MELANIE STEWART & ASSOC LLC*),16-Sep,11/8/2016,16936.0,SPECTRUM HEALTH SYSTEMS,300.0,0.0,300.0,0.0,0.0,0.0,0.0,0.0,0.0,0.0,300.0,20015.0,Subcontract,17991.0,MELANIE STEWART & ASSOC LLC*,View report (https://accesshub.pdc.wa.gov/node/26782),,,
10046,26778-20062,26778,FE,17992,STEWART GOVERNMENT AFFAIRS,Employer,20062,WA CANNABUSINESS ASSN (CHRISTOPHERSEN INC*),16-Jun,11/8/2016,17073.0,WA CANNABUSINESS ASSN,375.0,0.0,375.0,0.0,0.0,0.0,0.0,0.0,0.0,0.0,375.0,20062.0,Subcontract,17348.0,CHRISTOPHERSEN INC*,View report (https://accesshub.pdc.wa.gov/node/26778),,,
10047,26779-20062,26779,FE,17992,STEWART GOVERNMENT AFFAIRS,Employer,20062,WA CANNABUSINESS ASSN (CHRISTOPHERSEN INC*),16-Jul,11/8/2016,17073.0,WA CANNABUSINESS ASSN,375.0,0.0,375.0,0.0,0.0,0.0,0.0,0.0,0.0,0.0,375.0,20062.0,Subcontract,17348.0,CHRISTOPHERSEN INC*,View report (https://accesshub.pdc.wa.gov/node/26779),,,
10048,26781-20062,26781,FE,17992,STEWART GOVERNMENT AFFAIRS,Employer,20062,WA CANNABUSINESS ASSN (CHRISTOPHERSEN INC*),16-Aug,11/8/2016,17073.0,WA CANNABUSINESS ASSN,375.0,0.0,375.0,0.0,0.0,0.0,0.0,0.0,0.0,0.0,375.0,20062.0,Subcontract,17348.0,CHRISTOPHERSEN INC*,View report (https://accesshub.pdc.wa.gov/node/26781),,,
10049,26782-20062,26782,FE,17992,STEWART GOVERNMENT AFFAIRS,Employer,20062,WA CANNABUSINESS ASSN (CHRISTOPHERSEN INC*),16-Sep,11/8/2016,17073.0,WA CANNABUSINESS ASSN,375.0,0.0,375.0,0.0,0.0,0.0,0.0,0.0,0.0,0.0,375.0,20062.0,Subcontract,17348.0,CHRISTOPHERSEN INC*,View report (https://accesshub.pdc.wa.gov/node/26782),,,
10050,26788-18154,26788,FE,17339,Amber D Lewis Consulting LLC,Employer,18154,WA ASSN FOR MARRIAGE & FAMILY THERAPY,16-Oct,11/8/2016,17150.0,WA ASSN FOR MARRIAGE & FAMILY THERAPY,1180.0,0.0,1180.0,0.0,0.0,0.0,0.0,0.0,0.0,0.0,1180.0,18154.0,Direct,,,View report (https://accesshub.pdc.wa.gov/node/26788),Health Care,health care,"health care committees, DoH, OIC"
10051,26785-18228,26785,FE,17372,BRUCE K BECKETT,Employer,18228,WA RESTAURANT ASSN,16-Oct,11/8/2016,17179.0,WA RESTAURANT ASSN,7000.0,0.0,7000.0,0.0,0.0,0.0,0.0,0.0,0.0,0.0,7000.0,18228.0,Direct,,,View report (https://accesshub.pdc.wa.gov/node/26785),Labor,training wage,house/senate committees
10052,26778-20047,26778,FE,17992,STEWART GOVERNMENT AFFAIRS,Employer,20047,WA ASSN OF ROUTE OPERATORS (MELANIE STEWART & ASSOC LLC*),16-Jun,11/8/2016,17182.0,WA ASSN OF ROUTE OPERATORS,300.0,0.0,300.0,0.0,0.0,0.0,0.0,0.0,0.0,0.0,300.0,20047.0,Subcontract,17991.0,MELANIE STEWART & ASSOC LLC*,View report (https://accesshub.pdc.wa.gov/node/26778),,,
10053,26779-20047,26779,FE,17992,STEWART GOVERNMENT AFFAIRS,Employer,20047,WA ASSN OF ROUTE OPERATORS (MELANIE STEWART & ASSOC LLC*),16-Jul,11/8/2016,17182.0,WA ASSN OF ROUTE OPERATORS,300.0,0.0,300.0,0.0,0.0,0.0,0.0,0.0,0.0,0.0,300.0,20047.0,Subcontract,17991.0,MELANIE STEWART & ASSOC LLC*,View report (https://accesshub.pdc.wa.gov/node/26779),,,
10054,26781-20047,26781,FE,17992,STEWART GOVERNMENT AFFAIRS,Employer,20047,WA ASSN OF ROUTE OPERATORS (MELANIE STEWART & ASSOC LLC*),16-Aug,11/8/2016,17182.0,WA ASSN OF ROUTE OPERATORS,300.0,0.0,300.0,0.0,0.0,0.0,0.0,0.0,0.0,0.0,300.0,20047.0,Subcontract,17991.0,MELANIE STEWART & ASSOC LLC*,View report (https://accesshub.pdc.wa.gov/node/26781),,,
10055,26782-20047,26782,FE,17992,STEWART GOVERNMENT AFFAIRS,Employer,20047,WA ASSN OF ROUTE OPERATORS (MELANIE STEWART & ASSOC LLC*),16-Sep,11/8/2016,17182.0,WA ASSN OF ROUTE OPERATORS,300.0,0.0,300.0,0.0,0.0,0.0,0.0,0.0,0.0,0.0,300.0,20047.0,Subcontract,17991.0,MELANIE STEWART & ASSOC LLC*,View report (https://accesshub.pdc.wa.gov/node/26782),,,
10056,26778-20064,26778,FE,17992,STEWART GOVERNMENT AFFAIRS,Employer,20064,WA REFUSE & RECYCLING ASSN (CHRISTOPHERSEN INC*),16-Jun,11/8/2016,17185.0,WA REFUSE & RECYCLING ASSN,375.0,0.0,375.0,0.0,0.0,0.0,0.0,0.0,0.0,0.0,375.0,20064.0,Subcontract,17348.0,CHRISTOPHERSEN INC*,View report (https://accesshub.pdc.wa.gov/node/26778),,,
10057,26779-20064,26779,FE,17992,STEWART GOVERNMENT AFFAIRS,Employer,20064,WA REFUSE & RECYCLING ASSN (CHRISTOPHERSEN INC*),16-Jul,11/8/2016,17185.0,WA REFUSE & RECYCLING ASSN,375.0,0.0,375.0,0.0,0.0,0.0,0.0,0.0,0.0,0.0,375.0,20064.0,Subcontract,17348.0,CHRISTOPHERSEN INC*,View report (https://accesshub.pdc.wa.gov/node/26779),,,
10058,26781-20064,26781,FE,17992,STEWART GOVERNMENT AFFAIRS,Employer,20064,WA REFUSE & RECYCLING ASSN (CHRISTOPHERSEN INC*),16-Aug,11/8/2016,17185.0,WA REFUSE & RECYCLING ASSN,375.0,0.0,375.0,0.0,0.0,0.0,0.0,0.0,0.0,0.0,375.0,20064.0,Subcontract,17348.0,CHRISTOPHERSEN INC*,View report (https://accesshub.pdc.wa.gov/node/26781),,,
10059,26782-20064,26782,FE,17992,STEWART GOVERNMENT AFFAIRS,Employer,20064,WA REFUSE & RECYCLING ASSN (CHRISTOPHERSEN INC*),16-Sep,11/8/2016,17185.0,WA REFUSE & RECYCLING ASSN,375.0,0.0,375.0,0.0,0.0,0.0,0.0,0.0,0.0,0.0,375.0,20064.0,Subcontract,17348.0,CHRISTOPHERSEN INC*,View report (https://accesshub.pdc.wa.gov/node/26782),,,
10060,26778-24868,26778,FE,17992,STEWART GOVERNMENT AFFAIRS,Employer,24868,WA BEVERAGE ASSN (BOSWELL CONSULTING*),16-Jun,11/8/2016,17190.0,WA BEVERAGE ASSN,250.0,0.0,250.0,0.0,0.0,0.0,0.0,0.0,0.0,0.0,250.0,24868.0,Subcontract,17398.0,BOSWELL CONSULTING*,View report (https://accesshub.pdc.wa.gov/node/26778),,,
10061,26779-24868,26779,FE,17992,STEWART GOVERNMENT AFFAIRS,Employer,24868,WA BEVERAGE ASSN (BOSWELL CONSULTING*),16-Jul,11/8/2016,17190.0,WA BEVERAGE ASSN,250.0,0.0,250.0,0.0,0.0,0.0,0.0,0.0,0.0,0.0,250.0,24868.0,Subcontract,17398.0,BOSWELL CONSULTING*,View report (https://accesshub.pdc.wa.gov/node/26779),,,
10062,26781-24868,26781,FE,17992,STEWART GOVERNMENT AFFAIRS,Employer,24868,WA BEVERAGE ASSN (BOSWELL CONSULTING*),16-Aug,11/8/2016,17190.0,WA BEVERAGE ASSN,250.0,0.0,250.0,0.0,0.0,0.0,0.0,0.0,0.0,0.0,250.0,24868.0,Subcontract,17398.0,BOSWELL CONSULTING*,View report (https://accesshub.pdc.wa.gov/node/26781),,,
10063,26782-24868,26782,FE,17992,STEWART GOVERNMENT AFFAIRS,Employer,24868,WA BEVERAGE ASSN (BOSWELL CONSULTING*),16-Sep,11/8/2016,17190.0,WA BEVERAGE ASSN,250.0,0.0,250.0,0.0,0.0,0.0,0.0,0.0,0.0,0.0,250.0,24868.0,Subcontract,17398.0,BOSWELL CONSULTING*,View report (https://accesshub.pdc.wa.gov/node/26782),,,
10064,26795-19823,26795,FE,18048,LAURIE M VALERIANO,Employer,19823,TOXIC-FREE FUTURE,16-Oct,11/8/2016,17201.0,TOXIC-FREE FUTURE,400.0,0.0,400.0,0.0,0.0,0.0,0.0,0.0,0.0,0.0,400.0,19823.0,Direct,,,View report (https://accesshub.pdc.wa.gov/node/26795),Environmental Affairs - natural resources - parks,Toxics in Consumer products,Dept of Ecology
10065,26778-20043,26778,FE,17992,STEWART GOVERNMENT AFFAIRS,Employer,20043,WA ST DIST & MUNICIPAL COURT JUDGES ASSN (MELANIE STEWART & ASSOC LLC*),16-Jun,11/8/2016,17263.0,WA ST DIST & MUNICIPAL COURT JUDGES ASSN,300.0,0.0,300.0,0.0,0.0,0.0,0.0,0.0,0.0,0.0,300.0,20043.0,Subcontract,17991.0,MELANIE STEWART & ASSOC LLC*,View report (https://accesshub.pdc.wa.gov/node/26778),,,
10066,26779-20043,26779,FE,17992,STEWART GOVERNMENT AFFAIRS,Employer,20043,WA ST DIST & MUNICIPAL COURT JUDGES ASSN (MELANIE STEWART & ASSOC LLC*),16-Jul,11/8/2016,17263.0,WA ST DIST & MUNICIPAL COURT JUDGES ASSN,300.0,0.0,300.0,0.0,0.0,0.0,0.0,0.0,0.0,0.0,300.0,20043.0,Subcontract,17991.0,MELANIE STEWART & ASSOC LLC*,View report (https://accesshub.pdc.wa.gov/node/26779),,,
10067,26781-20043,26781,FE,17992,STEWART GOVERNMENT AFFAIRS,Employer,20043,WA ST DIST & MUNICIPAL COURT JUDGES ASSN (MELANIE STEWART & ASSOC LLC*),16-Aug,11/8/2016,17263.0,WA ST DIST & MUNICIPAL COURT JUDGES ASSN,300.0,0.0,300.0,0.0,0.0,0.0,0.0,0.0,0.0,0.0,300.0,20043.0,Subcontract,17991.0,MELANIE STEWART & ASSOC LLC*,View report (https://accesshub.pdc.wa.gov/node/26781),,,
10068,26782-20043,26782,FE,17992,STEWART GOVERNMENT AFFAIRS,Employer,20043,WA ST DIST & MUNICIPAL COURT JUDGES ASSN (MELANIE STEWART & ASSOC LLC*),16-Sep,11/8/2016,17263.0,WA ST DIST & MUNICIPAL COURT JUDGES ASSN,300.0,0.0,300.0,0.0,0.0,0.0,0.0,0.0,0.0,0.0,300.0,20043.0,Subcontract,17991.0,MELANIE STEWART & ASSOC LLC*,View report (https://accesshub.pdc.wa.gov/node/26782),,,
10069,26778-19945,26778,FE,17992,STEWART GOVERNMENT AFFAIRS,Employer,19945,Washington State Podiatric Medical Association (MELANIE STEWART & ASSOC LLC*),16-Jun,11/8/2016,17272.0,Washington State Podiatric Medical Association,300.0,0.0,300.0,0.0,0.0,0.0,0.0,0.0,0.0,0.0,300.0,19945.0,Subcontract,17991.0,MELANIE STEWART & ASSOC LLC*,View report (https://accesshub.pdc.wa.gov/node/26778),,,
10070,26779-19945,26779,FE,17992,STEWART GOVERNMENT AFFAIRS,Employer,19945,Washington State Podiatric Medical Association (MELANIE STEWART & ASSOC LLC*),16-Jul,11/8/2016,17272.0,Washington State Podiatric Medical Association,300.0,0.0,300.0,0.0,0.0,0.0,0.0,0.0,0.0,0.0,300.0,19945.0,Subcontract,17991.0,MELANIE STEWART & ASSOC LLC*,View report (https://accesshub.pdc.wa.gov/node/26779),,,
10071,26781-19945,26781,FE,17992,STEWART GOVERNMENT AFFAIRS,Employer,19945,Washington State Podiatric Medical Association (MELANIE STEWART & ASSOC LLC*),16-Aug,11/8/2016,17272.0,Washington State Podiatric Medical Association,300.0,0.0,300.0,0.0,0.0,0.0,0.0,0.0,0.0,0.0,300.0,19945.0,Subcontract,17991.0,MELANIE STEWART & ASSOC LLC*,View report (https://accesshub.pdc.wa.gov/node/26781),,,
10072,26782-19945,26782,FE,17992,STEWART GOVERNMENT AFFAIRS,Employer,19945,Washington State Podiatric Medical Association (MELANIE STEWART & ASSOC LLC*),16-Sep,11/8/2016,17272.0,Washington State Podiatric Medical Association,300.0,0.0,300.0,0.0,0.0,0.0,0.0,0.0,0.0,0.0,300.0,19945.0,Subcontract,17991.0,MELANIE STEWART & ASSOC LLC*,View report (https://accesshub.pdc.wa.gov/node/26782),,,
10073,26777-19190,26777,FE,17771,MARIE SULLIVAN PUBLIC AFFAIRS CORP.,Employer,19190,WA ST PTA,16-Oct,11/8/2016,17277.0,WA ST PTA,3000.0,0.0,3000.0,0.0,0.0,0.0,0.0,0.0,0.0,0.0,3000.0,19190.0,Direct,,,View report (https://accesshub.pdc.wa.gov/node/26777),Education,education general,"ed funding task force, SBE"
10074,26802-18434,26802,FE,17446,MARIA CHIECHI,Employer,18434,Adult Family Home Council,16-Oct,11/8/2016,17280.0,Adult Family Home Council,1000.0,0.0,1000.0,0.0,0.0,0.0,0.0,0.0,0.0,0.0,1000.0,18434.0,Direct,,,View report (https://accesshub.pdc.wa.gov/node/26802),Fiscal,Fiscal,Appropriations & Ways & Means Members
10075,26796-18705,26796,FE,17540,JOHN FICKER,Employer,18705,Adult Family Home Council,16-Oct,11/8/2016,17280.0,Adult Family Home Council,500.0,0.0,500.0,0.0,0.0,2350.0,0.0,0.0,0.0,2350.0,2850.0,18705.0,Direct,,,View report (https://accesshub.pdc.wa.gov/node/26796),Fiscal,Fiscal,Appropriations & Ways & Means Members
10076,26778-20000,26778,FE,17992,STEWART GOVERNMENT AFFAIRS,Employer,20000,Yakima Valley Memorial Hospital Association (MELANIE STEWART & ASSOC LLC*),16-Jun,11/8/2016,17321.0,Yakima Valley Memorial Hospital Association,300.0,0.0,300.0,0.0,0.0,0.0,0.0,0.0,0.0,0.0,300.0,20000.0,Subcontract,17991.0,MELANIE STEWART & ASSOC LLC*,View report (https://accesshub.pdc.wa.gov/node/26778),,,
10077,26779-20000,26779,FE,17992,STEWART GOVERNMENT AFFAIRS,Employer,20000,Yakima Valley Memorial Hospital Association (MELANIE STEWART & ASSOC LLC*),16-Jul,11/8/2016,17321.0,Yakima Valley Memorial Hospital Association,300.0,0.0,300.0,0.0,0.0,0.0,0.0,0.0,0.0,0.0,300.0,20000.0,Subcontract,17991.0,MELANIE STEWART & ASSOC LLC*,View report (https://accesshub.pdc.wa.gov/node/26779),,,
10078,26781-20000,26781,FE,17992,STEWART GOVERNMENT AFFAIRS,Employer,20000,Yakima Valley Memorial Hospital Association (MELANIE STEWART & ASSOC LLC*),16-Aug,11/8/2016,17321.0,Yakima Valley Memorial Hospital Association,300.0,0.0,300.0,0.0,0.0,0.0,0.0,0.0,0.0,0.0,300.0,20000.0,Subcontract,17991.0,MELANIE STEWART & ASSOC LLC*,View report (https://accesshub.pdc.wa.gov/node/26781),,,
10079,26782-20000,26782,FE,17992,STEWART GOVERNMENT AFFAIRS,Employer,20000,Yakima Valley Memorial Hospital Association (MELANIE STEWART & ASSOC LLC*),16-Sep,11/8/2016,17321.0,Yakima Valley Memorial Hospital Association,300.0,0.0,300.0,0.0,0.0,0.0,0.0,0.0,0.0,0.0,300.0,20000.0,Subcontract,17991.0,MELANIE STEWART & ASSOC LLC*,View report (https://accesshub.pdc.wa.gov/node/26782),,,
10092,26808-19808,26808,FE,18043,THE TSB GROUP*,Employer,19808,American Family Life Assurance Company (AFLAC),16-Oct,11/9/2016,16074.0,American Family Life Assurance Company (AFLAC),1000.0,0.0,1000.0,0.0,0.0,0.0,0.0,0.0,0.0,0.0,1000.0,19808.0,Direct,,,View report (https://accesshub.pdc.wa.gov/node/26808),Health Care,Supplemental Insurance,Senate Health Care; House Health & Wellness; Insurance Commissioner
10093,26855-19197,26855,FE,17774,TIMOTHY A MARTIN,Employer,19197,AMGEN INC,16-Oct,11/9/2016,16127.0,AMGEN INC,2596.0,0.0,2596.0,0.0,0.0,14900.0,0.0,0.0,0.0,14900.0,17496.0,19197.0,Direct,,,View report (https://accesshub.pdc.wa.gov/node/26855),Technology,,Legislature
10095,26856-19727,26856,FE,18010,Brewer Public Affairs,Employer,19727,AVISTA CORP,16-Oct,11/9/2016,16180.0,AVISTA CORP,7500.0,0.0,7500.0,261.57,0.0,0.0,0.0,0.0,0.0,261.57,7761.57,19727.0,Direct,,,View report (https://accesshub.pdc.wa.gov/node/26856),Energy and utilities,energy policy,utc ecology wdfw environment
10097,26808-19809,26808,FE,18043,THE TSB GROUP*,Employer,19809,BOISE CASCADE COMPANY,16-Oct,11/9/2016,16202.0,BOISE CASCADE COMPANY,2500.0,0.0,2500.0,22.17,0.0,0.0,0.0,0.0,0.0,22.17,2522.17,19809.0,Direct,,,View report (https://accesshub.pdc.wa.gov/node/26808),Environmental Affairs - natural resources - parks,"Climate, Wildfires & Timber Supply",Senate Natural Resources & Parks; House Ag & Natural Resources; Office of the Governor; Natural Resources; Forest Practices Board
10098,26808-19810,26808,FE,18043,THE TSB GROUP*,Employer,19810,PACKAGING CORP OF AMERICA,16-Oct,11/9/2016,16203.0,PACKAGING CORP OF AMERICA,3000.0,0.0,3000.0,13.78,0.0,0.0,0.0,0.0,0.0,13.78,3013.78,19810.0,Direct,,,View report (https://accesshub.pdc.wa.gov/node/26808),Environmental Affairs - natural resources - parks,"Climate, Air & Water Quality",Office of the Governor; Ecology; Senate Ag & Rural Economic Development; House Ag 7 Natural Resources
10099,26791-19274,26791,FE,17811,MILLER MALONE & TELLEFSON PS*,Employer,19274,CVS HEALTH,16-Oct,11/9/2016,16229.0,CVS HEALTH,4166.66,0.0,4166.66,0.0,0.0,0.0,0.0,0.0,0.0,0.0,4166.66,19274.0,Direct,,,View report (https://accesshub.pdc.wa.gov/node/26791),Health Care,Pharmacy/pharmacy benefit manager,"OIC, HCA"
10100,26808-19811,26808,FE,18043,THE TSB GROUP*,Employer,19811,COLUMBIA RURAL ELECTRIC ASSN,16-Oct,11/9/2016,16339.0,COLUMBIA RURAL ELECTRIC ASSN,2000.0,0.0,2000.0,31.86,0.0,0.0,0.0,0.0,0.0,31.86,2031.86,19811.0,Direct,,,View report (https://accesshub.pdc.wa.gov/node/26808),Energy and utilities,Electric Energy & Climate,"Senate Energy, Environment & Telecommunications; House Environment; House Technology & Economic Development; Office of the Governor; Attorney General (Public Counsel); WUTC; Commerce; Ecology"
10101,26791-19275,26791,FE,17811,MILLER MALONE & TELLEFSON PS*,Employer,19275,FIDELITY NATIONAL FINANCIAL INC,16-Oct,11/9/2016,16442.0,FIDELITY NATIONAL FINANCIAL INC,4166.67,0.0,4166.67,0.0,0.0,0.0,0.0,0.0,0.0,0.0,4166.67,19275.0,Direct,,,View report (https://accesshub.pdc.wa.gov/node/26791),Financial institutions and insurance,Title Insurance,OIC
10102,26791-19276,26791,FE,17811,MILLER MALONE & TELLEFSON PS*,Employer,19276,FORD MOTOR CO,16-Oct,11/9/2016,16449.0,FORD MOTOR CO,1000.0,0.0,1000.0,0.0,0.0,0.0,0.0,0.0,0.0,0.0,1000.0,19276.0,Direct,,,View report (https://accesshub.pdc.wa.gov/node/26791),Transportation,Auto manufacturing,Transportation Committee
10103,26791-19277,26791,FE,17811,MILLER MALONE & TELLEFSON PS*,Employer,19277,GETINSURED,16-Oct,11/9/2016,16469.0,GETINSURED,3000.0,0.0,3000.0,0.0,0.0,0.0,0.0,0.0,0.0,0.0,3000.0,19277.0,Direct,,,View report (https://accesshub.pdc.wa.gov/node/26791),Health Care,Health benefits exchange,Health Benefits Exchange
10104,26808-19812,26808,FE,18043,THE TSB GROUP*,Employer,19812,ALLIANCE OF WESTERN ENERGY CONSUMERS,16-Oct,11/9/2016,16528.0,ALLIANCE OF WESTERN ENERGY CONSUMERS,7300.0,0.0,7300.0,40.5,9.09,0.0,0.0,0.0,0.0,49.59,7349.59,19812.0,Direct,,,View report (https://accesshub.pdc.wa.gov/node/26808),Energy and utilities,Electric Energy & Climate,"Senate Energy, Environment & Telecommunications; House Environment; House Technology & Economic Development; Office of the Governor; Attorney General (Public Counsel); WUTC; Ecology; Commerce; Natural Resources"
10105,26847-18246,26847,FE,17388,ANNIE BLACKLEDGE,Employer,18246,The Mockingbird Society,16-Oct,11/9/2016,16639.0,The Mockingbird Society,570.95,0.0,570.95,73.91,16.49,0.0,0.0,0.0,0.0,90.4,661.35,18246.0,Direct,,,View report (https://accesshub.pdc.wa.gov/node/26847),Human services,child welfare issues,House of Representatives and Senate
10106,26824-19587,26824,FE,17950,SEIB POLICY & PUBLIC AFFAIRS*,Employer,19587,Molina Healthcare Inc,16-Oct,11/9/2016,16641.0,Molina Healthcare Inc,4000.0,0.0,4000.0,1633.46,0.0,0.0,0.0,0.0,0.0,1633.46,5633.46,19587.0,Direct,,,View report (https://accesshub.pdc.wa.gov/node/26824),Health Care,,
10107,26713-18921,26713,FE,17606,TOM GURR,Employer,18921,PACIFIC TECHNOLOGY ALLIANCE,16-Oct,11/9/2016,16759.0,PACIFIC TECHNOLOGY ALLIANCE,1650.0,0.0,1650.0,0.0,0.0,0.0,0.0,0.0,0.0,0.0,1650.0,18921.0,Direct,,,View report (https://accesshub.pdc.wa.gov/node/26713),Technology,Telecommunications,"House Technology & Economic Development Committee, Senate Energy, Environment & Telecommunications Committee"
10108,26824-19588,26824,FE,17950,SEIB POLICY & PUBLIC AFFAIRS*,Employer,19588,Paradigm Outcomes,16-Oct,11/9/2016,16761.0,Paradigm Outcomes,1500.0,0.0,1500.0,150.12,0.0,0.0,0.0,0.0,0.0,150.12,1650.12,19588.0,Direct,,,View report (https://accesshub.pdc.wa.gov/node/26824),,,
10109,26808-19813,26808,FE,18043,THE TSB GROUP*,Employer,19813,PORT BLAKELY,16-Oct,11/9/2016,16794.0,PORT BLAKELY,3200.0,0.0,3200.0,260.48,9.09,4250.0,0.0,0.0,0.0,4519.57,7719.57,19813.0,Direct,,,View report (https://accesshub.pdc.wa.gov/node/26808),Environmental Affairs - natural resources - parks,Forest Practices & Wildfires,Senate Natural Resources & Parks; House Ag & Natural Resources; Office of the Governor; Natural Resources; Forest Practices Board
10110,26791-19278,26791,FE,17811,MILLER MALONE & TELLEFSON PS*,Employer,19278,Progressive,16-Oct,11/9/2016,16816.0,Progressive,5833.33,0.0,5833.33,0.0,0.0,0.0,0.0,0.0,0.0,0.0,5833.33,19278.0,Direct,,,View report (https://accesshub.pdc.wa.gov/node/26791),Financial institutions and insurance,Insurance,OIC
10111,26791-19279,26791,FE,17811,MILLER MALONE & TELLEFSON PS*,Employer,19279,REGENCE BLUE SHIELD,16-Oct,11/9/2016,16849.0,REGENCE BLUE SHIELD,9416.67,0.0,9416.67,0.0,0.0,0.0,0.0,0.0,0.0,0.0,9416.67,19279.0,Direct,,,View report (https://accesshub.pdc.wa.gov/node/26791),Health Care,Health care,OIC
10112,26824-19589,26824,FE,17950,SEIB POLICY & PUBLIC AFFAIRS*,Employer,19589,RURAL HEALTH CLINIC ASSN,16-Oct,11/9/2016,16866.0,RURAL HEALTH CLINIC ASSN,2000.0,0.0,2000.0,0.0,0.0,0.0,0.0,0.0,0.0,0.0,2000.0,19589.0,Direct,,,View report (https://accesshub.pdc.wa.gov/node/26824),Health Care,na,na
10113,26856-19728,26856,FE,18010,Brewer Public Affairs,Employer,19728,SCHINDLER ELEVATOR CORP,16-Oct,11/9/2016,16877.0,SCHINDLER ELEVATOR CORP,2500.0,0.0,2500.0,0.0,0.0,0.0,0.0,0.0,0.0,0.0,2500.0,19728.0,Direct,,,View report (https://accesshub.pdc.wa.gov/node/26856),State government,elevator policy,lni labor
10114,26824-19590,26824,FE,17950,SEIB POLICY & PUBLIC AFFAIRS*,Employer,19590,Astria Health,16-Oct,11/9/2016,16957.0,Astria Health,4000.0,0.0,4000.0,304.8,0.0,0.0,0.0,0.0,0.0,304.8,4304.8,19590.0,Direct,,,View report (https://accesshub.pdc.wa.gov/node/26824),Health Care,na,na
10115,26791-19280,26791,FE,17811,MILLER MALONE & TELLEFSON PS*,Employer,19280,USAA,16-Oct,11/9/2016,17012.0,USAA,3902.25,0.0,3902.25,0.0,0.0,1500.0,0.0,0.0,0.0,1500.0,5402.25,19280.0,Direct,,,View report (https://accesshub.pdc.wa.gov/node/26791),Financial institutions and insurance,Insurance/banking,"OIC, DFI"
10116,26808-19814,26808,FE,18043,THE TSB GROUP*,Employer,19814,VAAGEN BROTHERS LUMBER INC,16-Oct,11/9/2016,17026.0,VAAGEN BROTHERS LUMBER INC,2000.0,0.0,2000.0,87.97,0.0,0.0,0.0,0.0,0.0,87.97,2087.97,19814.0,Direct,,,View report (https://accesshub.pdc.wa.gov/node/26808),Environmental Affairs - natural resources - parks,"Climate, Timber Supply & CLT",Senate Natural Resources & Parks; House Ag & Natural Resources; House Capital Budget; Office of the Governor; Natural Resources; Forest Practices Board
10117,26791-19281,26791,FE,17811,MILLER MALONE & TELLEFSON PS*,Employer,19281,Veritec Solutions,16-Oct,11/9/2016,17031.0,Veritec Solutions,2000.0,0.0,2000.0,0.0,0.0,0.0,0.0,0.0,0.0,0.0,2000.0,19281.0,Direct,,,View report (https://accesshub.pdc.wa.gov/node/26791),Financial institutions and insurance,Payday lending,DFI
10118,26824-19591,26824,FE,17950,SEIB POLICY & PUBLIC AFFAIRS*,Employer,19591,WA ACADEMY OF FAMILY PHYSICIANS,16-Oct,11/9/2016,17052.0,WA ACADEMY OF FAMILY PHYSICIANS,3000.0,0.0,3000.0,60.48,0.0,0.0,0.0,0.0,0.0,60.48,3060.48,19591.0,Direct,,,View report (https://accesshub.pdc.wa.gov/node/26824),Health Care,na,na
10121,26844-19074,26844,FE,17703,CAROLINE KING,Employer,19074,WA STEM CENTER,16-Oct,11/9/2016,17189.0,WA STEM CENTER,1530.03,0.0,1530.03,140.4,0.0,0.0,0.0,0.0,0.0,140.4,1670.43,19074.0,Direct,,,View report (https://accesshub.pdc.wa.gov/node/26844),Education,STEM,"Governor's Office, State Board of Education, Department of Employment Security"
10122,26856-19729,26856,FE,18010,Brewer Public Affairs,Employer,19729,WSIA,16-Oct,11/9/2016,17194.0,WSIA,2500.0,0.0,2500.0,117.24,0.0,0.0,0.0,0.0,0.0,117.24,2617.24,19729.0,Direct,,,View report (https://accesshub.pdc.wa.gov/node/26856),Labor,insurance,LNI Labor
10123,26791-19282,26791,FE,17811,MILLER MALONE & TELLEFSON PS*,Employer,19282,WA ST DENTAL ASSN,16-Oct,11/9/2016,17238.0,WA ST DENTAL ASSN,5500.0,0.0,5500.0,0.0,0.0,0.0,0.0,0.0,0.0,0.0,5500.0,19282.0,Direct,,,View report (https://accesshub.pdc.wa.gov/node/26791),Health Care,Health care,Health Care Committees
10124,26842-19612,26842,FE,17959,EVAN SHEFFELS,Employer,19612,WA ST FARM BUREAU,16-Oct,11/9/2016,17246.0,WA ST FARM BUREAU,4000.0,0.0,4000.0,0.0,0.0,0.0,0.0,0.0,0.0,0.0,4000.0,19612.0,Direct,,,View report (https://accesshub.pdc.wa.gov/node/26842),Agriculture,Ag and Env Issues,Ag and Environmental Agencies and Committees
10125,26864-19062,26864,FE,17689,Trevor Justin Government Relations,Employer,19062,WA ST MEDICAL ASSN,16-Oct,11/9/2016,17261.0,WA ST MEDICAL ASSN,1500.0,0.0,1500.0,0.0,0.0,0.0,0.0,0.0,0.0,0.0,1500.0,19062.0,Direct,,,View report (https://accesshub.pdc.wa.gov/node/26864),Health Care,Health Care,"DOH, HCA, OIC, L&CB"
10126,26808-19815,26808,FE,18043,THE TSB GROUP*,Employer,19815,WA ST POTATO COMMISSION,16-Oct,11/9/2016,17273.0,WA ST POTATO COMMISSION,5250.0,0.0,5250.0,76.14,0.0,0.0,0.0,0.0,0.0,76.14,5326.14,19815.0,Direct,,,View report (https://accesshub.pdc.wa.gov/node/26808),Agriculture,Water Policy,"Senate Ag, Water & Rural Economic Development, House Ag & Natural Resources; Office of the Governor; Ecology"
10127,26791-25023,26791,FE,17811,MILLER MALONE & TELLEFSON PS*,Employer,25023,OpenGov inc,16-Oct,11/9/2016,25022.0,OpenGov inc,2000.0,0.0,2000.0,0.0,0.0,0.0,0.0,0.0,0.0,0.0,2000.0,25023.0,Direct,,,View report (https://accesshub.pdc.wa.gov/node/26791),State government,Data transparency,Various state agencies
10128,26815-18759,26815,FE,17565,GANO & ASSOC*,Employer,18759,Chubb,16-Oct,11/10/2016,16063.0,Chubb,3500.0,0.0,3500.0,0.0,0.0,0.0,0.0,0.0,0.0,0.0,3500.0,18759.0,Direct,,,View report (https://accesshub.pdc.wa.gov/node/26815),Financial institutions and insurance,Insurance,H and S Insurance
10129,26904-18877,26904,FE,17589,GOVERNMENT RELATIONS SERVICES*,Employer,18877,ACTION FOR RHC'S,16-Oct,11/10/2016,16066.0,ACTION FOR RHC'S,3000.0,0.0,3000.0,0.0,0.0,0.0,0.0,0.0,1500.0,1500.0,4500.0,18877.0,Direct,,,View report (https://accesshub.pdc.wa.gov/node/26904),Human services,developmentally disabled issues,capital budget
10131,26898-18867,26898,FE,17582,GORDON THOMAS HONEYWELL LAW*,Employer,18867,ASSN OF WA SPIRITS & WINE DISTRIBUTORS,16-Oct,11/10/2016,16172.0,ASSN OF WA SPIRITS & WINE DISTRIBUTORS,4000.0,0.0,4000.0,0.0,0.0,0.0,0.0,0.0,0.0,0.0,4000.0,18867.0,Direct,,,View report (https://accesshub.pdc.wa.gov/node/26898),Business and consumer affairs,Alcohol,Alcohol regulations/Senate Ways Means House Gov Ac
10133,26815-18760,26815,FE,17565,GANO & ASSOC*,Employer,18760,AT&T SERVICES INC,16-Oct,11/10/2016,16175.0,AT&T SERVICES INC,6000.0,0.0,6000.0,0.0,0.0,0.0,0.0,0.0,0.0,0.0,6000.0,18760.0,Direct,,,View report (https://accesshub.pdc.wa.gov/node/26815),Technology,Cell phones,H and S Telecommunication
10135,26815-18761,26815,FE,17565,GANO & ASSOC*,Employer,18761,AVIATION TECHNICAL SERVICES INC,16-Oct,11/10/2016,16179.0,AVIATION TECHNICAL SERVICES INC,4000.0,0.0,4000.0,0.0,0.0,0.0,0.0,0.0,0.0,0.0,4000.0,18761.0,Direct,,,View report (https://accesshub.pdc.wa.gov/node/26815),Business and consumer affairs,Aircraft,"H and S Commerce and Labor, Ways Means"
10137,26815-18762,26815,FE,17565,GANO & ASSOC*,Employer,18762,BUILDING INDUSTRY ASSN OF WA,16-Oct,11/10/2016,16215.0,BUILDING INDUSTRY ASSN OF WA,5000.0,0.0,5000.0,0.0,0.0,0.0,0.0,0.0,0.0,0.0,5000.0,18762.0,Direct,,,View report (https://accesshub.pdc.wa.gov/node/26815),Local government,Housing,"H Local Gov, Sen Gov Operations , H S Comm and Labor"
10140,26815-18763,26815,FE,17565,GANO & ASSOC*,Employer,18763,CONTINENTAL CASUALTY COMPANY (CNA Insurance Companies),16-Oct,11/10/2016,16363.0,CONTINENTAL CASUALTY COMPANY (CNA Insurance Companies),3500.0,0.0,3500.0,0.0,0.0,5000.0,0.0,0.0,0.0,5000.0,8500.0,18763.0,Direct,,,View report (https://accesshub.pdc.wa.gov/node/26815),Financial institutions and insurance,Insurance,H and S Insurance
10141,26815-18764,26815,FE,17565,GANO & ASSOC*,Employer,18764,Molson Coors Beverage Company USA LLC,16-Oct,11/10/2016,16366.0,Molson Coors Beverage Company USA LLC,4000.0,0.0,4000.0,0.0,0.0,0.0,0.0,0.0,0.0,0.0,4000.0,18764.0,Direct,,,View report (https://accesshub.pdc.wa.gov/node/26815),Business and consumer affairs,Beer,"H and S Commerce and Labor , WAys and Means"
10142,26815-18765,26815,FE,17565,GANO & ASSOC*,Employer,18765,Expedia Group,16-Oct,11/10/2016,16427.0,Expedia Group,4500.0,0.0,4500.0,0.0,0.0,500.0,0.0,0.0,0.0,500.0,5000.0,18765.0,Direct,,,View report (https://accesshub.pdc.wa.gov/node/26815),Technology,Travel,"H and S Technology, Comm and Labor Ways and Means"
10143,26798-26108,26798,FE,26001,BMcConsulting,Employer,26108,FIRE SPRINKLER ADVISORY BD OF PUGET SOUND (DOTY & ASSOC INC*),16-Oct,11/10/2016,16444.0,FIRE SPRINKLER ADVISORY BD OF PUGET SOUND,500.0,0.0,500.0,0.0,0.0,0.0,0.0,0.0,0.0,0.0,500.0,26108.0,Subcontract,17496.0,DOTY & ASSOC INC*,View report (https://accesshub.pdc.wa.gov/node/26798),,,
10144,26815-18766,26815,FE,17565,GANO & ASSOC*,Employer,18766,GATEWAY AVIATION,16-Oct,11/10/2016,16465.0,GATEWAY AVIATION,7500.0,0.0,7500.0,0.0,0.0,1000.0,0.0,0.0,0.0,1000.0,8500.0,18766.0,Direct,,,View report (https://accesshub.pdc.wa.gov/node/26815),Transportation,airplanes,H and S Ways and Means Transportation
10145,26815-18767,26815,FE,17565,GANO & ASSOC*,Employer,18767,CAL PORTLAND COMPANY,16-Oct,11/10/2016,16472.0,CAL PORTLAND COMPANY,4000.0,0.0,4000.0,94.0,0.0,0.0,0.0,0.0,0.0,94.0,4094.0,18767.0,Direct,,,View report (https://accesshub.pdc.wa.gov/node/26815),Transportation,Aggregate,H and S Transportation Ag and Natural Resources
10146,26872-19458,26872,FE,17894,SCOTT M PLACK,Employer,19458,GROUP HEALTH COOPERATIVE,16-Oct,11/10/2016,16484.0,GROUP HEALTH COOPERATIVE,1000.0,0.0,1000.0,387.45,0.0,0.0,0.0,0.0,0.0,387.45,1387.45,19458.0,Direct,,,View report (https://accesshub.pdc.wa.gov/node/26872),Health Care,,"Gov, Health Care committee members, OIC"
10147,26904-18878,26904,FE,17589,GOVERNMENT RELATIONS SERVICES*,Employer,18878,IRON WORKERS DIST CNCL OF THE PNW,16-Oct,11/10/2016,16547.0,IRON WORKERS DIST CNCL OF THE PNW,2000.0,0.0,2000.0,0.0,0.0,0.0,0.0,0.0,0.0,0.0,2000.0,18878.0,Direct,,,View report (https://accesshub.pdc.wa.gov/node/26904),Transportation,transportation,transportation
10149,26815-18769,26815,FE,17565,GANO & ASSOC*,Employer,18769,Kapstone Paper and Packaging d/b/a WestRock,16-Oct,11/10/2016,16571.0,Kapstone Paper and Packaging d/b/a WestRock,5000.0,0.0,5000.0,0.0,0.0,0.0,0.0,0.0,0.0,0.0,5000.0,18769.0,Direct,,,View report (https://accesshub.pdc.wa.gov/node/26815),Energy and utilities,Paper mfg,"H and S Comm Labor, AG and Nat Resources Business"
10150,26815-18770,26815,FE,17565,GANO & ASSOC*,Employer,18770,KEYBANK,16-Oct,11/10/2016,16574.0,KEYBANK,1800.0,0.0,1800.0,0.0,0.0,0.0,0.0,0.0,0.0,0.0,1800.0,18770.0,Direct,,,View report (https://accesshub.pdc.wa.gov/node/26815),Financial institutions and insurance,Banking,H and S Financial Institutions
10152,26815-18771,26815,FE,17565,GANO & ASSOC*,Employer,18771,MCNA HEALTH CARE HOLDINGS,16-Oct,11/10/2016,16627.0,MCNA HEALTH CARE HOLDINGS,6500.0,0.0,6500.0,0.0,0.0,0.0,0.0,0.0,0.0,0.0,6500.0,18771.0,Direct,,,View report (https://accesshub.pdc.wa.gov/node/26815),Health Care,medicaid dental,"House and S Healthcare , Ways Means"
10154,26657-19249,26657,FE,17792,DAN MCGRADY,Employer,19249,PEMCO Insurance,16-Oct,11/10/2016,16770.0,PEMCO Insurance,4750.0,0.0,4750.0,0.0,0.0,15100.0,0.0,0.0,0.0,15100.0,19850.0,19249.0,Direct,,,View report (https://accesshub.pdc.wa.gov/node/26657),Financial institutions and insurance,None,Financial Institutions and insurance
10155,26815-18772,26815,FE,17565,GANO & ASSOC*,Employer,18772,ALTRIA CLIENT SERVICES LLC & ITS AFFILIATES,16-Oct,11/10/2016,16778.0,ALTRIA CLIENT SERVICES LLC & ITS AFFILIATES,6666.67,0.0,6666.67,0.0,0.0,75000.0,0.0,0.0,0.0,75000.0,81666.67,18772.0,Direct,,,View report (https://accesshub.pdc.wa.gov/node/26815),Fiscal,Tobacco,"H and S Ways Means, Commerce and Labor"
10156,26910-18127,26910,FE,17333,JENNIFER M ALLEN,Employer,18127,PLANNED PARENTHOOD ALLIANCE ADVOCATES,16-Oct,11/10/2016,16789.0,PLANNED PARENTHOOD ALLIANCE ADVOCATES,627.6,0.0,627.6,0.0,0.0,0.0,0.0,0.0,0.0,0.0,627.6,18127.0,Direct,,,View report (https://accesshub.pdc.wa.gov/node/26910),Health Care,Reproductive Health,"Health, Fiscal, DOH, HCA, OIC, GOV"
10157,26815-18773,26815,FE,17565,GANO & ASSOC*,Employer,18773,PREMERA BLUE CROSS,16-Oct,11/10/2016,16812.0,PREMERA BLUE CROSS,9583.33,0.0,9583.33,124.0,48.22,0.0,0.0,0.0,0.0,172.22,9755.55,18773.0,Direct,,,View report (https://accesshub.pdc.wa.gov/node/26815),Health Care,Health Care,H and S Healthcare
10159,24803-18166,24803,FE,17345,NANCY L ATWOOD,Employer,18166,PUGET SOUND ENERGY INC,16-Jul,11/10/2016,16828.0,PUGET SOUND ENERGY INC,5721.2,0.0,5721.2,27.68,109.18,22100.0,0.0,0.0,0.0,22236.86,27958.06,18166.0,Direct,,,View report (https://accesshub.pdc.wa.gov/node/24803),Energy and utilities,"Solar, Alternative Vehicles","TED, EET, Finance"
10160,26908-18166,26908,FE,17345,NANCY L ATWOOD,Employer,18166,PUGET SOUND ENERGY INC,16-Oct,11/10/2016,16828.0,PUGET SOUND ENERGY INC,1430.03,0.0,1430.03,0.0,0.0,9700.0,0.0,0.0,0.0,9700.0,11130.03,18166.0,Direct,,,View report (https://accesshub.pdc.wa.gov/node/26908),Energy and utilities,"Solar incentive, alternative vehicles","TED, Transportation, EET"
10161,26815-18774,26815,FE,17565,GANO & ASSOC*,Employer,18774,SCI Shared Resources LLC,16-Oct,11/10/2016,16884.0,SCI Shared Resources LLC,4000.0,0.0,4000.0,0.0,0.0,0.0,0.0,0.0,0.0,0.0,4000.0,18774.0,Direct,,,View report (https://accesshub.pdc.wa.gov/node/26815),Business and consumer affairs,Funeral,"H and S Commerce and Labor, Business, ways and means"
10162,26815-18775,26815,FE,17565,GANO & ASSOC*,Employer,18775,SCIENTIFIC GAMES CORPORATION,16-Oct,11/10/2016,16885.0,SCIENTIFIC GAMES CORPORATION,3000.0,0.0,3000.0,0.0,0.0,0.0,0.0,0.0,0.0,0.0,3000.0,18775.0,Direct,,,View report (https://accesshub.pdc.wa.gov/node/26815),Fiscal,Scratch tickets,"Wa state Lottery, H and S Commerce and Labor, ways means"
10163,26815-18776,26815,FE,17565,GANO & ASSOC*,Employer,18776,SHELL OIL CO,16-Oct,11/10/2016,16911.0,SHELL OIL CO,5000.0,0.0,5000.0,0.0,0.0,0.0,0.0,0.0,0.0,0.0,5000.0,18776.0,Direct,,,View report (https://accesshub.pdc.wa.gov/node/26815),Energy and utilities,Oil refinery,"Transportation, Ag and Nat Res, Commerce and Labor"
10164,26904-18879,26904,FE,17589,GOVERNMENT RELATIONS SERVICES*,Employer,18879,"GB AUCTIONS, INC",16-Oct,11/10/2016,16940.0,"GB AUCTIONS, INC",1250.0,0.0,1250.0,0.0,0.0,1000.0,0.0,0.0,0.0,1000.0,2250.0,18879.0,Direct,,,View report (https://accesshub.pdc.wa.gov/node/26904),Business and consumer affairs,automotive business issues,Capital budget
10165,26815-18777,26815,FE,17565,GANO & ASSOC*,Employer,18777,STE MICHELLE WINE ESTATES LLC,16-Oct,11/10/2016,16948.0,STE MICHELLE WINE ESTATES LLC,4500.0,0.0,4500.0,0.0,0.0,0.0,0.0,0.0,0.0,0.0,4500.0,18777.0,Direct,,,View report (https://accesshub.pdc.wa.gov/node/26815),Business and consumer affairs,Wine,H and S Ag Natural Resources
10166,26815-18778,26815,FE,17565,GANO & ASSOC*,Employer,18778,NEW SUNCADIA LLC,16-Oct,11/10/2016,16956.0,NEW SUNCADIA LLC,3250.0,0.0,3250.0,94.0,0.0,0.0,0.0,0.0,0.0,94.0,3344.0,18778.0,Direct,,,View report (https://accesshub.pdc.wa.gov/node/26815),Business and consumer affairs,Resort and water rights,H and S Ag and Natural Resources
10167,26841-19573,26841,FE,17939,JOHN SCHLATTER,Employer,19573,TAKEDA PHARMACEUTICALS,16-Oct,11/10/2016,16970.0,TAKEDA PHARMACEUTICALS,2500.0,0.0,2500.0,0.0,0.0,0.0,0.0,0.0,0.0,0.0,2500.0,19573.0,Direct,,,View report (https://accesshub.pdc.wa.gov/node/26841),Health Care,,Legislature
10168,26815-18779,26815,FE,17565,GANO & ASSOC*,Employer,18779,TUSK VENTURES LLC,16-Oct,11/10/2016,16999.0,TUSK VENTURES LLC,1250.0,0.0,1250.0,0.0,0.0,0.0,0.0,0.0,1250.0,1250.0,2500.0,18779.0,Direct,,,View report (https://accesshub.pdc.wa.gov/node/26815),Labor,Labor,H and S Commerce and Labor
10169,26815-18780,26815,FE,17565,GANO & ASSOC*,Employer,18780,Uber Technologies Inc and Affiliates,16-Oct,11/10/2016,17001.0,Uber Technologies Inc and Affiliates,7500.0,0.0,7500.0,0.0,0.0,0.0,0.0,0.0,0.0,0.0,7500.0,18780.0,Direct,,,View report (https://accesshub.pdc.wa.gov/node/26815),Transportation,Transportation,"Hand S Transportation, Commerce and Labor, Business"
10170,26911-19114,26911,FE,17726,COLLEEN LAING,Employer,19114,UNITED WAY OF KING CO,16-Oct,11/10/2016,17018.0,UNITED WAY OF KING CO,2208.0,0.0,2208.0,168.25,0.0,0.0,0.0,0.0,0.0,168.25,2376.25,19114.0,Direct,,,View report (https://accesshub.pdc.wa.gov/node/26911),Human services,Various,Various King County House & Senate members; Economic Security Administration of DSHS
10172,26815-18781,26815,FE,17565,GANO & ASSOC*,Employer,18781,WALMART INC.,16-Oct,11/10/2016,17042.0,WALMART INC.,7000.0,0.0,7000.0,0.0,0.0,0.0,0.0,0.0,0.0,0.0,7000.0,18781.0,Direct,,,View report (https://accesshub.pdc.wa.gov/node/26815),Business and consumer affairs,Retail,"H and S Business, Commerce and Labor, WAys Means Healthcare"
10178,26868-19556,26868,FE,17927,GARY ROWE,Employer,19556,WA STATE ASSN OF COUNTIES (WSAC),16-Oct,11/10/2016,17215.0,WA STATE ASSN OF COUNTIES (WSAC),228.0,0.0,228.0,0.0,0.0,0.0,0.0,0.0,0.0,0.0,228.0,19556.0,Direct,,,View report (https://accesshub.pdc.wa.gov/node/26868),Local government,Local government,Local government
10183,26815-18782,26815,FE,17565,GANO & ASSOC*,Employer,18782,WELLS FARGO & CO,16-Oct,11/10/2016,17296.0,WELLS FARGO & CO,3250.0,0.0,3250.0,0.0,0.0,0.0,0.0,0.0,0.0,0.0,3250.0,18782.0,Direct,,,View report (https://accesshub.pdc.wa.gov/node/26815),Financial institutions and insurance,Banking,H and S Financial Institutions
10185,26798-26037,26798,FE,26001,BMcConsulting,Employer,26037,City of Bremerton,16-Oct,11/10/2016,26023.0,City of Bremerton,5000.0,0.0,5000.0,0.0,0.0,0.0,0.0,0.0,0.0,0.0,5000.0,26037.0,Direct,,,View report (https://accesshub.pdc.wa.gov/node/26798),State government,,
10200,26479-19423,26479,FE,17876,E & A STRATEGIC CONSULTING*,Employer,19423,ARTIZEN GROUP LLC,16-Sep,11/11/2016,16141.0,ARTIZEN GROUP LLC,2000.0,0.0,2000.0,0.0,0.0,0.0,0.0,0.0,0.0,0.0,2000.0,19423.0,Direct,,,View report (https://accesshub.pdc.wa.gov/node/26479),Business and consumer affairs,Marijuana rules,LCB
10201,26939-19423,26939,FE,17876,E & A STRATEGIC CONSULTING*,Employer,19423,ARTIZEN GROUP LLC,16-Oct,11/11/2016,16141.0,ARTIZEN GROUP LLC,2000.0,0.0,2000.0,0.0,0.0,0.0,0.0,0.0,0.0,0.0,2000.0,19423.0,Direct,,,View report (https://accesshub.pdc.wa.gov/node/26939),Business and consumer affairs,Marijuana Rules,Liquor and Cannabis Board
10202,26479-19424,26479,FE,17876,E & A STRATEGIC CONSULTING*,Employer,19424,CANNABIS RETAILERS FOR SMART REGULATION,16-Sep,11/11/2016,16225.0,CANNABIS RETAILERS FOR SMART REGULATION,2500.0,0.0,2500.0,0.0,0.0,0.0,0.0,0.0,0.0,0.0,2500.0,19424.0,Direct,,,View report (https://accesshub.pdc.wa.gov/node/26479),Business and consumer affairs,Marijuana rules,LCB
10203,26939-19424,26939,FE,17876,E & A STRATEGIC CONSULTING*,Employer,19424,CANNABIS RETAILERS FOR SMART REGULATION,16-Oct,11/11/2016,16225.0,CANNABIS RETAILERS FOR SMART REGULATION,2500.0,0.0,2500.0,0.0,0.0,0.0,0.0,0.0,0.0,0.0,2500.0,19424.0,Direct,,,View report (https://accesshub.pdc.wa.gov/node/26939),Business and consumer affairs,Marijuana Rules,Liquor and Cannabis Board
10204,26962-19331,26962,FE,17832,JOSEPHINE V TAMAYO MURRAY,Employer,19331,Catholic Community Services of Western WA,16-Oct,11/11/2016,16239.0,Catholic Community Services of Western WA,467.0,0.0,467.0,0.0,0.0,0.0,0.0,0.0,0.0,0.0,467.0,19331.0,Direct,,,View report (https://accesshub.pdc.wa.gov/node/26962),Human services,Capital Budget,"House, Dept. of Commerce, DSHS"
10205,26959-19915,26959,FE,18108,JENNIFER ZIEGLER,Employer,19915,CITY OF BURIEN,16-Oct,11/11/2016,16275.0,CITY OF BURIEN,3625.0,0.0,3625.0,0.0,0.0,0.0,0.0,0.0,0.0,0.0,3625.0,19915.0,Direct,,,View report (https://accesshub.pdc.wa.gov/node/26959),,,
10206,26959-19916,26959,FE,18108,JENNIFER ZIEGLER,Employer,19916,CITY OF CHENEY,16-Oct,11/11/2016,16277.0,CITY OF CHENEY,1500.0,0.0,1500.0,0.0,0.0,0.0,0.0,0.0,0.0,0.0,1500.0,19916.0,Direct,,,View report (https://accesshub.pdc.wa.gov/node/26959),,,
10207,26959-19917,26959,FE,18108,JENNIFER ZIEGLER,Employer,19917,CITY OF EDMONDS,16-Oct,11/11/2016,16280.0,CITY OF EDMONDS,3358.0,0.0,3358.0,0.0,0.0,0.0,0.0,0.0,0.0,0.0,3358.0,19917.0,Direct,,,View report (https://accesshub.pdc.wa.gov/node/26959),Transportation,Transportation Projects,Transportation Committee
10208,26959-19987,26959,FE,18108,JENNIFER ZIEGLER,Employer,19987,CITY OF LONGVIEW (MARK O BROWN),16-Oct,11/11/2016,16295.0,CITY OF LONGVIEW,1000.0,0.0,1000.0,0.0,0.0,0.0,0.0,0.0,0.0,0.0,1000.0,19987.0,Subcontract,17413.0,MARK O BROWN,View report (https://accesshub.pdc.wa.gov/node/26959),,,
10209,26959-20035,26959,FE,18108,JENNIFER ZIEGLER,Employer,20035,CITY OF LAKE STEVENS (OUTCOMES BY LEVY LLC*),16-Oct,11/11/2016,16297.0,CITY OF LAKE STEVENS,2600.0,0.0,2600.0,0.0,0.0,0.0,0.0,0.0,0.0,0.0,2600.0,20035.0,Subcontract,17870.0,OUTCOMES BY LEVY LLC*,View report (https://accesshub.pdc.wa.gov/node/26959),,,
10210,26959-20055,26959,FE,18108,JENNIFER ZIEGLER,Employer,20055,City of Vancouver (MARK O BROWN),16-Oct,11/11/2016,16319.0,City of Vancouver,1000.0,0.0,1000.0,0.0,0.0,0.0,0.0,0.0,0.0,0.0,1000.0,20055.0,Subcontract,17413.0,MARK O BROWN,View report (https://accesshub.pdc.wa.gov/node/26959),,,
10211,26959-19985,26959,FE,18108,JENNIFER ZIEGLER,Employer,19985,CITY OF YAKIMA (James P Justin (Government Relations Consulting Inc.)),16-Oct,11/11/2016,16321.0,CITY OF YAKIMA,1500.0,0.0,1500.0,0.0,0.0,0.0,0.0,0.0,0.0,0.0,1500.0,19985.0,Subcontract,17688.0,James P Justin (Government Relations Consulting Inc.),View report (https://accesshub.pdc.wa.gov/node/26959),,,
10212,26732-18566,26732,FE,17496,DOTY & ASSOC INC*,Employer,18566,ENTERPRISE HOLDINGS LLC,16-Oct,11/11/2016,16396.0,ENTERPRISE HOLDINGS LLC,1650.0,0.0,1650.0,0.0,0.0,0.0,0.0,0.0,0.0,0.0,1650.0,18566.0,Direct,,,View report (https://accesshub.pdc.wa.gov/node/26732),State government,,
10213,26959-19918,26959,FE,18108,JENNIFER ZIEGLER,Employer,19918,EAZE,16-Oct,11/11/2016,16401.0,EAZE,4000.0,0.0,4000.0,0.0,0.0,0.0,0.0,0.0,0.0,0.0,4000.0,19918.0,Direct,,,View report (https://accesshub.pdc.wa.gov/node/26959),Business and consumer affairs,Technology,Commerce and Gaming
10214,26732-18567,26732,FE,17496,DOTY & ASSOC INC*,Employer,18567,FIRE SPRINKLER ADVISORY BD OF PUGET SOUND,16-Oct,11/11/2016,16444.0,FIRE SPRINKLER ADVISORY BD OF PUGET SOUND,1000.0,0.0,1000.0,25.0,0.0,0.0,0.0,0.0,0.0,25.0,1025.0,18567.0,Direct,,,View report (https://accesshub.pdc.wa.gov/node/26732),State government,,
10215,26917-18464,26917,FE,17455,CLIFFORD TRAISMAN & ASSOC*,Employer,18464,HIGHLINE PUBLIC SCHOOLS,16-Oct,11/11/2016,16502.0,HIGHLINE PUBLIC SCHOOLS,1000.0,0.0,1000.0,0.0,0.0,0.0,0.0,0.0,0.0,0.0,1000.0,18464.0,Direct,,,View report (https://accesshub.pdc.wa.gov/node/26917),Education,K-12 Funding,Legislature
10216,26959-19919,26959,FE,18108,JENNIFER ZIEGLER,Employer,19919,HNTB CORP,16-Oct,11/11/2016,16507.0,HNTB CORP,4000.0,0.0,4000.0,0.0,0.0,0.0,0.0,0.0,0.0,0.0,4000.0,19919.0,Direct,,,View report (https://accesshub.pdc.wa.gov/node/26959),Transportation,I-405 funding,Transportation Committees
10217,26732-18568,26732,FE,17496,DOTY & ASSOC INC*,Employer,18568,KITSAP TRANSIT,16-Oct,11/11/2016,16581.0,KITSAP TRANSIT,5100.0,0.0,5100.0,185.48,0.0,0.0,0.0,0.0,0.0,185.48,5285.48,18568.0,Direct,,,View report (https://accesshub.pdc.wa.gov/node/26732),State government,,
10218,26959-19931,26959,FE,18108,JENNIFER ZIEGLER,Employer,19931,LES SCHWAB TIRE CENTERS (PATRICK DUNN & ASSOCIATES LTD*),16-Oct,11/11/2016,16596.0,LES SCHWAB TIRE CENTERS,750.0,0.0,750.0,0.0,0.0,0.0,0.0,0.0,0.0,0.0,750.0,19931.0,Subcontract,17505.0,PATRICK DUNN & ASSOCIATES LTD*,View report (https://accesshub.pdc.wa.gov/node/26959),,,
10220,26732-18569,26732,FE,17496,DOTY & ASSOC INC*,Employer,18569,MUCKLESHOOT INDIAN TRIBE,16-Oct,11/11/2016,16650.0,MUCKLESHOOT INDIAN TRIBE,6250.0,0.0,6250.0,0.0,0.0,0.0,0.0,0.0,0.0,0.0,6250.0,18569.0,Direct,,,View report (https://accesshub.pdc.wa.gov/node/26732),State government,,
10221,26963-18911,26963,FE,17601,LAURA W GROSHONG,Employer,18911,NORTHWEST ALLIANCE FOR PSYCHOANALYTIC STUDY,16-Oct,11/11/2016,16698.0,NORTHWEST ALLIANCE FOR PSYCHOANALYTIC STUDY,550.0,0.0,550.0,0.0,0.0,0.0,0.0,0.0,0.0,0.0,550.0,18911.0,Direct,,,View report (https://accesshub.pdc.wa.gov/node/26963),,,
10222,26934-19905,26934,FE,18098,CHRISTINA WONG,Employer,19905,Northwest Harvest EMM,16-Oct,11/11/2016,16708.0,Northwest Harvest EMM,566.77,0.0,566.77,14.18,0.0,200.0,0.0,0.0,0.0,214.18,780.95,19905.0,Direct,,,View report (https://accesshub.pdc.wa.gov/node/26934),Human services,"farm to school, school breakfast, TANF","WSDA, Tarleton, DSHS"
10223,26732-18571,26732,FE,17496,DOTY & ASSOC INC*,Employer,18571,PARATRANSIT SERVICES,16-Oct,11/11/2016,16762.0,PARATRANSIT SERVICES,1500.0,0.0,1500.0,25.0,0.0,0.0,0.0,0.0,0.0,25.0,1525.0,18571.0,Direct,,,View report (https://accesshub.pdc.wa.gov/node/26732),State government,,
10225,26732-18572,26732,FE,17496,DOTY & ASSOC INC*,Employer,18572,PORT OF BREMERTON,16-Oct,11/11/2016,16793.0,PORT OF BREMERTON,2000.0,0.0,2000.0,0.0,0.0,0.0,0.0,0.0,0.0,0.0,2000.0,18572.0,Direct,,,View report (https://accesshub.pdc.wa.gov/node/26732),State government,,
10227,26917-18465,26917,FE,17455,CLIFFORD TRAISMAN & ASSOC*,Employer,18465,RENEWABLE NORTHWEST,16-Oct,11/11/2016,16854.0,RENEWABLE NORTHWEST,2000.0,0.0,2000.0,0.0,0.0,0.0,0.0,0.0,0.0,0.0,2000.0,18465.0,Direct,,,View report (https://accesshub.pdc.wa.gov/node/26917),Energy and utilities,Energy,Energy Committees
10228,26963-18913,26963,FE,17601,LAURA W GROSHONG,Employer,18913,SEATTLE PSYCHOANALYTIC SOCIETY & INSTITUTE,16-Oct,11/11/2016,16893.0,SEATTLE PSYCHOANALYTIC SOCIETY & INSTITUTE,625.0,0.0,625.0,0.0,0.0,0.0,0.0,0.0,0.0,0.0,625.0,18913.0,Direct,,,View report (https://accesshub.pdc.wa.gov/node/26963),,,
10229,26917-18466,26917,FE,17455,CLIFFORD TRAISMAN & ASSOC*,Employer,18466,SEATTLE OPERA,16-Oct,11/11/2016,16897.0,SEATTLE OPERA,2000.0,0.0,2000.0,0.0,0.0,0.0,0.0,0.0,0.0,0.0,2000.0,18466.0,Direct,,,View report (https://accesshub.pdc.wa.gov/node/26917),Fiscal,Arts funding,Seattle Delegation
10230,26917-18467,26917,FE,17455,CLIFFORD TRAISMAN & ASSOC*,Employer,18467,SEATTLE PUBLIC SCHOOLS,16-Oct,11/11/2016,16898.0,SEATTLE PUBLIC SCHOOLS,2500.0,0.0,2500.0,0.0,0.0,0.0,0.0,0.0,0.0,0.0,2500.0,18467.0,Direct,,,View report (https://accesshub.pdc.wa.gov/node/26917),Education,K-12 Funding,Seattle Delegation
10231,26959-19920,26959,FE,18108,JENNIFER ZIEGLER,Employer,19920,SMALL & MIDSIZE TRANSIT ALLIANCE,16-Oct,11/11/2016,16920.0,SMALL & MIDSIZE TRANSIT ALLIANCE,4000.0,0.0,4000.0,0.0,0.0,0.0,0.0,0.0,0.0,0.0,4000.0,19920.0,Direct,,,View report (https://accesshub.pdc.wa.gov/node/26959),Energy and utilities,Electric Buses,Governor's Office
10232,26932-19454,26932,FE,17890,LEE PHILLIPS,Employer,19454,SUNRISE SERVICES INC,16-Oct,11/11/2016,16959.0,SUNRISE SERVICES INC,384.0,0.0,384.0,0.0,0.0,0.0,0.0,0.0,0.0,0.0,384.0,19454.0,Direct,,,View report (https://accesshub.pdc.wa.gov/node/26932),Fiscal,Budget,"Appropriations, Ways & Meeans"
10233,24480-19786,24480,FE,18036,SUSAN S TRACY,Employer,19786,WA ACADEMY OF EYE PHYSICIANS & SURGEONS,16-Jul,11/11/2016,17051.0,WA ACADEMY OF EYE PHYSICIANS & SURGEONS,3522.5,0.0,3522.5,0.0,0.0,0.0,0.0,0.0,0.0,0.0,3522.5,19786.0,Direct,,,View report (https://accesshub.pdc.wa.gov/node/24480),Health Care,medical eye care,health care
10234,25482-19786,25482,FE,18036,SUSAN S TRACY,Employer,19786,WA ACADEMY OF EYE PHYSICIANS & SURGEONS,16-Aug,11/11/2016,17051.0,WA ACADEMY OF EYE PHYSICIANS & SURGEONS,3522.5,0.0,3522.5,0.0,0.0,0.0,0.0,0.0,0.0,0.0,3522.5,19786.0,Direct,,,View report (https://accesshub.pdc.wa.gov/node/25482),Health Care,medical eye care,hc
10235,26761-19786,26761,FE,18036,SUSAN S TRACY,Employer,19786,WA ACADEMY OF EYE PHYSICIANS & SURGEONS,16-Sep,11/11/2016,17051.0,WA ACADEMY OF EYE PHYSICIANS & SURGEONS,3522.5,0.0,3522.5,0.0,0.0,0.0,0.0,0.0,0.0,0.0,3522.5,19786.0,Direct,,,View report (https://accesshub.pdc.wa.gov/node/26761),Health Care,medical eye care,Health Care
10236,26924-19786,26924,FE,18036,SUSAN S TRACY,Employer,19786,WA ACADEMY OF EYE PHYSICIANS & SURGEONS,16-Oct,11/11/2016,17051.0,WA ACADEMY OF EYE PHYSICIANS & SURGEONS,3522.5,0.0,3522.5,0.0,0.0,0.0,0.0,0.0,0.0,0.0,3522.5,19786.0,Direct,,,View report (https://accesshub.pdc.wa.gov/node/26924),Health Care,medical eye care,health care
10237,24480-19788,24480,FE,18036,SUSAN S TRACY,Employer,19788,WA AMBULATORY SURGERY CENTER ASSN,16-Jul,11/11/2016,17060.0,WA AMBULATORY SURGERY CENTER ASSN,3333.33,0.0,3333.33,0.0,0.0,0.0,0.0,0.0,0.0,0.0,3333.33,19788.0,Direct,,,View report (https://accesshub.pdc.wa.gov/node/24480),Health Care,surgery center regulation,"health care, appropriations, wm, DOH"
10238,25482-19788,25482,FE,18036,SUSAN S TRACY,Employer,19788,WA AMBULATORY SURGERY CENTER ASSN,16-Aug,11/11/2016,17060.0,WA AMBULATORY SURGERY CENTER ASSN,3333.33,0.0,3333.33,0.0,0.0,0.0,0.0,0.0,0.0,0.0,3333.33,19788.0,Direct,,,View report (https://accesshub.pdc.wa.gov/node/25482),Health Care,surgery center licensing and regulation,"HC, DOH, app, wm"
10239,26761-19788,26761,FE,18036,SUSAN S TRACY,Employer,19788,WA AMBULATORY SURGERY CENTER ASSN,16-Sep,11/11/2016,17060.0,WA AMBULATORY SURGERY CENTER ASSN,3333.33,0.0,3333.33,0.0,0.0,0.0,0.0,0.0,0.0,0.0,3333.33,19788.0,Direct,,,View report (https://accesshub.pdc.wa.gov/node/26761),Health Care,surgery center licensing and regulation,"Health Care, Appropriations, WM, DOH"
10240,26924-19788,26924,FE,18036,SUSAN S TRACY,Employer,19788,WA AMBULATORY SURGERY CENTER ASSN,16-Oct,11/11/2016,17060.0,WA AMBULATORY SURGERY CENTER ASSN,3333.33,0.0,3333.33,0.0,0.0,0.0,0.0,0.0,0.0,0.0,3333.33,19788.0,Direct,,,View report (https://accesshub.pdc.wa.gov/node/26924),Health Care,surgery center regulation,"health care, appropriations, wm, DOH"
10241,26732-18573,26732,FE,17496,DOTY & ASSOC INC*,Employer,18573,WA BAIL BOND COALITION,16-Oct,11/11/2016,17064.0,WA BAIL BOND COALITION,2000.0,0.0,2000.0,55.84,0.0,2250.0,0.0,0.0,0.0,2305.84,4305.84,18573.0,Direct,,,View report (https://accesshub.pdc.wa.gov/node/26732),State government,,
10242,24480-19789,24480,FE,18036,SUSAN S TRACY,Employer,19789,"WA Chapter, ACEP",16-Jul,11/11/2016,17069.0,"WA Chapter, ACEP",1500.0,0.0,1500.0,0.0,0.0,0.0,0.0,0.0,0.0,0.0,1500.0,19789.0,Direct,,,View report (https://accesshub.pdc.wa.gov/node/24480),Health Care,emergency medical care,"health care, appropriations, wm, OIC"
10243,25482-19789,25482,FE,18036,SUSAN S TRACY,Employer,19789,"WA Chapter, ACEP",16-Aug,11/11/2016,17069.0,"WA Chapter, ACEP",1500.0,0.0,1500.0,0.0,0.0,0.0,0.0,0.0,0.0,0.0,1500.0,19789.0,Direct,,,View report (https://accesshub.pdc.wa.gov/node/25482),Health Care,emergency medicine,"hc, wm, app"
10244,26761-19789,26761,FE,18036,SUSAN S TRACY,Employer,19789,"WA Chapter, ACEP",16-Sep,11/11/2016,17069.0,"WA Chapter, ACEP",1500.0,0.0,1500.0,0.0,0.0,0.0,0.0,0.0,0.0,0.0,1500.0,19789.0,Direct,,,View report (https://accesshub.pdc.wa.gov/node/26761),Health Care,emergency medicine,"Health Care, OIC"
10245,26924-19789,26924,FE,18036,SUSAN S TRACY,Employer,19789,"WA Chapter, ACEP",16-Oct,11/11/2016,17069.0,"WA Chapter, ACEP",1500.0,0.0,1500.0,0.0,0.0,0.0,0.0,0.0,0.0,0.0,1500.0,19789.0,Direct,,,View report (https://accesshub.pdc.wa.gov/node/26924),Health Care,emergency medical care,"health care, appropriations, wm, OIC"
10246,26917-18468,26917,FE,17455,CLIFFORD TRAISMAN & ASSOC*,Employer,18468,Washington Conservation Action,16-Oct,11/11/2016,17091.0,Washington Conservation Action,3000.0,0.0,3000.0,0.0,0.0,0.0,0.0,0.0,0.0,0.0,3000.0,18468.0,Direct,,,View report (https://accesshub.pdc.wa.gov/node/26917),Energy and utilities,Enviro General,Energy Committees.Gov Administration
10247,26917-18469,26917,FE,17455,CLIFFORD TRAISMAN & ASSOC*,Employer,18469,Washington Conservation Action Education Fund,16-Oct,11/11/2016,17100.0,Washington Conservation Action Education Fund,3000.0,0.0,3000.0,0.0,0.0,0.0,0.0,0.0,0.0,0.0,3000.0,18469.0,Direct,,,View report (https://accesshub.pdc.wa.gov/node/26917),Energy and utilities,Enviro General,Energy Committees
10248,26761-19790,26761,FE,18036,SUSAN S TRACY,Employer,19790,WA POISON CENTER,16-Sep,11/11/2016,17166.0,WA POISON CENTER,350.0,0.0,350.0,0.0,0.0,0.0,0.0,0.0,0.0,0.0,350.0,19790.0,Direct,,,View report (https://accesshub.pdc.wa.gov/node/26761),Health Care,poison response,"Health Care, Appropriations, WM"
10249,26924-19790,26924,FE,18036,SUSAN S TRACY,Employer,19790,WA POISON CENTER,16-Oct,11/11/2016,17166.0,WA POISON CENTER,350.0,0.0,350.0,0.0,0.0,0.0,0.0,0.0,0.0,0.0,350.0,19790.0,Direct,,,View report (https://accesshub.pdc.wa.gov/node/26924),Health Care,poisonings,"health care, appropriations, wm"
10250,24480-19790,24480,FE,18036,SUSAN S TRACY,Employer,19790,WA POISON CENTER,16-Jul,11/11/2016,17166.0,WA POISON CENTER,350.0,0.0,350.0,0.0,0.0,0.0,0.0,0.0,0.0,0.0,350.0,19790.0,Direct,,,View report (https://accesshub.pdc.wa.gov/node/24480),Health Care,poisonings and education,"health care, appropriations, wm, DOH"
10251,25482-19790,25482,FE,18036,SUSAN S TRACY,Employer,19790,WA POISON CENTER,16-Aug,11/11/2016,17166.0,WA POISON CENTER,350.0,0.0,350.0,0.0,0.0,0.0,0.0,0.0,0.0,0.0,350.0,19790.0,Direct,,,View report (https://accesshub.pdc.wa.gov/node/25482),Health Care,poisoning response,"HC, app, wm"
10252,26732-18574,26732,FE,17496,DOTY & ASSOC INC*,Employer,18574,WA REFLEXOLOGY ASSN,16-Oct,11/11/2016,17177.0,WA REFLEXOLOGY ASSN,250.0,0.0,250.0,0.0,0.0,0.0,0.0,0.0,0.0,0.0,250.0,18574.0,Direct,,,View report (https://accesshub.pdc.wa.gov/node/26732),State government,,
10253,26959-19922,26959,FE,18108,JENNIFER ZIEGLER,Employer,19922,WA STATE ASSN OF COUNTIES (WSAC),16-Oct,11/11/2016,17215.0,WA STATE ASSN OF COUNTIES (WSAC),2000.0,0.0,2000.0,0.0,0.0,0.0,0.0,0.0,0.0,0.0,2000.0,19922.0,Direct,,,View report (https://accesshub.pdc.wa.gov/node/26959),State government,Public Records,State Government Committees
10254,26919-19493,26919,FE,17902,Ryan Pricco,Employer,19493,Child Care Aware of WA,16-Sep,11/11/2016,17231.0,Child Care Aware of WA,773.03,0.0,773.03,126.03,0.0,0.0,0.0,0.0,0.0,126.03,899.06,19493.0,Direct,,,View report (https://accesshub.pdc.wa.gov/node/26919),Education,child care,"DEL, House Appropriations, Senate Ways & Means, Senate Early Learning & K-12 Education, House Early Learning & Human Services"
10255,26963-18914,26963,FE,17601,LAURA W GROSHONG,Employer,18914,WA ST COALITION MENTAL HLTH PROF & CONSUMERS,16-Oct,11/11/2016,17235.0,WA ST COALITION MENTAL HLTH PROF & CONSUMERS,500.0,0.0,500.0,0.0,0.0,0.0,0.0,0.0,0.0,0.0,500.0,18914.0,Direct,,,View report (https://accesshub.pdc.wa.gov/node/26963),Health Care,insurance,OIC
10256,26732-18576,26732,FE,17496,DOTY & ASSOC INC*,Employer,18576,WA ST EMERGENCY MANAGERS ASSN,16-Oct,11/11/2016,17242.0,WA ST EMERGENCY MANAGERS ASSN,1000.0,0.0,1000.0,40.0,0.0,0.0,0.0,0.0,0.0,40.0,1040.0,18576.0,Direct,,,View report (https://accesshub.pdc.wa.gov/node/26732),State government,,
10257,26927-19722,26927,FE,18007,JOHN STUHLMILLER,Employer,19722,WA ST FARM BUREAU,16-Oct,11/11/2016,17246.0,WA ST FARM BUREAU,2000.0,0.0,2000.0,0.0,0.0,0.0,0.0,0.0,0.0,0.0,2000.0,19722.0,Direct,,,View report (https://accesshub.pdc.wa.gov/node/26927),Agriculture,general ag issues,Various agencies
10258,26732-18577,26732,FE,17496,DOTY & ASSOC INC*,Employer,18577,WA ST ASSN OF FIRE CHIEFS,16-Oct,11/11/2016,17247.0,WA ST ASSN OF FIRE CHIEFS,2291.94,0.0,2291.94,974.85,0.0,0.0,0.0,0.0,0.0,974.85,3266.79,18577.0,Direct,,,View report (https://accesshub.pdc.wa.gov/node/26732),State government,,
10260,26951-19613,26951,FE,17960,JEB C SHEPARD,Employer,19613,WA ST MEDICAL ASSN,16-Oct,11/11/2016,17261.0,WA ST MEDICAL ASSN,4500.0,0.0,4500.0,0.0,0.0,0.0,0.0,0.0,0.0,0.0,4500.0,19613.0,Direct,,,View report (https://accesshub.pdc.wa.gov/node/26951),Health Care,healthcare,"OIC, HCA"
10261,24480-19792,24480,FE,18036,SUSAN S TRACY,Employer,19792,WA ST MEDICAL ASSN,16-Jul,11/11/2016,17261.0,WA ST MEDICAL ASSN,4620.0,0.0,4620.0,0.0,0.0,0.0,0.0,0.0,0.0,0.0,4620.0,19792.0,Direct,,,View report (https://accesshub.pdc.wa.gov/node/24480),Health Care,medical care,"Health care, appropriations, wm"
10262,26950-18977,26950,FE,17648,LUCY A HOMANS,Employer,18977,WA ST PSYCHOLOGICAL ASSN,16-Oct,11/11/2016,17269.0,WA ST PSYCHOLOGICAL ASSN,3000.0,0.0,3000.0,0.0,0.0,0.0,0.0,0.0,0.0,0.0,3000.0,18977.0,Direct,,,View report (https://accesshub.pdc.wa.gov/node/26950),Health Care,Prior authorization rule making,OIC
10263,26959-19923,26959,FE,18108,JENNIFER ZIEGLER,Employer,19923,WA ST PATROL LIEUTENANTS AND CAPTAINS ASSN,16-Oct,11/11/2016,17274.0,WA ST PATROL LIEUTENANTS AND CAPTAINS ASSN,1500.0,0.0,1500.0,0.0,0.0,0.0,0.0,0.0,0.0,0.0,1500.0,19923.0,Direct,,,View report (https://accesshub.pdc.wa.gov/node/26959),,,
10264,26963-18915,26963,FE,17601,LAURA W GROSHONG,Employer,18915,WA ST SOCIETY FOR CLINICAL SOCIAL WORK,16-Oct,11/11/2016,17284.0,WA ST SOCIETY FOR CLINICAL SOCIAL WORK,500.0,0.0,500.0,0.0,0.0,0.0,0.0,0.0,0.0,0.0,500.0,18915.0,Direct,,,View report (https://accesshub.pdc.wa.gov/node/26963),Health Care,mental health,"Sen. Frockt, Rep. Cody"
10265,24480-19793,24480,FE,18036,SUSAN S TRACY,Employer,19793,WA ST SOC OF ORAL/MAXILLOFACIAL SURGERY,16-Jul,11/11/2016,17285.0,WA ST SOC OF ORAL/MAXILLOFACIAL SURGERY,1000.0,0.0,1000.0,0.0,0.0,0.0,0.0,0.0,0.0,0.0,1000.0,19793.0,Direct,,,View report (https://accesshub.pdc.wa.gov/node/24480),Health Care,oral surgery practice,Health Care
10266,25482-19793,25482,FE,18036,SUSAN S TRACY,Employer,19793,WA ST SOC OF ORAL/MAXILLOFACIAL SURGERY,16-Aug,11/11/2016,17285.0,WA ST SOC OF ORAL/MAXILLOFACIAL SURGERY,1000.0,0.0,1000.0,0.0,0.0,0.0,0.0,0.0,0.0,0.0,1000.0,19793.0,Direct,,,View report (https://accesshub.pdc.wa.gov/node/25482),Health Care,oral surgery practice,HC
10267,26761-19793,26761,FE,18036,SUSAN S TRACY,Employer,19793,WA ST SOC OF ORAL/MAXILLOFACIAL SURGERY,16-Sep,11/11/2016,17285.0,WA ST SOC OF ORAL/MAXILLOFACIAL SURGERY,1000.0,0.0,1000.0,0.0,0.0,0.0,0.0,0.0,0.0,0.0,1000.0,19793.0,Direct,,,View report (https://accesshub.pdc.wa.gov/node/26761),Health Care,oral surgery practice,Health Care
10268,26924-19793,26924,FE,18036,SUSAN S TRACY,Employer,19793,WA ST SOC OF ORAL/MAXILLOFACIAL SURGERY,16-Oct,11/11/2016,17285.0,WA ST SOC OF ORAL/MAXILLOFACIAL SURGERY,1000.0,0.0,1000.0,0.0,0.0,0.0,0.0,0.0,0.0,0.0,1000.0,19793.0,Direct,,,View report (https://accesshub.pdc.wa.gov/node/26924),Health Care,oral surgery practice,health care
10270,26953-19019,26953,FE,17671,CATHERINE E JACOY,Employer,19019,WINE INSTITUTE,16-Oct,11/11/2016,17312.0,WINE INSTITUTE,1500.0,0.0,1500.0,0.0,0.0,0.0,0.0,0.0,0.0,0.0,1500.0,19019.0,Direct,,,View report (https://accesshub.pdc.wa.gov/node/26953),Business and consumer affairs,Changes to Alcohol Impact Area Rule,Washington State Liquor and Canibus Board
10271,26959-19924,26959,FE,18108,JENNIFER ZIEGLER,Employer,19924,WOODLAND PARK ZOO SOCIETY,16-Oct,11/11/2016,17315.0,WOODLAND PARK ZOO SOCIETY,4000.0,0.0,4000.0,0.0,0.0,0.0,0.0,0.0,0.0,0.0,4000.0,19924.0,Direct,,,View report (https://accesshub.pdc.wa.gov/node/26959),,,
10272,26753-19241,26753,FE,17787,Patricia McDaid-O'Neill,Employer,19241,ASTRAZENECA PHARMACEUTICALS LP,16-Oct,11/11/2016,17328.0,ASTRAZENECA PHARMACEUTICALS LP,2800.0,0.0,2800.0,0.0,0.0,2000.0,0.0,0.0,0.0,2000.0,4800.0,19241.0,Direct,,,View report (https://accesshub.pdc.wa.gov/node/26753),Health Care,Pharmaceuticals,Rep.Sharon Nelson
10273,26479-25029,26479,FE,17876,E & A STRATEGIC CONSULTING*,Employer,25029,Synergy Brands WA,16-Sep,11/11/2016,25028.0,Synergy Brands WA,2500.0,0.0,2500.0,0.0,0.0,0.0,0.0,0.0,0.0,0.0,2500.0,25029.0,Direct,,,View report (https://accesshub.pdc.wa.gov/node/26479),Business and consumer affairs,Marijuana rules,LCB
10274,26939-25029,26939,FE,17876,E & A STRATEGIC CONSULTING*,Employer,25029,Synergy Brands WA,16-Oct,11/11/2016,25028.0,Synergy Brands WA,2500.0,0.0,2500.0,0.0,0.0,0.0,0.0,0.0,0.0,0.0,2500.0,25029.0,Direct,,,View report (https://accesshub.pdc.wa.gov/node/26939),Business and consumer affairs,Marijuana Rules,Liquor and Cannabis Board
10280,26975-20045,26975,FE,18006,WILLIAM E STRUYK,Employer,20045,ADVANCED MEDICAL TECHNOLOGY ASSN (MILLENNIA PUBLIC AFFAIRS INC*),16-Oct,11/12/2016,16069.0,ADVANCED MEDICAL TECHNOLOGY ASSN,1500.0,0.0,1500.0,0.0,0.0,0.0,0.0,0.0,0.0,0.0,1500.0,20045.0,Subcontract,17813.0,MILLENNIA PUBLIC AFFAIRS INC*,View report (https://accesshub.pdc.wa.gov/node/26975),,,
10281,26975-19973,26975,FE,18006,WILLIAM E STRUYK,Employer,19973,ALKERMES PLC (MILLENNIA PUBLIC AFFAIRS INC*),16-Oct,11/12/2016,16079.0,ALKERMES PLC,2500.0,0.0,2500.0,0.0,0.0,0.0,0.0,0.0,0.0,0.0,2500.0,19973.0,Subcontract,17813.0,MILLENNIA PUBLIC AFFAIRS INC*,View report (https://accesshub.pdc.wa.gov/node/26975),,,
10297,26970-19126,26970,FE,17738,WALTRAUT B LEHMANN,Employer,19126,PREMERA BLUE CROSS,16-Oct,11/12/2016,16812.0,PREMERA BLUE CROSS,660.0,0.0,660.0,83.7,0.0,0.0,0.0,0.0,0.0,83.7,743.7,19126.0,Direct,,,View report (https://accesshub.pdc.wa.gov/node/26970),Health Care,Regulations,Office of the Insurance Commissioner
10298,26971-19451,26971,FE,17887,SVEN PETERSON,Employer,19451,PREMERA BLUE CROSS,16-Oct,11/12/2016,16812.0,PREMERA BLUE CROSS,473.81,0.0,473.81,31.1,0.0,0.0,0.0,0.0,0.0,31.1,504.91,19451.0,Direct,,,View report (https://accesshub.pdc.wa.gov/node/26971),Health Care,Misc Regulatory Issues,Office of the Insurance Commissioner
10299,26972-19646,26972,FE,17975,LEONARD SORRIN,Employer,19646,PREMERA BLUE CROSS,16-Oct,11/12/2016,16812.0,PREMERA BLUE CROSS,202.88,0.0,202.88,0.0,0.0,750.0,0.0,0.0,0.0,750.0,952.88,19646.0,Direct,,,View report (https://accesshub.pdc.wa.gov/node/26972),Health Care,HC and Campaigns,WA State Senate D and R State Parties
10303,26967-19715,26967,FE,17999,MARK L STREULI,Employer,19715,WA ST FARM BUREAU,16-Oct,11/12/2016,17246.0,WA ST FARM BUREAU,4000.0,0.0,4000.0,0.0,0.0,0.0,0.0,0.0,0.0,0.0,4000.0,19715.0,Direct,,,View report (https://accesshub.pdc.wa.gov/node/26967),Agriculture,Agriculture and Natural Resource Issues,"Agriculture, Labor, Transportation and Natural Resource Agencies"
10304,26965-19570,26965,FE,17936,CASSIE SAUER,Employer,19570,WA ST HOSPITAL ASSN,16-Oct,11/12/2016,17252.0,WA ST HOSPITAL ASSN,850.0,0.0,850.0,235.12,769.14,0.0,0.0,0.0,0.0,1004.26,1854.26,19570.0,Direct,,,View report (https://accesshub.pdc.wa.gov/node/26965),Health Care,Healthier WA,Health Care Authority and DOH
10305,26797-19050,26797,FE,17688,James P Justin (Government Relations Consulting Inc.),Employer,19050,CITY OF YAKIMA,16-Oct,11/13/2016,16321.0,CITY OF YAKIMA,1500.0,0.0,1500.0,0.0,0.0,0.0,0.0,0.0,0.0,0.0,1500.0,19050.0,Direct,,,View report (https://accesshub.pdc.wa.gov/node/26797),Local government,Public Records,Senate Government Operations and House State Government
10306,26797-19049,26797,FE,17688,James P Justin (Government Relations Consulting Inc.),Employer,19049,AT&T SERVICES INC,16-Oct,11/13/2016,16175.0,AT&T SERVICES INC,3000.0,0.0,3000.0,0.0,0.0,0.0,0.0,0.0,0.0,0.0,3000.0,19049.0,Direct,,,View report (https://accesshub.pdc.wa.gov/node/26797),Technology,Siting Issues,House Technology and Senate Energy
10307,26797-19052,26797,FE,17688,James P Justin (Government Relations Consulting Inc.),Employer,19052,EDUCATION REFORM NOW ADVOCACY,16-Oct,11/13/2016,16405.0,EDUCATION REFORM NOW ADVOCACY,2500.0,0.0,2500.0,0.0,0.0,0.0,0.0,0.0,0.0,0.0,2500.0,19052.0,Direct,,,View report (https://accesshub.pdc.wa.gov/node/26797),Education,Charter Schools,House Education and Senate Education
10308,26797-26337,26797,FE,17688,James P Justin (Government Relations Consulting Inc.),Employer,26337,LYFT INC (Insight Strategic Partners LLC),16-Oct,11/13/2016,16612.0,LYFT INC,1000.0,0.0,1000.0,0.0,0.0,0.0,0.0,0.0,0.0,0.0,1000.0,26337.0,Subcontract,25651.0,Insight Strategic Partners LLC,View report (https://accesshub.pdc.wa.gov/node/26797),,,
10309,26797-19054,26797,FE,17688,James P Justin (Government Relations Consulting Inc.),Employer,19054,MUNICIPAL RESEARCH & SERVICES CENTER,16-Oct,11/13/2016,16652.0,MUNICIPAL RESEARCH & SERVICES CENTER,1500.0,0.0,1500.0,0.0,0.0,0.0,0.0,0.0,0.0,0.0,1500.0,19054.0,Direct,,,View report (https://accesshub.pdc.wa.gov/node/26797),Local government,Budget,Office of Financial Management
10310,26797-19056,26797,FE,17688,James P Justin (Government Relations Consulting Inc.),Employer,19056,GoWest Credit Union Association,16-Oct,11/13/2016,16703.0,GoWest Credit Union Association,3500.0,0.0,3500.0,0.0,0.0,0.0,0.0,0.0,0.0,0.0,3500.0,19056.0,Direct,,,View report (https://accesshub.pdc.wa.gov/node/26797),Fiscal,Tax Status,Senate Ways and Means and House Appropriations
10311,26797-19057,26797,FE,17688,James P Justin (Government Relations Consulting Inc.),Employer,19057,Seattle Cancer Care Alliance,16-Oct,11/13/2016,16889.0,Seattle Cancer Care Alliance,2875.0,0.0,2875.0,0.0,0.0,0.0,0.0,0.0,0.0,0.0,2875.0,19057.0,Direct,,,View report (https://accesshub.pdc.wa.gov/node/26797),Health Care,Medicaid,Office of Financial Management and Health Care Authority
10312,26797-19058,26797,FE,17688,James P Justin (Government Relations Consulting Inc.),Employer,19058,TREEHOUSE,16-Oct,11/13/2016,16992.0,TREEHOUSE,1500.0,0.0,1500.0,0.0,0.0,0.0,0.0,0.0,0.0,0.0,1500.0,19058.0,Direct,,,View report (https://accesshub.pdc.wa.gov/node/26797),Education,Foster Kids,Governor's Office and Office of Financial Management
10313,26797-19059,26797,FE,17688,James P Justin (Government Relations Consulting Inc.),Employer,19059,UNIVERSITY OF WASHINGTON,16-Oct,11/13/2016,17021.0,UNIVERSITY OF WASHINGTON,6200.0,0.0,6200.0,0.0,0.0,0.0,0.0,0.0,0.0,0.0,6200.0,19059.0,Direct,,,View report (https://accesshub.pdc.wa.gov/node/26797),Health Care,Budget Issues,Office of Financial Management
10314,26810-19105,26810,FE,17720,EDLIRA KUKA,Employer,19105,VULCAN INC,16-Oct,11/13/2016,17039.0,VULCAN INC,2000.0,0.0,2000.0,170.92,14.58,354150.0,0.0,0.0,0.0,354335.5,356335.5,19105.0,Direct,,,View report (https://accesshub.pdc.wa.gov/node/26810),Transportation,na,na
10315,26987-18784,26987,FE,17567,JANICE L GEE,Employer,18784,WA FOOD INDUSTRY,16-Oct,11/13/2016,17117.0,WA FOOD INDUSTRY,2750.0,0.0,2750.0,0.0,0.0,0.0,0.0,0.0,0.0,0.0,2750.0,18784.0,Direct,,,View report (https://accesshub.pdc.wa.gov/node/26987),Labor,Workers Comp,LNI
10316,26988-19154,26988,FE,17755,DAVID C LORD,Employer,19154,DISABILITY RIGHTS WA,16-Oct,11/13/2016,17163.0,DISABILITY RIGHTS WA,1284.0,0.0,1284.0,106.94,0.0,0.0,0.0,0.0,0.0,106.94,1390.94,19154.0,Direct,,,View report (https://accesshub.pdc.wa.gov/node/26988),Law and justice,Jails and Dept. of Corrections ombuds,"House Public Safety, Senate Ways and Means"
10317,26797-19060,26797,FE,17688,James P Justin (Government Relations Consulting Inc.),Employer,19060,WA ROUNDTABLE,16-Oct,11/13/2016,17178.0,WA ROUNDTABLE,1500.0,0.0,1500.0,0.0,0.0,0.0,0.0,0.0,0.0,0.0,1500.0,19060.0,Direct,,,View report (https://accesshub.pdc.wa.gov/node/26797),Education,Charters and McCleary,House and Senate Education Committees
10318,26797-19061,26797,FE,17688,James P Justin (Government Relations Consulting Inc.),Employer,19061,WA STEM CENTER,16-Oct,11/13/2016,17189.0,WA STEM CENTER,2500.0,0.0,2500.0,0.0,0.0,0.0,0.0,0.0,0.0,0.0,2500.0,19061.0,Direct,,,View report (https://accesshub.pdc.wa.gov/node/26797),Education,STEM Education,Governor's Office
10319,26797-26338,26797,FE,17688,James P Justin (Government Relations Consulting Inc.),Employer,26338,WA TECHNOLOGY INDUSTRY ASSN (Insight Strategic Partners LLC),16-Oct,11/13/2016,17203.0,WA TECHNOLOGY INDUSTRY ASSN,2000.0,0.0,2000.0,0.0,0.0,0.0,0.0,0.0,0.0,0.0,2000.0,26338.0,Subcontract,25651.0,Insight Strategic Partners LLC,View report (https://accesshub.pdc.wa.gov/node/26797),,,
10347,26993-18649,26993,FE,17520,Emerick & Bloom,Employer,18649,Washington Acupuncture and Eastern Medicine Association,16-Oct,11/14/2016,16067.0,Washington Acupuncture and Eastern Medicine Association,3000.0,0.0,3000.0,0.0,0.0,0.0,0.0,0.0,0.0,0.0,3000.0,18649.0,Direct,,,View report (https://accesshub.pdc.wa.gov/node/26993),Health Care,East Asian Medicine-Acupuncture,"L & I, DOH, Health Care Committees"
10348,26993-18650,26993,FE,17520,Emerick & Bloom,Employer,18650,ARNPS UNITED OF WA ST,16-Oct,11/14/2016,16070.0,ARNPS UNITED OF WA ST,1500.0,0.0,1500.0,0.0,0.0,0.0,0.0,0.0,0.0,0.0,1500.0,18650.0,Direct,,,View report (https://accesshub.pdc.wa.gov/node/26993),Health Care,ARNPs Issues,"DOH, HCA"
10349,26991-19365,26991,FE,17850,PAUL NIELSEN,Employer,19365,ALKERMES PLC,16-Oct,11/14/2016,16079.0,ALKERMES PLC,2250.0,0.0,2250.0,0.0,0.0,0.0,0.0,0.0,0.0,0.0,2250.0,19365.0,Direct,,,View report (https://accesshub.pdc.wa.gov/node/26991),Law and justice,drug and alcohol addiction,"Health, Public Safety"
10350,27000-24862,27000,FE,18045,Amber Ulvenes,Employer,24862,ALZHEIMERS ASSN WA ST CHAPTER,16-Oct,11/14/2016,16086.0,ALZHEIMERS ASSN WA ST CHAPTER,1000.0,0.0,1000.0,33.48,0.0,0.0,0.0,0.0,0.0,33.48,1033.48,24862.0,Direct,,,View report (https://accesshub.pdc.wa.gov/node/27000),,,
10351,26996-19718,26996,FE,18002,CHRIS STROW,Employer,19718,"Elevance Health, and its Affiliates",16-Oct,11/14/2016,16107.0,"Elevance Health, and its Affiliates",11250.0,0.0,11250.0,0.0,0.0,0.0,0.0,0.0,0.0,0.0,11250.0,19718.0,Direct,,,View report (https://accesshub.pdc.wa.gov/node/26996),Health Care,Medicaid Rates,Office of the Insurance Commissioner- Prior Authorization
10353,27056-18248,27056,FE,17390,CANDICE N BOCK,Employer,18248,ASSN OF WA CITIES,16-Oct,11/14/2016,16168.0,ASSN OF WA CITIES,599.59,0.0,599.59,0.0,67.4,0.0,0.0,0.0,0.0,67.4,666.99,18248.0,Direct,,,View report (https://accesshub.pdc.wa.gov/node/27056),Local government,Public Records,"Reps Nealey, McBride, Springer, Appleton, Griffey, Senn, Pollet, Kuderer, Klippert, and Sen Takko"
10354,26490-18709,26490,FE,17543,H2 Government Relations,Employer,18709,ASSN OF WA ST PUBLIC FACILITIES DISTS,16-Oct,11/14/2016,16171.0,ASSN OF WA ST PUBLIC FACILITIES DISTS,1000.0,0.0,1000.0,0.0,0.0,0.0,0.0,0.0,0.0,0.0,1000.0,18709.0,Direct,,,View report (https://accesshub.pdc.wa.gov/node/26490),Fiscal,Taxes,"H Finance, S W&M"
10359,26998-18423,26998,FE,17436,ART CASTLE,Employer,18423,BUILDING INDUSTRY ASSN OF WA,16-Oct,11/14/2016,16215.0,BUILDING INDUSTRY ASSN OF WA,500.0,0.0,500.0,0.0,0.0,0.0,0.0,0.0,0.0,0.0,500.0,18423.0,Direct,,,View report (https://accesshub.pdc.wa.gov/node/26998),Environmental Affairs - natural resources - parks,"exempt wells, water rights",Department of Ecology
10360,26999-18970,26999,FE,17642,JAN HIMEBAUGH,Employer,18970,BUILDING INDUSTRY ASSN OF WA,16-Oct,11/14/2016,16215.0,BUILDING INDUSTRY ASSN OF WA,500.0,0.0,500.0,0.0,0.0,0.0,0.0,0.0,0.0,0.0,500.0,18970.0,Direct,,,View report (https://accesshub.pdc.wa.gov/node/26999),Environmental Affairs - natural resources - parks,"water rights, land use, HPA","senate and house committees, state departments ecology, WDFW"
10363,27003-24639,27003,FE,24638,Recreational Services LLC,Employer,24639,CANNABIS ORGANIZATION OF RETAIL ESTABLISHMENTS,16-Oct,11/14/2016,16224.0,CANNABIS ORGANIZATION OF RETAIL ESTABLISHMENTS,3000.0,0.0,3000.0,0.0,0.0,0.0,0.0,0.0,0.0,0.0,3000.0,24639.0,Direct,,,View report (https://accesshub.pdc.wa.gov/node/27003),State government,Cannabis Issues,Liquor Control Board
10364,26490-24882,26490,FE,17543,H2 Government Relations,Employer,24882,CANNABIS ORGANIZATION OF RETAIL ESTABLISHMENTS (Recreational Services LLC),16-Oct,11/14/2016,16224.0,CANNABIS ORGANIZATION OF RETAIL ESTABLISHMENTS,2000.0,0.0,2000.0,0.0,0.0,0.0,0.0,0.0,0.0,0.0,2000.0,24882.0,Subcontract,24638.0,Recreational Services LLC,View report (https://accesshub.pdc.wa.gov/node/26490),,,
10365,27073-25599,27073,FE,18100,KYLE WOODRING,Employer,25599,CANNABIS ORGANIZATION OF RETAIL ESTABLISHMENTS (Recreational Services LLC),16-Oct,11/14/2016,16224.0,CANNABIS ORGANIZATION OF RETAIL ESTABLISHMENTS,1500.0,0.0,1500.0,0.0,0.0,0.0,0.0,0.0,0.0,0.0,1500.0,25599.0,Subcontract,24638.0,Recreational Services LLC,View report (https://accesshub.pdc.wa.gov/node/27073),,,
10368,26490-20013,26490,FE,17543,H2 Government Relations,Employer,20013,CITY OF EVERETT (Leonard A Mc Comb),16-Oct,11/14/2016,16281.0,CITY OF EVERETT,2000.0,0.0,2000.0,0.0,0.0,0.0,0.0,0.0,0.0,0.0,2000.0,20013.0,Subcontract,17786.0,Leonard A Mc Comb,View report (https://accesshub.pdc.wa.gov/node/26490),,,
10369,27041-18318,27041,FE,17413,MARK O BROWN,Employer,18318,CITY OF LACEY,16-Oct,11/14/2016,16294.0,CITY OF LACEY,2500.0,0.0,2500.0,0.0,0.0,0.0,0.0,0.0,0.0,0.0,2500.0,18318.0,Direct,,,View report (https://accesshub.pdc.wa.gov/node/27041),Fiscal,Fiscal,Local Government
10370,27041-18319,27041,FE,17413,MARK O BROWN,Employer,18319,CITY OF LONGVIEW,16-Oct,11/14/2016,16295.0,CITY OF LONGVIEW,2000.0,0.0,2000.0,0.0,0.0,0.0,0.0,0.0,0.0,0.0,2000.0,18319.0,Direct,,,View report (https://accesshub.pdc.wa.gov/node/27041),Fiscal,Fiscal,Local Government
10371,26490-18710,26490,FE,17543,H2 Government Relations,Employer,18710,City of Maple Valley,16-Oct,11/14/2016,16300.0,City of Maple Valley,3000.0,0.0,3000.0,0.0,0.0,0.0,0.0,0.0,0.0,0.0,3000.0,18710.0,Direct,,,View report (https://accesshub.pdc.wa.gov/node/26490),Local government,Transportation and Land Use,"H Local Government, S Gov Ops, H Trans, S Trans"
10372,27041-18320,27041,FE,17413,MARK O BROWN,Employer,18320,CITY OF RIDGEFIELD,16-Oct,11/14/2016,16309.0,CITY OF RIDGEFIELD,1500.0,0.0,1500.0,0.0,0.0,0.0,0.0,0.0,0.0,0.0,1500.0,18320.0,Direct,,,View report (https://accesshub.pdc.wa.gov/node/27041),Fiscal,Fiscal,Local Government
10373,27069-19851,27069,FE,18068,WASHINGTON 2 ADVOCATES*,Employer,19851,CITY OF SUMNER,16-Oct,11/14/2016,16315.0,CITY OF SUMNER,750.0,0.0,750.0,0.0,0.0,0.0,0.0,0.0,0.0,0.0,750.0,19851.0,Direct,,,View report (https://accesshub.pdc.wa.gov/node/27069),Transportation,2017 priorities,Rep Stokesbary
10374,27041-18321,27041,FE,17413,MARK O BROWN,Employer,18321,City of Vancouver,16-Oct,11/14/2016,16319.0,City of Vancouver,8500.0,0.0,8500.0,0.0,0.0,0.0,0.0,0.0,0.0,0.0,8500.0,18321.0,Direct,,,View report (https://accesshub.pdc.wa.gov/node/27041),Fiscal,Fiscal,Local Government
10378,26490-18711,26490,FE,17543,H2 Government Relations,Employer,18711,COMMUNITY ASSOC INSTITUTE,16-Oct,11/14/2016,16346.0,COMMUNITY ASSOC INSTITUTE,5000.0,0.0,5000.0,0.0,0.0,0.0,0.0,0.0,0.0,0.0,5000.0,18711.0,Direct,,,View report (https://accesshub.pdc.wa.gov/node/26490),Business and consumer affairs,Condo and Homeowner,"House Judiciary, Senate FII, Ways & Means, Senate Judiciary"
10380,26821-18934,26821,FE,17612,KELSI HAMILTON,Employer,18934,DYNAMIC COLLECTORS INC,16-Oct,11/14/2016,16395.0,DYNAMIC COLLECTORS INC,200.0,0.0,200.0,0.0,0.0,0.0,0.0,0.0,0.0,0.0,200.0,18934.0,Direct,,,View report (https://accesshub.pdc.wa.gov/node/26821),Business and consumer affairs,AG Stakeholder group for Citations,AG Stakeholder group for Citations
10384,27000-19977,27000,FE,18045,Amber Ulvenes,Employer,19977,GROUP HEALTH COOPERATIVE (CHRIS MARR),16-Oct,11/14/2016,16484.0,GROUP HEALTH COOPERATIVE,5250.0,0.0,5250.0,207.18,0.0,0.0,0.0,0.0,0.0,207.18,5457.18,19977.0,Subcontract,17773.0,CHRIS MARR,View report (https://accesshub.pdc.wa.gov/node/27000),,,
10385,26993-18651,26993,FE,17520,Emerick & Bloom,Employer,18651,HOME CARE ASSN OF WA,16-Oct,11/14/2016,16509.0,HOME CARE ASSN OF WA,3200.0,0.0,3200.0,0.0,0.0,0.0,0.0,0.0,0.0,0.0,3200.0,18651.0,Direct,,,View report (https://accesshub.pdc.wa.gov/node/26993),Health Care,Home Health Care,"HCA, DOH, Health Care Committees"
10387,27028-25652,27028,FE,25651,Insight Strategic Partners LLC,Employer,25652,LYFT INC,16-Oct,11/14/2016,16612.0,LYFT INC,4000.0,0.0,4000.0,0.0,0.0,0.0,0.0,0.0,0.0,0.0,4000.0,25652.0,Direct,,,View report (https://accesshub.pdc.wa.gov/node/27028),Business and consumer affairs,Transportation,"Department of Revenue, Dept. of Transportation"
10389,27073-19907,27073,FE,18100,KYLE WOODRING,Employer,19907,Manufactured Housing Communities of WA,16-Oct,11/14/2016,16614.0,Manufactured Housing Communities of WA,1105.0,0.0,1105.0,0.0,0.0,0.0,0.0,0.0,0.0,0.0,1105.0,19907.0,Direct,,,View report (https://accesshub.pdc.wa.gov/node/27073),,,
10390,27032-20092,27032,FE,17907,Krystelle Purkey,Employer,20092,"Manufactured Housing Communities of WA (Public Affairs Consulting, LLC)",16-Oct,11/14/2016,16614.0,Manufactured Housing Communities of WA,583.33,0.0,583.33,0.0,0.0,0.0,0.0,0.0,0.0,0.0,583.33,20092.0,Subcontract,17358.0,"Public Affairs Consulting, LLC",View report (https://accesshub.pdc.wa.gov/node/27032),,,
10393,27000-19818,27000,FE,18045,Amber Ulvenes,Employer,19818,MIDWIVES ASSOCIATION OF WA STATE,16-Oct,11/14/2016,16637.0,MIDWIVES ASSOCIATION OF WA STATE,1100.0,0.0,1100.0,0.0,0.0,0.0,0.0,0.0,0.0,0.0,1100.0,19818.0,Direct,,,View report (https://accesshub.pdc.wa.gov/node/27000),Health Care,birth center reimbursement,Health Care Authority
10394,26054-19262,26054,FE,17804,LIS HOUCHEN,Employer,19262,NATL ASSN OF CHAIN DRUG STORES,16-Oct,11/14/2016,16658.0,NATL ASSN OF CHAIN DRUG STORES,754.0,0.0,754.0,0.0,0.0,11500.0,0.0,0.0,0.0,11500.0,12254.0,19262.0,Direct,,,View report (https://accesshub.pdc.wa.gov/node/26054),Health Care,Pharmacy,Pharmacy Quality Assurance Commission
10397,26490-18714,26490,FE,17543,H2 Government Relations,Employer,18714,NORTHWEST YACHT BROKERS ASSN,16-Oct,11/14/2016,16724.0,NORTHWEST YACHT BROKERS ASSN,1100.0,0.0,1100.0,0.0,0.0,0.0,0.0,0.0,0.0,0.0,1100.0,18714.0,Direct,,,View report (https://accesshub.pdc.wa.gov/node/26490),Fiscal,Taxes,"S W&M, H Finance"
10398,27041-18323,27041,FE,17413,MARK O BROWN,Employer,18323,PARTNERS IN CAREERS,16-Oct,11/14/2016,16764.0,PARTNERS IN CAREERS,750.0,0.0,750.0,0.0,0.0,0.0,0.0,0.0,0.0,0.0,750.0,18323.0,Direct,,,View report (https://accesshub.pdc.wa.gov/node/27041),Fiscal,Education,Local Government
10399,26490-20011,26490,FE,17543,H2 Government Relations,Employer,20011,PORT OF EVERETT (Leonard A Mc Comb),16-Oct,11/14/2016,16797.0,PORT OF EVERETT,2000.0,0.0,2000.0,0.0,0.0,0.0,0.0,0.0,0.0,0.0,2000.0,20011.0,Subcontract,17786.0,Leonard A Mc Comb,View report (https://accesshub.pdc.wa.gov/node/26490),,,
10401,26490-18715,26490,FE,17543,H2 Government Relations,Employer,18715,PROLIANCE SURGEONS,16-Oct,11/14/2016,16817.0,PROLIANCE SURGEONS,3500.0,0.0,3500.0,0.0,0.0,0.0,0.0,0.0,0.0,0.0,3500.0,18715.0,Direct,,,View report (https://accesshub.pdc.wa.gov/node/26490),Health Care,Health Care,"H Health Care, S Health Care"
10402,27000-19820,27000,FE,18045,Amber Ulvenes,Employer,19820,RESOLUTION WA,16-Oct,11/14/2016,16856.0,RESOLUTION WA,500.0,0.0,500.0,0.0,0.0,0.0,0.0,0.0,0.0,0.0,500.0,19820.0,Direct,,,View report (https://accesshub.pdc.wa.gov/node/27000),Law and justice,DRC funding,"Dept of Commerce, Law & Justice and Judiciary Committees"
10403,27073-19908,27073,FE,18100,KYLE WOODRING,Employer,19908,RENTAL HOUSING ASSN OF WA,16-Oct,11/14/2016,16894.0,RENTAL HOUSING ASSN OF WA,4025.0,0.0,4025.0,0.0,0.0,0.0,0.0,0.0,0.0,0.0,4025.0,19908.0,Direct,,,View report (https://accesshub.pdc.wa.gov/node/27073),State government,Affordable Housing,"Department of Commerce, Senate Financial Institutions & Insurance"
10404,27060-18163,27060,FE,17343,CODY W ARLEDGE,Employer,18163,SHEET METAL WORKERS LOCAL 66,16-Oct,11/14/2016,16910.0,SHEET METAL WORKERS LOCAL 66,8200.0,0.0,8200.0,0.0,0.0,0.0,0.0,0.0,0.0,0.0,8200.0,18163.0,Direct,,,View report (https://accesshub.pdc.wa.gov/node/27060),Labor,Labor,Labor
10405,27063-19902,27063,FE,18096,BRUCE WISHART,Employer,19902,Sierra Club,16-Oct,11/14/2016,16915.0,Sierra Club,1500.0,0.0,1500.0,0.0,0.0,0.0,0.0,0.0,0.0,0.0,1500.0,19902.0,Direct,,,View report (https://accesshub.pdc.wa.gov/node/27063),Environmental Affairs - natural resources - parks,"water resources, water quality matters",House Agriculture and Natural Resource Committee
10406,27063-19903,27063,FE,18096,BRUCE WISHART,Employer,19903,SOUND ACTION,16-Oct,11/14/2016,16930.0,SOUND ACTION,500.0,0.0,500.0,0.0,0.0,0.0,0.0,0.0,0.0,0.0,500.0,19903.0,Direct,,,View report (https://accesshub.pdc.wa.gov/node/27063),Environmental Affairs - natural resources - parks,HPA Program,DFW
10407,26490-18716,26490,FE,17543,H2 Government Relations,Employer,18716,GREATER SPOKANE INC,16-Oct,11/14/2016,16938.0,GREATER SPOKANE INC,4000.0,0.0,4000.0,0.0,0.0,0.0,0.0,0.0,0.0,0.0,4000.0,18716.0,Direct,,,View report (https://accesshub.pdc.wa.gov/node/26490),Higher education,"Capital, Higher Education","H Cap, H Approps, H Finance, S W&M, H Higher Ed, S Higher Ed"
10410,26490-18717,26490,FE,17543,H2 Government Relations,Employer,18717,WALGREENS,16-Oct,11/14/2016,17040.0,WALGREENS,4750.0,0.0,4750.0,0.0,0.0,0.0,0.0,0.0,0.0,0.0,4750.0,18717.0,Direct,,,View report (https://accesshub.pdc.wa.gov/node/26490),Health Care,Health Care,"H Health Care, S Health Care"
10413,27024-18707,27024,FE,17542,JACK FIELD,Employer,18707,WA CATTLEMEN'S ASSN,16-Oct,11/14/2016,17072.0,WA CATTLEMEN'S ASSN,1662.5,0.0,1662.5,0.0,0.0,0.0,0.0,0.0,0.0,0.0,1662.5,18707.0,Direct,,,View report (https://accesshub.pdc.wa.gov/node/27024),Agriculture,"water quality, wolves, beef checkoff","WDFW wolves, WSDA Livestock ID, WSU Cap Budget Requests"
10414,26490-18718,26490,FE,17543,H2 Government Relations,Employer,18718,WA DISTILLERS GUILD,16-Oct,11/14/2016,17095.0,WA DISTILLERS GUILD,1500.0,0.0,1500.0,0.0,0.0,0.0,0.0,0.0,0.0,0.0,1500.0,18718.0,Direct,,,View report (https://accesshub.pdc.wa.gov/node/26490),Fiscal,Distilling,"House Commerce, Senate Ways & Means"
10415,27024-18708,27024,FE,17542,JACK FIELD,Employer,18708,Northwest Aquaculture Alliance,16-Oct,11/14/2016,17115.0,Northwest Aquaculture Alliance,1000.0,0.0,1000.0,0.0,0.0,0.0,0.0,0.0,0.0,0.0,1000.0,18708.0,Direct,,,View report (https://accesshub.pdc.wa.gov/node/27024),Agriculture,WSU Cap Budget Support,preparing letters of support for WSU Cap Budget requests
10416,26490-18719,26490,FE,17543,H2 Government Relations,Employer,18719,Washington Multi Family Housing Association,16-Oct,11/14/2016,17149.0,Washington Multi Family Housing Association,3150.0,0.0,3150.0,0.0,0.0,0.0,0.0,0.0,0.0,0.0,3150.0,18719.0,Direct,,,View report (https://accesshub.pdc.wa.gov/node/26490),Business and consumer affairs,Landlord Tenant Act,"House Judiciary, House CTHTA, Senate FII, S Ways & Means"
10418,26993-18652,26993,FE,17520,Emerick & Bloom,Employer,18652,Home Care Association of America,16-Oct,11/14/2016,17168.0,Home Care Association of America,1500.0,0.0,1500.0,337.2,0.0,0.0,0.0,0.0,0.0,337.2,1837.2,18652.0,Direct,,,View report (https://accesshub.pdc.wa.gov/node/26993),Health Care,Private Pay Home Care,"HCA, DOH, Health Care Committees"
10421,27052-18211,27052,FE,17362,MITCH BARKER,Employer,18211,WA ASSN OF SHERIFFS & POLICE CHIEFS,16-Oct,11/14/2016,17196.0,WA ASSN OF SHERIFFS & POLICE CHIEFS,353.5,0.0,353.5,0.0,0.0,0.0,0.0,0.0,0.0,0.0,353.5,18211.0,Direct,,,View report (https://accesshub.pdc.wa.gov/node/27052),Law and justice,1448,State Legislature
10422,27051-19253,27051,FE,17796,JAMES MCMAHAN,Employer,19253,WA ASSN OF SHERIFFS & POLICE CHIEFS,16-Oct,11/14/2016,17196.0,WA ASSN OF SHERIFFS & POLICE CHIEFS,1785.42,0.0,1785.42,0.0,0.0,0.0,0.0,0.0,0.0,0.0,1785.42,19253.0,Direct,,,View report (https://accesshub.pdc.wa.gov/node/27051),Law and justice,1448,State Legislature
10423,27028-25653,27028,FE,25651,Insight Strategic Partners LLC,Employer,25653,WA TECHNOLOGY INDUSTRY ASSN,16-Oct,11/14/2016,17203.0,WA TECHNOLOGY INDUSTRY ASSN,8000.0,0.0,8000.0,0.0,0.0,0.0,0.0,0.0,0.0,0.0,8000.0,25653.0,Direct,,,View report (https://accesshub.pdc.wa.gov/node/27028),Technology,General Governement,Department of Revenue
10426,27071-19242,27071,FE,17788,JOSH D MCDONALD,Employer,19242,WA WINE INSTITUTE,16-Oct,11/14/2016,17211.0,WA WINE INSTITUTE,3000.0,0.0,3000.0,0.0,0.0,1200.0,0.0,0.0,0.0,1200.0,4200.0,19242.0,Direct,,,View report (https://accesshub.pdc.wa.gov/node/27071),Business and consumer affairs,"Alcohol, Taxes, Agriculture","All Committees, Department of Agriculture, Department of Ecology, Liquor and Cannabis Board"
10428,26993-18653,26993,FE,17520,Emerick & Bloom,Employer,18653,WA ST HOSPICE & PALLIATIVE CARE ORG,16-Oct,11/14/2016,17255.0,WA ST HOSPICE & PALLIATIVE CARE ORG,3500.0,0.0,3500.0,0.0,0.0,0.0,0.0,0.0,0.0,0.0,3500.0,18653.0,Direct,,,View report (https://accesshub.pdc.wa.gov/node/26993),Health Care,Hospice,"HCA, DOH, Health Care Committees"
10430,27059-24515,27059,FE,24514,Ryan W Merkley,Employer,24515,PHYSICIANS COMM FOR RESPONSIBLE MEDICINE,16-Oct,11/14/2016,23608.0,PHYSICIANS COMM FOR RESPONSIBLE MEDICINE,468.78,0.0,468.78,0.0,0.0,0.0,0.0,0.0,0.0,0.0,468.78,24515.0,Direct,,,View report (https://accesshub.pdc.wa.gov/node/27059),Higher education,Paramedic training,Higher Education Committee
10499,26979-19287,26979,FE,17813,MILLENNIA PUBLIC AFFAIRS INC*,Employer,19287,ADVANCED MEDICAL TECHNOLOGY ASSN,16-Oct,11/15/2016,16069.0,ADVANCED MEDICAL TECHNOLOGY ASSN,1500.0,0.0,1500.0,0.0,0.0,0.0,0.0,0.0,1500.0,1500.0,3000.0,19287.0,Direct,,,View report (https://accesshub.pdc.wa.gov/node/26979),Health Care,HEALTH CARE,HEALTH CARE
10501,27145-18487,27145,FE,17461,JOHN S CONNIFF PLLC*,Employer,18487,Aetna,16-Sep,11/15/2016,16073.0,Aetna,5425.0,0.0,5425.0,0.0,0.0,0.0,0.0,0.0,0.0,0.0,5425.0,18487.0,Direct,,,View report (https://accesshub.pdc.wa.gov/node/27145),Health Care,Health Insurance,Insurance Commissioner
10502,27147-18487,27147,FE,17461,JOHN S CONNIFF PLLC*,Employer,18487,Aetna,16-Oct,11/15/2016,16073.0,Aetna,5425.0,0.0,5425.0,0.0,0.0,0.0,0.0,0.0,0.0,0.0,5425.0,18487.0,Direct,,,View report (https://accesshub.pdc.wa.gov/node/27147),Health Care,Health Insurance,Insurance Commissioner
10503,26979-19288,26979,FE,17813,MILLENNIA PUBLIC AFFAIRS INC*,Employer,19288,ALKERMES PLC,16-Oct,11/15/2016,16079.0,ALKERMES PLC,2500.0,0.0,2500.0,0.0,0.0,0.0,0.0,0.0,2500.0,2500.0,5000.0,19288.0,Direct,,,View report (https://accesshub.pdc.wa.gov/node/26979),Health Care,HealTH CARE,HealTH CARE
10505,27168-19774,27168,FE,18034,The Nichols Group Government Relations LLC,Employer,19774,AMERICAN DEALER LICENSE INC,16-Oct,11/15/2016,16100.0,AMERICAN DEALER LICENSE INC,2000.0,0.0,2000.0,0.0,0.0,0.0,0.0,0.0,0.0,0.0,2000.0,19774.0,Direct,,,View report (https://accesshub.pdc.wa.gov/node/27168),Business and consumer affairs,Auto Wholesaler Licensing,"Transportation committees, Dept of Licensing"
10506,25303-19207,25303,FE,17779,MCBRIDE PUBLIC AFFAIRS LLC*,Employer,19207,"Elevance Health, and its Affiliates",16-Aug,11/15/2016,16107.0,"Elevance Health, and its Affiliates",5000.0,0.0,5000.0,0.0,0.0,0.0,0.0,0.0,0.0,0.0,5000.0,19207.0,Direct,,,View report (https://accesshub.pdc.wa.gov/node/25303),Human services,MEDICAID,HEALTH CARE BUDGET HUMAN SERVICES
10507,26427-19129,26427,FE,17741,JEAN M LEONARD*,Employer,19129,AMERICAN INTERNATIONAL GROUP INC,16-Sep,11/15/2016,16112.0,AMERICAN INTERNATIONAL GROUP INC,3500.0,0.0,3500.0,0.0,0.0,0.0,0.0,0.0,0.0,0.0,3500.0,19129.0,Direct,,,View report (https://accesshub.pdc.wa.gov/node/26427),Financial institutions and insurance,"S FIH, S JUD, H FII, H JUD TR",
10508,27089-19129,27089,FE,17741,JEAN M LEONARD*,Employer,19129,AMERICAN INTERNATIONAL GROUP INC,16-Oct,11/15/2016,16112.0,AMERICAN INTERNATIONAL GROUP INC,3500.0,0.0,3500.0,0.0,0.0,0.0,0.0,0.0,0.0,0.0,3500.0,19129.0,Direct,,,View report (https://accesshub.pdc.wa.gov/node/27089),Financial institutions and insurance,"S FIH, S JUD, H FII, H JUD TR",
10509,25303-19208,25303,FE,17779,MCBRIDE PUBLIC AFFAIRS LLC*,Employer,19208,AMGEN INC,16-Aug,11/15/2016,16127.0,AMGEN INC,4500.0,0.0,4500.0,0.0,0.0,0.0,0.0,0.0,0.0,0.0,4500.0,19208.0,Direct,,,View report (https://accesshub.pdc.wa.gov/node/25303),Health Care,HEALTH CARE,HEALTH CARE TECH WAYS & MEANS
