,id,report_number,origin,filer_id,filer_name,type,funding_source_id,funding_source_name,filing_period,receipt_date,employer_id,employer_name,compensation,sub_lobbyist_compensation,net_compensation,personal_expenses,entertainment,contributions,advertising,political_ads,other,total_expenses,net_total,employment_registration_id,employment_type,contractor_id,contractor_name,url,legislation_subject_matter,issue_bill_number,committee_lobbied
60000,57116-19698,57116,FE,17996,STRATEGIES 360*,Employer,19698,CITY OF ARLINGTON,19-Jun,12/17/2019,16272.0,CITY OF ARLINGTON,1500.0,0.0,1500.0,0.0,0.0,0.0,0.0,0.0,0.0,0.0,1500.0,19698.0,Direct,,,View report (https://accesshub.pdc.wa.gov/node/57116),,,
60002,57116-19699,57116,FE,17996,STRATEGIES 360*,Employer,19699,CITY OF MARYSVILLE,19-Jun,12/17/2019,16298.0,CITY OF MARYSVILLE,3500.0,0.0,3500.0,0.0,0.0,0.0,0.0,0.0,0.0,0.0,3500.0,19699.0,Direct,,,View report (https://accesshub.pdc.wa.gov/node/57116),,,
60004,57116-48466,57116,FE,17996,STRATEGIES 360*,Employer,48466,CITY OF MONROE,19-Jun,12/17/2019,16299.0,CITY OF MONROE,4000.0,0.0,4000.0,0.0,0.0,0.0,0.0,0.0,0.0,0.0,4000.0,48466.0,Direct,,,View report (https://accesshub.pdc.wa.gov/node/57116),,,
60006,57116-19700,57116,FE,17996,STRATEGIES 360*,Employer,19700,CITY OF STANWOOD,19-Jun,12/17/2019,16312.0,CITY OF STANWOOD,1500.0,0.0,1500.0,0.0,0.0,0.0,0.0,0.0,0.0,0.0,1500.0,19700.0,Direct,,,View report (https://accesshub.pdc.wa.gov/node/57116),,,
60008,56223-26261,56223,FE,17536,Nick Federici,Employer,26261,CITY OF SPOKANE,19-May,12/17/2019,16314.0,CITY OF SPOKANE,2500.0,0.0,2500.0,0.0,0.0,0.0,0.0,0.0,0.0,0.0,2500.0,26261.0,Direct,,,View report (https://accesshub.pdc.wa.gov/node/56223),,,
60009,56640-26261,56640,FE,17536,Nick Federici,Employer,26261,CITY OF SPOKANE,19-Jun,12/17/2019,16314.0,CITY OF SPOKANE,2500.0,0.0,2500.0,0.0,0.0,0.0,0.0,0.0,0.0,0.0,2500.0,26261.0,Direct,,,View report (https://accesshub.pdc.wa.gov/node/56640),,,
60010,61301-18321,61301,FE,17413,MARK O BROWN,Employer,18321,City of Vancouver,19-Nov,12/17/2019,16319.0,City of Vancouver,8500.0,0.0,8500.0,0.0,0.0,0.0,0.0,0.0,0.0,0.0,8500.0,18321.0,Direct,,,View report (https://accesshub.pdc.wa.gov/node/61301),Fiscal,Fiscal,Local Government
60011,56223-47022,56223,FE,17536,Nick Federici,Employer,47022,CITY OF YAKIMA,19-May,12/17/2019,16321.0,CITY OF YAKIMA,2500.0,0.0,2500.0,0.0,0.0,0.0,0.0,0.0,0.0,0.0,2500.0,47022.0,Direct,,,View report (https://accesshub.pdc.wa.gov/node/56223),,,
60012,56640-47022,56640,FE,17536,Nick Federici,Employer,47022,CITY OF YAKIMA,19-Jun,12/17/2019,16321.0,CITY OF YAKIMA,2500.0,0.0,2500.0,0.0,0.0,0.0,0.0,0.0,0.0,0.0,2500.0,47022.0,Direct,,,View report (https://accesshub.pdc.wa.gov/node/56640),,,
60014,57116-38853,57116,FE,17996,STRATEGIES 360*,Employer,38853,C-TRAN,19-Jun,12/17/2019,16375.0,C-TRAN,4000.0,0.0,4000.0,0.0,0.0,0.0,0.0,0.0,0.0,0.0,4000.0,38853.0,Direct,,,View report (https://accesshub.pdc.wa.gov/node/57116),,,
60016,56223-18690,56223,FE,17536,Nick Federici,Employer,18690,FAIRFAX HOSPITAL,19-May,12/17/2019,16431.0,FAIRFAX HOSPITAL,4000.0,0.0,4000.0,0.0,0.0,0.0,0.0,0.0,0.0,0.0,4000.0,18690.0,Direct,,,View report (https://accesshub.pdc.wa.gov/node/56223),Health Care,Mental Health,"Senate HC, Ways, HSMHH, House HC, Approps"
60017,56640-18690,56640,FE,17536,Nick Federici,Employer,18690,FAIRFAX HOSPITAL,19-Jun,12/17/2019,16431.0,FAIRFAX HOSPITAL,4000.0,0.0,4000.0,0.0,0.0,0.0,0.0,0.0,0.0,0.0,4000.0,18690.0,Direct,,,View report (https://accesshub.pdc.wa.gov/node/56640),Health Care,Mental Health,"Senate HC, Ways, HSMHH, House HC, Approps"
60018,61198-19089,61198,FE,17710,TERRY KOHL,Employer,19089,FAMILY WINERIES OF WA ST,19-Nov,12/17/2019,16434.0,FAMILY WINERIES OF WA ST,208.33,0.0,208.33,29.84,0.0,0.0,0.0,0.0,0.0,29.84,238.17,19089.0,Direct,,,View report (https://accesshub.pdc.wa.gov/node/61198),Business and consumer affairs,Washington Wineries,HS Senate Commerce Law
60019,57116-19701,57116,FE,17996,STRATEGIES 360*,Employer,19701,GRANT PUD,19-Jun,12/17/2019,16481.0,GRANT PUD,4500.0,0.0,4500.0,0.0,0.0,0.0,0.0,0.0,0.0,0.0,4500.0,19701.0,Direct,,,View report (https://accesshub.pdc.wa.gov/node/57116),,,
60021,57116-19703,57116,FE,17996,STRATEGIES 360*,Employer,19703,Jefferson County,19-Jun,12/17/2019,16558.0,Jefferson County,1300.0,0.0,1300.0,0.0,0.0,0.0,0.0,0.0,0.0,0.0,1300.0,19703.0,Direct,,,View report (https://accesshub.pdc.wa.gov/node/57116),,,
60023,57116-19704,57116,FE,17996,STRATEGIES 360*,Employer,19704,LEAGUE OF EDUCATION VOTERS,19-Jun,12/17/2019,16589.0,LEAGUE OF EDUCATION VOTERS,4750.0,0.0,4750.0,0.0,0.0,0.0,0.0,0.0,0.0,0.0,4750.0,19704.0,Direct,,,View report (https://accesshub.pdc.wa.gov/node/57116),,,
60025,56619-18246,56619,FE,17388,ANNIE BLACKLEDGE,Employer,18246,The Mockingbird Society,19-Mar,12/17/2019,16639.0,The Mockingbird Society,856.43,0.0,856.43,304.11,0.0,0.0,0.0,0.0,0.0,304.11,1160.54,18246.0,Direct,,,View report (https://accesshub.pdc.wa.gov/node/56619),Human services,VCO 5290,Workkgroup meeting
60026,56686-18246,56686,FE,17388,ANNIE BLACKLEDGE,Employer,18246,The Mockingbird Society,19-Apr,12/17/2019,16639.0,The Mockingbird Society,1682.8,0.0,1682.8,168.41,0.0,0.0,0.0,0.0,0.0,168.41,1851.21,18246.0,Direct,,,View report (https://accesshub.pdc.wa.gov/node/56686),Human services,VCO 5290,Meeting with Rep Mosbrucker
60027,56708-18246,56708,FE,17388,ANNIE BLACKLEDGE,Employer,18246,The Mockingbird Society,19-May,12/17/2019,16639.0,The Mockingbird Society,480.8,0.0,480.8,499.38,0.0,0.0,0.0,0.0,0.0,499.38,980.18,18246.0,Direct,,,View report (https://accesshub.pdc.wa.gov/node/56708),Human services,VCO 5290,SB 5290 Celebration with Rep Frame & Rep Senn
60028,61318-19204,61318,FE,17776,TRENT MATSON,Employer,19204,"Moneytree, Inc.",19-Nov,12/17/2019,16643.0,"Moneytree, Inc.",2500.0,0.0,2500.0,0.0,0.0,0.0,0.0,0.0,0.0,0.0,2500.0,19204.0,Direct,,,View report (https://accesshub.pdc.wa.gov/node/61318),Financial institutions and insurance,financial/lending,legislators considering legislation impacting financial institutions/short term lending
60029,61306-19506,61306,FE,17905,T K BENTLER/PUBLIC AFFAIRS ASSOC*,Employer,19506,"MOTION PICTURE ASSOCIATION, INC.",19-Nov,12/17/2019,16645.0,"MOTION PICTURE ASSOCIATION, INC.",2500.0,0.0,2500.0,0.0,0.0,0.0,0.0,0.0,0.0,0.0,2500.0,19506.0,Direct,,,View report (https://accesshub.pdc.wa.gov/node/61306),,,
60030,61306-19507,61306,FE,17905,T K BENTLER/PUBLIC AFFAIRS ASSOC*,Employer,19507,MOTOR VEHICLE SOFTWARE CORP,19-Nov,12/17/2019,16648.0,MOTOR VEHICLE SOFTWARE CORP,5000.0,0.0,5000.0,0.0,0.0,0.0,0.0,0.0,0.0,0.0,5000.0,19507.0,Direct,,,View report (https://accesshub.pdc.wa.gov/node/61306),Business and consumer affairs,Subagency license,Dept. of Licensing and Transportation Comm Members
60031,54741-24519,54741,FE,24518,Huma Zarif,Employer,24519,Northwest Health Law Advocates,19-Jan,12/17/2019,16709.0,Northwest Health Law Advocates,1028.44,0.0,1028.44,0.0,0.0,0.0,0.0,0.0,0.0,0.0,1028.44,24519.0,Direct,,,View report (https://accesshub.pdc.wa.gov/node/54741),Health Care,reproductive health care,Senate Health Committee
60032,54742-24519,54742,FE,24518,Huma Zarif,Employer,24519,Northwest Health Law Advocates,19-Feb,12/17/2019,16709.0,Northwest Health Law Advocates,1469.2,0.0,1469.2,0.0,0.0,0.0,0.0,0.0,0.0,0.0,1469.2,24519.0,Direct,,,View report (https://accesshub.pdc.wa.gov/node/54742),Health Care,SB 5602,Senate Health Committee
60033,54778-24519,54778,FE,24518,Huma Zarif,Employer,24519,Northwest Health Law Advocates,19-Mar,12/17/2019,16709.0,Northwest Health Law Advocates,624.41,0.0,624.41,0.0,0.0,0.0,0.0,0.0,0.0,0.0,624.41,24519.0,Direct,,,View report (https://accesshub.pdc.wa.gov/node/54778),Health Care,SB 5602,House Health Committee
60034,55629-24519,55629,FE,24518,Huma Zarif,Employer,24519,Northwest Health Law Advocates,19-Apr,12/17/2019,16709.0,Northwest Health Law Advocates,1331.46,0.0,1331.46,0.0,0.0,0.0,0.0,0.0,0.0,0.0,1331.46,24519.0,Direct,,,View report (https://accesshub.pdc.wa.gov/node/55629),Health Care,SB 5602,House and Senate Health Committees
60035,61375-24519,61375,FE,24518,Huma Zarif,Employer,24519,Northwest Health Law Advocates,19-Aug,12/17/2019,16709.0,Northwest Health Law Advocates,284.66,0.0,284.66,0.0,0.0,0.0,0.0,0.0,0.0,0.0,284.66,24519.0,Direct,,,View report (https://accesshub.pdc.wa.gov/node/61375),Health Care,reproductive health care,Health Care Authority
60036,57116-50736,57116,FE,17996,STRATEGIES 360*,Employer,50736,PACIFIC NORTHWEST REGIONAL COUNCIL OF CARPENTERS,19-Jun,12/17/2019,16754.0,PACIFIC NORTHWEST REGIONAL COUNCIL OF CARPENTERS,3000.0,0.0,3000.0,0.0,0.0,0.0,0.0,0.0,0.0,0.0,3000.0,50736.0,Direct,,,View report (https://accesshub.pdc.wa.gov/node/57116),,,
60038,56223-18692,56223,FE,17536,Nick Federici,Employer,18692,PIONEER HUMAN SERVICES,19-May,12/17/2019,16788.0,PIONEER HUMAN SERVICES,3000.0,0.0,3000.0,0.0,0.0,0.0,0.0,0.0,0.0,0.0,3000.0,18692.0,Direct,,,View report (https://accesshub.pdc.wa.gov/node/56223),Human services,"Mental health, chemical dependency, criminal justice","Senate HC, Ways, HSMHH, L&J, House HC, Approps, Pub safety"
60039,56640-18692,56640,FE,17536,Nick Federici,Employer,18692,PIONEER HUMAN SERVICES,19-Jun,12/17/2019,16788.0,PIONEER HUMAN SERVICES,3000.0,0.0,3000.0,0.0,0.0,0.0,0.0,0.0,0.0,0.0,3000.0,18692.0,Direct,,,View report (https://accesshub.pdc.wa.gov/node/56640),Human services,"Mental health, chemical dependency, criminal justice","Senate HC, Ways, HSMHH, L&J, House HC, Approps, Pub safety"
60040,61380-59427,61380,FE,59426,Richard B Chisa,Employer,59427,PUBLIC SCHOOL EMPLOYEES OF WA,19-Nov,12/17/2019,16824.0,PUBLIC SCHOOL EMPLOYEES OF WA,19266.88,0.0,19266.88,377.58,0.0,32853.2,0.0,0.0,0.0,33230.78,52497.66,59427.0,Direct,,,View report (https://accesshub.pdc.wa.gov/node/61380),Education,unknown,unknown
60041,61349-19901,61349,FE,18096,BRUCE WISHART,Employer,19901,PUGET SOUND KEEPER ALLIANCE,19-Nov,12/17/2019,16829.0,PUGET SOUND KEEPER ALLIANCE,1800.0,0.0,1800.0,0.0,0.0,0.0,0.0,0.0,0.0,0.0,1800.0,19901.0,Direct,,,View report (https://accesshub.pdc.wa.gov/node/61349),Environmental Affairs - natural resources - parks,water quality,"Department of Ecology, Department of Health, House Energy and Environment, Senate Energy and Environment"
60042,61306-19508,61306,FE,17905,T K BENTLER/PUBLIC AFFAIRS ASSOC*,Employer,19508,RAI Services Company,19-Nov,12/17/2019,16862.0,RAI Services Company,9305.42,0.0,9305.42,0.0,0.0,0.0,0.0,0.0,0.0,0.0,9305.42,19508.0,Direct,,,View report (https://accesshub.pdc.wa.gov/node/61306),,,
60043,61287-19728,61287,FE,18010,Brewer Public Affairs,Employer,19728,SCHINDLER ELEVATOR CORP,19-Nov,12/17/2019,16877.0,SCHINDLER ELEVATOR CORP,3200.0,0.0,3200.0,0.0,0.0,0.0,0.0,0.0,0.0,0.0,3200.0,19728.0,Direct,,,View report (https://accesshub.pdc.wa.gov/node/61287),Business and consumer affairs,Elevator Policy,"LNI Labor, Fiscal Committees"
60044,56223-18694,56223,FE,17536,Nick Federici,Employer,18694,SEIU 775,19-May,12/17/2019,16905.0,SEIU 775,2500.0,0.0,2500.0,0.0,0.0,0.0,0.0,0.0,0.0,0.0,2500.0,18694.0,Direct,,,View report (https://accesshub.pdc.wa.gov/node/56223),Health Care,Long-Term Care,"Senate HC, Ways, House HC, Approps"
60045,56640-18694,56640,FE,17536,Nick Federici,Employer,18694,SEIU 775,19-Jun,12/17/2019,16905.0,SEIU 775,2500.0,0.0,2500.0,0.0,0.0,0.0,0.0,0.0,0.0,0.0,2500.0,18694.0,Direct,,,View report (https://accesshub.pdc.wa.gov/node/56640),Health Care,Long-Term Care,"Senate HC, Ways, House HC, Approps"
60046,61349-19902,61349,FE,18096,BRUCE WISHART,Employer,19902,Sierra Club,19-Nov,12/17/2019,16915.0,Sierra Club,1700.0,0.0,1700.0,0.0,0.0,0.0,0.0,0.0,0.0,0.0,1700.0,19902.0,Direct,,,View report (https://accesshub.pdc.wa.gov/node/61349),Environmental Affairs - natural resources - parks,Climate change,"House Energy and Environment, Senate Energy and Environment"
60047,61349-19903,61349,FE,18096,BRUCE WISHART,Employer,19903,SOUND ACTION,19-Nov,12/17/2019,16930.0,SOUND ACTION,1500.0,0.0,1500.0,0.0,0.0,0.0,0.0,0.0,0.0,0.0,1500.0,19903.0,Direct,,,View report (https://accesshub.pdc.wa.gov/node/61349),Environmental Affairs - natural resources - parks,Orca Recovery,House Energy and Environment
60049,57116-19710,57116,FE,17996,STRATEGIES 360*,Employer,19710,TRANSALTA USA INC,19-Jun,12/17/2019,16989.0,TRANSALTA USA INC,6000.0,0.0,6000.0,0.0,0.0,0.0,0.0,0.0,0.0,0.0,6000.0,19710.0,Direct,,,View report (https://accesshub.pdc.wa.gov/node/57116),,,
60050,61356-18432,61356,FE,17444,SARAH I CHERIN,Employer,18432,UNITED FOOD & COMM WRKRS # 3000,19-Nov,12/17/2019,17005.0,UNITED FOOD & COMM WRKRS # 3000,260.0,0.0,260.0,0.0,0.0,0.0,0.0,0.0,0.0,0.0,260.0,18432.0,Direct,,,View report (https://accesshub.pdc.wa.gov/node/61356),Labor,various,labor
60051,56223-18695,56223,FE,17536,Nick Federici,Employer,18695,UNITED WAY OF KING CO,19-May,12/17/2019,17018.0,UNITED WAY OF KING CO,1666.66,0.0,1666.66,0.0,0.0,0.0,0.0,0.0,0.0,0.0,1666.66,18695.0,Direct,,,View report (https://accesshub.pdc.wa.gov/node/56223),Human services,"Housing, homelessness, early learning, human services","Senate HSMHH, Ways, FII, K-12, House Approps, Comm Dev, HS/EL, Ed"
60052,56640-18695,56640,FE,17536,Nick Federici,Employer,18695,UNITED WAY OF KING CO,19-Jun,12/17/2019,17018.0,UNITED WAY OF KING CO,1666.66,0.0,1666.66,0.0,0.0,0.0,0.0,0.0,0.0,0.0,1666.66,18695.0,Direct,,,View report (https://accesshub.pdc.wa.gov/node/56640),Human services,"Housing, homelessness, early learning, human services","Senate HSMHH, Ways, FII, K-12, House Approps, Comm Dev, HS/EL, Ed"
60053,61015-28516,61015,FE,28515,Barbara Wilson,Employer,28516,VULCAN INC,19-Nov,12/17/2019,17039.0,VULCAN INC,396.0,0.0,396.0,151.89,0.0,0.0,0.0,0.0,0.0,151.89,547.89,28516.0,Direct,,,View report (https://accesshub.pdc.wa.gov/node/61015),Transportation,various,various
60054,57116-55581,57116,FE,17996,STRATEGIES 360*,Employer,55581,WA AMBULANCE ASSN,19-Jun,12/17/2019,17045.0,WA AMBULANCE ASSN,5000.0,0.0,5000.0,0.0,0.0,0.0,0.0,0.0,0.0,0.0,5000.0,55581.0,Direct,,,View report (https://accesshub.pdc.wa.gov/node/57116),,,
60057,61349-49153,61349,FE,18096,BRUCE WISHART,Employer,49153,ZERO WASTE WA,19-Nov,12/17/2019,17086.0,ZERO WASTE WA,1500.0,0.0,1500.0,0.0,0.0,0.0,0.0,0.0,0.0,0.0,1500.0,49153.0,Direct,,,View report (https://accesshub.pdc.wa.gov/node/61349),Environmental Affairs - natural resources - parks,Solid Waste Legislation,"House Energy and Environment, Senate Energy and Environment, House Healthcare and Wellness, Senate Health and Longterm Care"
60058,61317-18249,61317,FE,17391,SIMONE BOE,Employer,18249,WA EDUCATION ASSN,19-Nov,12/17/2019,17098.0,WA EDUCATION ASSN,2256.89,0.0,2256.89,400.07,0.0,0.0,0.0,0.0,0.0,400.07,2656.96,18249.0,Direct,,,View report (https://accesshub.pdc.wa.gov/node/61317),Education,"Higher Education, Assessment, School Based-Health Centers","Sen. Billig, Randall, Rep. Stonier, OSPI - TJ Kelly, State Board, Governor's Office - Career Connect, SBCTC - Arlen Harris"
60059,61327-19564,61327,FE,17931,JULIE K SALVI,Employer,19564,WA EDUCATION ASSN,19-Nov,12/17/2019,17098.0,WA EDUCATION ASSN,2829.54,0.0,2829.54,63.96,0.0,0.0,0.0,0.0,0.0,63.96,2893.5,19564.0,Direct,,,View report (https://accesshub.pdc.wa.gov/node/61327),Education,"SEBB Implementation, K-12 and HE Employee Compensation and Leave Issue, Plan 1 COLA; Implementation of Higher Ed Investments","Sen. Billig, Hobbs, Keiser, Lovelett, Stanford, Rep. Stonier, Chopp, Hansen, Frame, SCPP, Senate Ways&Means-Budget Updates, HDCC/SDCC Fundraiser, House Approp Staff, Jt. Higher Ed Comm, DRS-Rules Hearing, OFM, HCA Staff"
60060,61330-19913,61330,FE,18106,LUCINDA L YOUNG,Employer,19913,WA EDUCATION ASSN,19-Nov,12/17/2019,17098.0,WA EDUCATION ASSN,4480.1,0.0,4480.1,722.06,0.0,303.16,0.0,0.0,0.0,1025.22,5505.32,19913.0,Direct,,,View report (https://accesshub.pdc.wa.gov/node/61330),Education,"School Safety, Teacher Preparation Issues, Paraeducator Funding, Licensure Issues","Rep. Santos, Stonier, Senate Ed Comm-Legislator Mtgs, House Ed Comm-Legislator Mtgs, Paraeducator Board, PESB, Wincellar"
60061,61325-28564,61325,FE,28561,LORRELL NOAHR,Employer,28564,WA EDUCATION ASSN,19-Nov,12/17/2019,17098.0,WA EDUCATION ASSN,1246.34,0.0,1246.34,217.69,0.0,0.0,0.0,0.0,0.0,217.69,1464.03,28564.0,Direct,,,View report (https://accesshub.pdc.wa.gov/node/61325),Education,Education Fiscal Policy,"Paul, Pellicciotti/Hunt, SDC Staff/ERFC/Ways & Means Staff, OFM, SCPP, HDC Staff"
60062,61099-18978,61099,FE,17649,DOUG HOOKS,Employer,18978,WA FOREST PROTECTION ASSN,19-Nov,12/17/2019,17120.0,WA FOREST PROTECTION ASSN,770.0,0.0,770.0,0.0,0.0,0.0,0.0,0.0,0.0,0.0,770.0,18978.0,Direct,,,View report (https://accesshub.pdc.wa.gov/node/61099),Environmental Affairs - natural resources - parks,Forest Practices; Wildfire,Various
60064,56223-18698,56223,FE,17536,Nick Federici,Employer,18698,WA INFORMATION NETWORK 211,19-May,12/17/2019,17136.0,WA INFORMATION NETWORK 211,2500.0,0.0,2500.0,0.0,0.0,0.0,0.0,0.0,0.0,0.0,2500.0,18698.0,Direct,,,View report (https://accesshub.pdc.wa.gov/node/56223),Human services,211 System,"Senate ways, house approps"
60065,56640-18698,56640,FE,17536,Nick Federici,Employer,18698,WA INFORMATION NETWORK 211,19-Jun,12/17/2019,17136.0,WA INFORMATION NETWORK 211,2500.0,0.0,2500.0,0.0,0.0,0.0,0.0,0.0,0.0,0.0,2500.0,18698.0,Direct,,,View report (https://accesshub.pdc.wa.gov/node/56640),Human services,211 System,"Senate ways, house approps"
60066,56223-18699,56223,FE,17536,Nick Federici,Employer,18699,WA LOW-INCOME HOUSING ALLIANCE,19-May,12/17/2019,17143.0,WA LOW-INCOME HOUSING ALLIANCE,3750.0,0.0,3750.0,0.0,0.0,0.0,0.0,0.0,0.0,0.0,3750.0,18699.0,Direct,,,View report (https://accesshub.pdc.wa.gov/node/56223),Human services,"Housing, homelessness","Senate HSMHH, Ways, FII, House Approps, Comm Dev, Judiciary"
60067,56640-18699,56640,FE,17536,Nick Federici,Employer,18699,WA LOW-INCOME HOUSING ALLIANCE,19-Jun,12/17/2019,17143.0,WA LOW-INCOME HOUSING ALLIANCE,3750.0,0.0,3750.0,0.0,0.0,0.0,0.0,0.0,0.0,0.0,3750.0,18699.0,Direct,,,View report (https://accesshub.pdc.wa.gov/node/56640),Human services,"Housing, homelessness","Senate HSMHH, Ways, FII, House Approps, Comm Dev, Judiciary"
60069,61287-19729,61287,FE,18010,Brewer Public Affairs,Employer,19729,WSIA,19-Nov,12/17/2019,17194.0,WSIA,3000.0,0.0,3000.0,0.0,0.0,0.0,0.0,0.0,0.0,0.0,3000.0,19729.0,Direct,,,View report (https://accesshub.pdc.wa.gov/node/61287),Labor,Workers Comp. Insurance,"LNI, Labor and Fiscal Committees"
60070,56223-18700,56223,FE,17536,Nick Federici,Employer,18700,TOXIC-FREE FUTURE,19-May,12/17/2019,17201.0,TOXIC-FREE FUTURE,1500.0,0.0,1500.0,0.0,0.0,0.0,0.0,0.0,0.0,0.0,1500.0,18700.0,Direct,,,View report (https://accesshub.pdc.wa.gov/node/56223),Environmental Affairs - natural resources - parks,Enviroment,"S Enviro, H Enviro"
60071,56640-18700,56640,FE,17536,Nick Federici,Employer,18700,TOXIC-FREE FUTURE,19-Jun,12/17/2019,17201.0,TOXIC-FREE FUTURE,1500.0,0.0,1500.0,0.0,0.0,0.0,0.0,0.0,0.0,0.0,1500.0,18700.0,Direct,,,View report (https://accesshub.pdc.wa.gov/node/56640),Environmental Affairs - natural resources - parks,Enviroment,"S Enviro, H Enviro"
60072,61306-19512,61306,FE,17905,T K BENTLER/PUBLIC AFFAIRS ASSOC*,Employer,19512,WA ST INDEPENDENT AUTO DEALERS ASSN,19-Nov,12/17/2019,17257.0,WA ST INDEPENDENT AUTO DEALERS ASSN,2600.0,0.0,2600.0,120.0,0.0,0.0,0.0,0.0,0.0,120.0,2720.0,19512.0,Direct,,,View report (https://accesshub.pdc.wa.gov/node/61306),Transportation,Curbstones,Dept. of Licensing and Transportation Committees
60073,61373-19613,61373,FE,17960,JEB C SHEPARD,Employer,19613,WA ST MEDICAL ASSN,19-Nov,12/17/2019,17261.0,WA ST MEDICAL ASSN,4500.0,0.0,4500.0,0.0,0.0,0.0,0.0,0.0,0.0,0.0,4500.0,19613.0,Direct,,,View report (https://accesshub.pdc.wa.gov/node/61373),Health Care,"prior authorization, opioids, credentialing","OIC, HCA, DOH"
60074,61366-18975,61366,FE,17646,DEDI LITTLE,Employer,18975,WA ST PHARMACY ASSN,19-Dec,12/17/2019,17271.0,WA ST PHARMACY ASSN,6215.0,0.0,6215.0,0.0,0.0,0.0,0.0,0.0,0.0,0.0,6215.0,18975.0,Direct,,,View report (https://accesshub.pdc.wa.gov/node/61366),Health Care,health care issues related to pharmacy,"OIC, HCA, DOH, Senate & House Health Care committees"
60075,61198-19093,61198,FE,17710,TERRY KOHL,Employer,19093,WA ST SNOWMOBILE ASSN,19-Nov,12/17/2019,17282.0,WA ST SNOWMOBILE ASSN,833.33,0.0,833.33,224.52,0.0,0.0,0.0,0.0,0.0,224.52,1057.85,19093.0,Direct,,,View report (https://accesshub.pdc.wa.gov/node/61198),Environmental Affairs - natural resources - parks,Snowmobile Recreation,HS SEN Labor Commerce Healthcare DOL DOH
60076,61198-19094,61198,FE,17710,TERRY KOHL,Employer,19094,WA ST SELF STORAGE ASSN,19-Nov,12/17/2019,17287.0,WA ST SELF STORAGE ASSN,1245.83,0.0,1245.83,51.21,0.0,0.0,0.0,0.0,0.0,51.21,1297.04,19094.0,Direct,,,View report (https://accesshub.pdc.wa.gov/node/61198),Business and consumer affairs,Real Estate Self Storage Law,HS SEN Judicial Commerce Labor HS Business Finance
60077,60156-44291,60156,FE,29962,Mary Catherine McAleer,Employer,44291,WEYERHAEUSER CO,19-Oct,12/17/2019,17305.0,WEYERHAEUSER CO,264.25,0.0,264.25,0.0,0.0,41000.0,0.0,0.0,0.0,41000.0,41264.25,44291.0,Direct,,,View report (https://accesshub.pdc.wa.gov/node/60156),Environmental Affairs - natural resources - parks,Forestry and Silviculture,"House of Representatives, WA DNR, WSDA"
60078,61348-44291,61348,FE,29962,Mary Catherine McAleer,Employer,44291,WEYERHAEUSER CO,19-Nov,12/17/2019,17305.0,WEYERHAEUSER CO,2007.6,0.0,2007.6,0.0,0.0,14000.0,0.0,0.0,0.0,14000.0,16007.6,44291.0,Direct,,,View report (https://accesshub.pdc.wa.gov/node/61348),Environmental Affairs - natural resources - parks,Forestry and Silviculture,"House of Representatives, WA DNR, WSDA, Ecology"
60079,61350-44291,61350,FE,29962,Mary Catherine McAleer,Employer,44291,WEYERHAEUSER CO,19-Dec,12/17/2019,17305.0,WEYERHAEUSER CO,344.6,0.0,344.6,0.0,0.0,36500.0,601.95,0.0,0.0,37101.95,37446.55,44291.0,Direct,,,View report (https://accesshub.pdc.wa.gov/node/61350),Environmental Affairs - natural resources - parks,Forestry and Silviculture,"House of Representatives, WA DNR, WSDA, Ecology"
60080,57116-23621,57116,FE,17996,STRATEGIES 360*,Employer,23621,PORT OF SKAGIT,19-Jun,12/17/2019,23609.0,PORT OF SKAGIT,4000.0,0.0,4000.0,0.0,0.0,0.0,0.0,0.0,0.0,0.0,4000.0,23621.0,Direct,,,View report (https://accesshub.pdc.wa.gov/node/57116),,,
60081,57116-38812,57116,FE,17996,STRATEGIES 360*,Employer,38812,WILLAPA-GRAYS HARBOR OYSTER GROWERS ASSN,19-Jun,12/17/2019,23612.0,WILLAPA-GRAYS HARBOR OYSTER GROWERS ASSN,3500.0,0.0,3500.0,0.0,0.0,0.0,0.0,0.0,0.0,0.0,3500.0,38812.0,Direct,,,View report (https://accesshub.pdc.wa.gov/node/57116),,,
60083,57116-30627,57116,FE,17996,STRATEGIES 360*,Employer,30627,Save the Children US Programs,19-Jun,12/17/2019,30626.0,Save the Children US Programs,3000.0,0.0,3000.0,0.0,0.0,0.0,0.0,0.0,0.0,0.0,3000.0,30627.0,Direct,,,View report (https://accesshub.pdc.wa.gov/node/57116),,,
60085,57116-37447,57116,FE,17996,STRATEGIES 360*,Employer,37447,City of Sedro-Woolley,19-Jun,12/17/2019,37314.0,City of Sedro-Woolley,3000.0,0.0,3000.0,0.0,0.0,0.0,0.0,0.0,0.0,0.0,3000.0,37447.0,Direct,,,View report (https://accesshub.pdc.wa.gov/node/57116),,,
60086,61351-40452,61351,FE,40449,Mark Rose,Employer,40452,"The Partners Group, Ltd.",19-Nov,12/17/2019,40451.0,"The Partners Group, Ltd.",2500.0,0.0,2500.0,0.0,0.0,0.0,0.0,0.0,0.0,0.0,2500.0,40452.0,Direct,,,View report (https://accesshub.pdc.wa.gov/node/61351),Health Care,School Employees Benefits Board,"Health Care Authority, SEBB Board, John Bowden"
60087,57116-40989,57116,FE,17996,STRATEGIES 360*,Employer,40989,Stelter Montlake LLC,19-Jun,12/17/2019,40984.0,Stelter Montlake LLC,3000.0,0.0,3000.0,0.0,0.0,0.0,0.0,0.0,0.0,0.0,3000.0,40989.0,Direct,,,View report (https://accesshub.pdc.wa.gov/node/57116),,,
60088,61306-44816,61306,FE,17905,T K BENTLER/PUBLIC AFFAIRS ASSOC*,Employer,44816,United Rentals c/o MultiState Associates Inc.,19-Nov,12/17/2019,44672.0,United Rentals c/o MultiState Associates Inc.,5000.0,0.0,5000.0,0.0,0.0,0.0,0.0,0.0,0.0,0.0,5000.0,44816.0,Direct,,,View report (https://accesshub.pdc.wa.gov/node/61306),Fiscal,Heavy Equipment Property Tax,"Finance & W&Ms, Dept of Revenue"
60089,56223-47042,56223,FE,17536,Nick Federici,Employer,47042,City of Sammamish,19-May,12/17/2019,47025.0,City of Sammamish,2000.0,0.0,2000.0,0.0,0.0,0.0,0.0,0.0,0.0,0.0,2000.0,47042.0,Direct,,,View report (https://accesshub.pdc.wa.gov/node/56223),,,
60090,56640-47042,56640,FE,17536,Nick Federici,Employer,47042,City of Sammamish,19-Jun,12/17/2019,47025.0,City of Sammamish,2000.0,0.0,2000.0,0.0,0.0,0.0,0.0,0.0,0.0,0.0,2000.0,47042.0,Direct,,,View report (https://accesshub.pdc.wa.gov/node/56640),,,
60091,57116-47893,57116,FE,17996,STRATEGIES 360*,Employer,47893,"North Pacific Paper Company, LLC",19-Jun,12/17/2019,47891.0,"North Pacific Paper Company, LLC",6000.0,0.0,6000.0,0.0,0.0,0.0,0.0,0.0,0.0,0.0,6000.0,47893.0,Direct,,,View report (https://accesshub.pdc.wa.gov/node/57116),Energy and utilities,Permits,DNR
60093,61287-48933,61287,FE,18010,Brewer Public Affairs,Employer,48933,"A Place for Rover, Inc.",19-Nov,12/17/2019,48763.0,"A Place for Rover, Inc.",6500.0,0.0,6500.0,0.0,0.0,0.0,0.0,0.0,0.0,0.0,6500.0,48933.0,Direct,,,View report (https://accesshub.pdc.wa.gov/node/61287),Technology,"Independent Contractor, Privacy","LNI, Labor, technology and Fiscal Committees"
60094,57116-49843,57116,FE,17996,STRATEGIES 360*,Employer,49843,Northpoint Recovery LLC,19-Jun,12/17/2019,49708.0,Northpoint Recovery LLC,3000.0,0.0,3000.0,0.0,0.0,0.0,0.0,0.0,0.0,0.0,3000.0,49843.0,Direct,,,View report (https://accesshub.pdc.wa.gov/node/57116),,,
60096,60502-50711,60502,FE,39198,Colin Cole,Employer,50711,Proteus Action League,19-Nov,12/17/2019,50708.0,Proteus Action League,2708.34,0.0,2708.34,173.56,0.0,0.0,0.0,0.0,0.0,173.56,2881.9,50711.0,Direct,,,View report (https://accesshub.pdc.wa.gov/node/60502),State government,"HB 1722 / SB 5708, ranked-choice voting, and odd-year elections","Representative Gregerson, House Appropriations, Senate State Government and Tribal Relations"
60097,57116-51460,57116,FE,17996,STRATEGIES 360*,Employer,51460,PacificSource Health Plans,19-Jun,12/17/2019,51438.0,PacificSource Health Plans,4500.0,0.0,4500.0,0.0,0.0,0.0,0.0,0.0,0.0,0.0,4500.0,51460.0,Direct,,,View report (https://accesshub.pdc.wa.gov/node/57116),,,
60099,61287-52924,61287,FE,18010,Brewer Public Affairs,Employer,52924,OfferUp Inc.,19-Nov,12/17/2019,52573.0,OfferUp Inc.,6500.0,0.0,6500.0,0.0,0.0,0.0,0.0,0.0,0.0,0.0,6500.0,52924.0,Direct,,,View report (https://accesshub.pdc.wa.gov/node/61287),Technology,"Tax, Technology","DOR, Fiscal, Technology Committees"
60106,61397-32170,61397,FE,17526,Arbutus Consulting LLC,Employer,32170,"Elevance Health, and its Affiliates",19-Nov,12/18/2019,16107.0,"Elevance Health, and its Affiliates",7000.0,0.0,7000.0,0.0,0.0,0.0,0.0,0.0,0.0,0.0,7000.0,32170.0,Direct,,,View report (https://accesshub.pdc.wa.gov/node/61397),Health Care,Health Care,House and Senate Health Care and Fiscal Committees
60114,61397-54346,61397,FE,17526,Arbutus Consulting LLC,Employer,54346,CITY OF LACEY,19-Nov,12/18/2019,16294.0,CITY OF LACEY,2500.0,0.0,2500.0,0.0,0.0,0.0,0.0,0.0,0.0,0.0,2500.0,54346.0,Direct,,,View report (https://accesshub.pdc.wa.gov/node/61397),Local government,"1357, 1598",House and Senate Local Government Committee
60124,61397-30485,61397,FE,17526,Arbutus Consulting LLC,Employer,30485,City of Vancouver (MARK O BROWN),19-Nov,12/18/2019,16319.0,City of Vancouver,6000.0,0.0,6000.0,0.0,0.0,0.0,0.0,0.0,0.0,0.0,6000.0,30485.0,Subcontract,17413.0,MARK O BROWN,View report (https://accesshub.pdc.wa.gov/node/61397),,,
60141,61381-18523,61381,FE,17477,JOE C DANIELS,Employer,18523,ALTRIA CLIENT SERVICES LLC & ITS AFFILIATES,19-Nov,12/18/2019,16778.0,ALTRIA CLIENT SERVICES LLC & ITS AFFILIATES,7500.0,0.0,7500.0,0.0,0.0,0.0,0.0,0.0,0.0,0.0,7500.0,18523.0,Direct,,,View report (https://accesshub.pdc.wa.gov/node/61381),Business and consumer affairs,tobacco industry issues,Legislative policy & fiscal committees
60142,61397-39186,61397,FE,17526,Arbutus Consulting LLC,Employer,39186,PORT OF WALLA WALLA,19-Nov,12/18/2019,16809.0,PORT OF WALLA WALLA,3600.0,0.0,3600.0,0.0,0.0,0.0,0.0,0.0,0.0,0.0,3600.0,39186.0,Direct,,,View report (https://accesshub.pdc.wa.gov/node/61397),Local government,Capital and Transportation,Capital and Transportation Committees
60143,61396-48592,61396,FE,48591,Timothy Doran,Employer,48592,STATEWIDE POVERTY ACTION NETWORK,19-Nov,12/18/2019,16952.0,STATEWIDE POVERTY ACTION NETWORK,500.0,0.0,500.0,0.0,0.0,0.0,0.0,0.0,0.0,0.0,500.0,48592.0,Direct,,,View report (https://accesshub.pdc.wa.gov/node/61396),Law and justice,consumer protections,Members of House Civil Rights & Judiciary; Members of Senate Law & Justice
60148,61390-19716,61390,FE,18000,NEIL STREGE,Employer,19716,WA ROUNDTABLE,19-Nov,12/18/2019,17178.0,WA ROUNDTABLE,2652.25,0.0,2652.25,0.0,0.0,0.0,0.0,0.0,0.0,0.0,2652.25,19716.0,Direct,,,View report (https://accesshub.pdc.wa.gov/node/61390),Education,Various,Various
60149,61381-18524,61381,FE,17477,JOE C DANIELS,Employer,18524,WA ASSN OF SEWER & WATER DISTRICTS,19-Nov,12/18/2019,17198.0,WA ASSN OF SEWER & WATER DISTRICTS,3000.0,0.0,3000.0,0.0,0.0,0.0,0.0,0.0,0.0,0.0,3000.0,18524.0,Direct,,,View report (https://accesshub.pdc.wa.gov/node/61381),Local government,water/sewer district issues,Legislative fiscal & policy committees
60154,61397-27361,61397,FE,17526,Arbutus Consulting LLC,Employer,27361,City of Ferndale,19-Nov,12/18/2019,27359.0,City of Ferndale,1667.0,0.0,1667.0,0.0,0.0,0.0,0.0,0.0,0.0,0.0,1667.0,27361.0,Direct,,,View report (https://accesshub.pdc.wa.gov/node/61397),Local government,Local Government,House and Senate Local Government Committees
60155,61407-27593,61407,FE,27592,Hemstad Consulting,Employer,27593,City of Des Moines,19-Nov,12/18/2019,27571.0,City of Des Moines,4000.0,0.0,4000.0,0.0,0.0,0.0,0.0,0.0,0.0,0.0,4000.0,27593.0,Direct,,,View report (https://accesshub.pdc.wa.gov/node/61407),Fiscal,Capital appropriation,"House Capital Budget, Senate Ways & Means"
60168,61407-59583,61407,FE,27592,Hemstad Consulting,Employer,59583,King County Fire Protection District 39 DBA South King Fire & Rescue,19-Nov,12/18/2019,59576.0,King County Fire Protection District 39 DBA South King Fire & Rescue,4000.0,0.0,4000.0,0.0,0.0,0.0,0.0,0.0,0.0,0.0,4000.0,59583.0,Direct,,,View report (https://accesshub.pdc.wa.gov/node/61407),Fiscal,Capital appropriation,"House Capital Budget, Senate Ways & Means"
60172,61361-47034,61361,FE,17666,ALEX HUR,Employer,47034,Cities Insurance Assn of WA,19-Nov,12/19/2019,16269.0,Cities Insurance Assn of WA,840.0,0.0,840.0,0.0,0.0,0.0,0.0,0.0,0.0,0.0,840.0,47034.0,Direct,,,View report (https://accesshub.pdc.wa.gov/node/61361),Financial institutions and insurance,"Insurance, risk","FIHI, local government"
60178,61361-19010,61361,FE,17666,ALEX HUR,Employer,19010,"Meta Platforms, Inc.",19-Nov,12/19/2019,16430.0,"Meta Platforms, Inc.",5000.0,0.0,5000.0,0.0,0.0,0.0,0.0,0.0,0.0,0.0,5000.0,19010.0,Direct,,,View report (https://accesshub.pdc.wa.gov/node/61361),Technology,Tech,"Tech, state government"
60180,61361-19011,61361,FE,17666,ALEX HUR,Employer,19011,ONEAMERICA,19-Nov,12/19/2019,16494.0,ONEAMERICA,3000.0,0.0,3000.0,0.0,0.0,0.0,0.0,0.0,0.0,0.0,3000.0,19011.0,Direct,,,View report (https://accesshub.pdc.wa.gov/node/61361),Education,"K-12, immigrant rights, civil rights","K-12, state government, judiciary, approps, ways and means"
60183,61361-50625,61361,FE,17666,ALEX HUR,Employer,50625,MASTER BLDRS ASSN OF KING & SNO COUNTIES,19-Nov,12/19/2019,16622.0,MASTER BLDRS ASSN OF KING & SNO COUNTIES,7000.0,0.0,7000.0,0.0,0.0,0.0,0.0,0.0,0.0,0.0,7000.0,50625.0,Direct,,,View report (https://accesshub.pdc.wa.gov/node/61361),Local government,Housing,"Local Government, Environment"
60185,61361-47036,61361,FE,17666,ALEX HUR,Employer,47036,WA RURAL CO INSURANCE PROGRAM,19-Nov,12/19/2019,16865.0,WA RURAL CO INSURANCE PROGRAM,240.0,0.0,240.0,0.0,0.0,0.0,0.0,0.0,0.0,0.0,240.0,47036.0,Direct,,,View report (https://accesshub.pdc.wa.gov/node/61361),Financial institutions and insurance,Insurance,FIHI
60186,61361-47035,61361,FE,17666,ALEX HUR,Employer,47035,Schools Insurance Assn of WA,19-Nov,12/19/2019,16881.0,Schools Insurance Assn of WA,1290.0,0.0,1290.0,0.0,0.0,0.0,0.0,0.0,0.0,0.0,1290.0,47035.0,Direct,,,View report (https://accesshub.pdc.wa.gov/node/61361),Financial institutions and insurance,"School safety, insurance, risk","K-12, FIHI, approps, ways and means"
60187,61361-19013,61361,FE,17666,ALEX HUR,Employer,19013,STATEWIDE POVERTY ACTION NETWORK,19-Nov,12/19/2019,16952.0,STATEWIDE POVERTY ACTION NETWORK,3000.0,0.0,3000.0,0.0,0.0,0.0,0.0,0.0,0.0,0.0,3000.0,19013.0,Direct,,,View report (https://accesshub.pdc.wa.gov/node/61361),Human services,Human Services,"Early Learning and Human Services, Human Services"
60188,61361-47037,61361,FE,17666,ALEX HUR,Employer,47037,UNITED SCHOOLS INSURANCE PROGRAM,19-Nov,12/19/2019,17014.0,UNITED SCHOOLS INSURANCE PROGRAM,630.0,0.0,630.0,0.0,0.0,0.0,0.0,0.0,0.0,0.0,630.0,47037.0,Direct,,,View report (https://accesshub.pdc.wa.gov/node/61361),Financial institutions and insurance,Insurance/Risk,"FIHI, K-12, BFS"
60191,61411-19326,61411,FE,17827,STEPHEN F MULLIN,Employer,19326,WA ROUNDTABLE,19-Nov,12/19/2019,17178.0,WA ROUNDTABLE,1287.5,0.0,1287.5,0.0,4509.89,0.0,0.0,0.0,0.0,4509.89,5797.39,19326.0,Direct,,,View report (https://accesshub.pdc.wa.gov/node/61411),Education,Various,Various
60194,61361-38654,61361,FE,17666,ALEX HUR,Employer,38654,Win Win Network,19-Nov,12/19/2019,35885.0,Win Win Network,850.0,0.0,850.0,0.0,0.0,0.0,0.0,0.0,0.0,0.0,850.0,38654.0,Direct,,,View report (https://accesshub.pdc.wa.gov/node/61361),State government,Voting access,State Government
60195,61361-39189,61361,FE,17666,ALEX HUR,Employer,39189,Northwest Education Access,19-Nov,12/19/2019,39188.0,Northwest Education Access,3000.0,0.0,3000.0,0.0,0.0,0.0,0.0,0.0,0.0,0.0,3000.0,39189.0,Direct,,,View report (https://accesshub.pdc.wa.gov/node/61361),Higher education,Higher Ed,"Higher Education, Approps, Ways and Means"
60199,61361-53976,61361,FE,17666,ALEX HUR,Employer,53976,Postmates,19-Nov,12/19/2019,53975.0,Postmates,5000.0,0.0,5000.0,0.0,0.0,0.0,0.0,0.0,0.0,0.0,5000.0,53976.0,Direct,,,View report (https://accesshub.pdc.wa.gov/node/61361),Technology,"Data privacy, independent contractors","Innovation/Tech, Tech, Labor"
60203,61434-18235,61434,FE,17379,ERICA D HALLOCK,Employer,18235,COUNCIL FOR A STRONG AMERICA,19-Dec,12/20/2019,16372.0,COUNCIL FOR A STRONG AMERICA,750.0,0.0,750.0,0.0,0.0,0.0,0.0,0.0,0.0,0.0,750.0,18235.0,Direct,,,View report (https://accesshub.pdc.wa.gov/node/61434),Human services,early learning,"DCYF, House Appropriations, Senate Ways and Means, House Human services, Senate Early Learning &K-12"
60204,61434-18236,61434,FE,17379,ERICA D HALLOCK,Employer,18236,EMPIRE HEALTH FOUNDATION,19-Dec,12/20/2019,16413.0,EMPIRE HEALTH FOUNDATION,500.0,0.0,500.0,0.0,0.0,0.0,0.0,0.0,0.0,0.0,500.0,18236.0,Direct,,,View report (https://accesshub.pdc.wa.gov/node/61434),Health Care,"network administrator child welfare, CARE Fund, Accountable Communities of Health","DCYF, HCA, Commerce, Senate Ways and Means, House Appropriations"
60205,61170-29932,61170,FE,29929,Sean P Pickard,Employer,29932,Delta Dental of WA,19-Nov,12/20/2019,17096.0,Delta Dental of WA,1000.0,0.0,1000.0,250.0,0.0,203500.0,0.0,0.0,0.0,203750.0,204750.0,29932.0,Direct,,,View report (https://accesshub.pdc.wa.gov/node/61170),Health Care,ORAL HEALTH ISSUES,"Health Care Committees members, HBE and OIC"
60206,61433-61431,61433,FE,58150,Graduate and Professional Student Association of Washington State University,Employer,61431,The Graduate and Professional Student Association of Washington State University,19-Dec,12/20/2019,61430.0,The Graduate and Professional Student Association of Washington State University,1632.0,0.0,1632.0,0.0,0.0,0.0,0.0,0.0,0.0,0.0,1632.0,61431.0,Direct,,,View report (https://accesshub.pdc.wa.gov/node/61433),Higher education,Higher Education,Higher Education Committee/Higher Education and Workforce Committee
60207,61445-19129,61445,FE,17741,JEAN M LEONARD*,Employer,19129,AMERICAN INTERNATIONAL GROUP INC,19-Nov,12/21/2019,16112.0,AMERICAN INTERNATIONAL GROUP INC,3500.0,-1111.11,2388.89,0.0,0.0,0.0,0.0,0.0,0.0,0.0,2388.89,19129.0,Direct,,,View report (https://accesshub.pdc.wa.gov/node/61445),Financial institutions and insurance,"S FIH, S JUD, H FII, H JUD TR",
60208,61445-19130,61445,FE,17741,JEAN M LEONARD*,Employer,19130,ENTERTAINMENT SOFTWARE ASSN,19-Nov,12/21/2019,16416.0,ENTERTAINMENT SOFTWARE ASSN,6666.66,-1111.11,5555.55,0.0,0.0,0.0,0.0,0.0,0.0,0.0,5555.55,19130.0,Direct,,,View report (https://accesshub.pdc.wa.gov/node/61445),,,
60209,61445-19132,61445,FE,17741,JEAN M LEONARD*,Employer,19132,NATIONWIDE INSURANCE,19-Nov,12/21/2019,16676.0,NATIONWIDE INSURANCE,3000.0,-1111.11,1888.89,56.66,0.0,0.0,0.0,0.0,0.0,56.66,1945.55,19132.0,Direct,,,View report (https://accesshub.pdc.wa.gov/node/61445),Financial institutions and insurance,"S FIH, S JUD, H FII, H JUD TR",
60210,61445-19133,61445,FE,17741,JEAN M LEONARD*,Employer,19133,SPRINT NEXTEL,19-Nov,12/21/2019,16683.0,SPRINT NEXTEL,3000.0,-1111.11,1888.89,0.0,0.0,0.0,0.0,0.0,0.0,0.0,1888.89,19133.0,Direct,,,View report (https://accesshub.pdc.wa.gov/node/61445),Technology,"H APPROP, C CPH, S WET",
60211,59723-27358,59723,FE,27257,Paribello Public Affairs,Employer,27358,SOCIETY OF PROFESSIONAL ENGINEERING EMPLOYEES IN AEROSPACE SPEEA,19-Oct,12/21/2019,16928.0,SOCIETY OF PROFESSIONAL ENGINEERING EMPLOYEES IN AEROSPACE SPEEA,3000.0,0.0,3000.0,0.0,0.0,0.0,0.0,0.0,0.0,0.0,3000.0,27358.0,Direct,,,View report (https://accesshub.pdc.wa.gov/node/59723),Labor,labor issues,house and senate members
60212,61445-19134,61445,FE,17741,JEAN M LEONARD*,Employer,19134,STATE FARM INSURANCE COMPANIES,19-Nov,12/21/2019,16951.0,STATE FARM INSURANCE COMPANIES,8366.67,-1111.11,7255.56,18.17,0.0,0.0,0.0,0.0,0.0,18.17,7273.73,19134.0,Direct,,,View report (https://accesshub.pdc.wa.gov/node/61445),Financial institutions and insurance,"S FIH, S JUD, H FII, H JUD TR",
60213,61445-19135,61445,FE,17741,JEAN M LEONARD*,Employer,19135,WA INSURERS,19-Nov,12/21/2019,17130.0,WA INSURERS,8075.75,-1111.11,6964.64,0.0,0.0,0.0,0.0,0.0,0.0,0.0,6964.64,19135.0,Direct,,,View report (https://accesshub.pdc.wa.gov/node/61445),Financial institutions and insurance,"S FIH, S JUD, H FII, H JUD TR",
60214,59723-35886,59723,FE,27257,Paribello Public Affairs,Employer,35886,Win Win Network,19-Oct,12/21/2019,35885.0,Win Win Network,564.52,0.0,564.52,0.0,0.0,0.0,0.0,0.0,0.0,0.0,564.52,35886.0,Direct,,,View report (https://accesshub.pdc.wa.gov/node/59723),,,
60215,61445-38977,61445,FE,17741,JEAN M LEONARD*,Employer,38977,Crown Castle and Affiliates,19-Nov,12/21/2019,38969.0,Crown Castle and Affiliates,3000.0,-1111.11,1888.89,0.0,0.0,0.0,0.0,0.0,0.0,0.0,1888.89,38977.0,Direct,,,View report (https://accesshub.pdc.wa.gov/node/61445),Technology,,
60216,61445-39066,61445,FE,17741,JEAN M LEONARD*,Employer,39066,DJI Technology Inc,19-Nov,12/21/2019,39061.0,DJI Technology Inc,7000.0,-1111.11,5888.89,0.0,0.0,0.0,0.0,0.0,0.0,0.0,5888.89,39066.0,Direct,,,View report (https://accesshub.pdc.wa.gov/node/61445),,,
60217,59723-46339,59723,FE,27257,Paribello Public Affairs,Employer,46339,"Higher Influence, LLC",19-Oct,12/21/2019,39292.0,"Higher Influence, LLC",2000.0,0.0,2000.0,0.0,0.0,0.0,0.0,0.0,0.0,0.0,2000.0,46339.0,Direct,,,View report (https://accesshub.pdc.wa.gov/node/59723),Business and consumer affairs,marijuana business matters,house and senate members
60218,61445-39625,61445,FE,17741,JEAN M LEONARD*,Employer,39625,Blue Origin LLC,19-Nov,12/21/2019,39619.0,Blue Origin LLC,2500.0,-1111.11,1388.89,0.0,0.0,0.0,0.0,0.0,0.0,0.0,1388.89,39625.0,Direct,,,View report (https://accesshub.pdc.wa.gov/node/61445),Technology,,
60219,61444-49481,61444,FE,49469,Sarah Commerford Brady,Employer,49481,Child Care Resources,19-Dec,12/21/2019,49480.0,Child Care Resources,320.82,0.0,320.82,79.45,0.0,0.0,0.0,0.0,0.0,79.45,400.27,49481.0,Direct,,,View report (https://accesshub.pdc.wa.gov/node/61444),,,
60220,59723-51666,59723,FE,27257,Paribello Public Affairs,Employer,51666,Ilani Resort and Casino,19-Oct,12/21/2019,51060.0,Ilani Resort and Casino,5000.0,0.0,5000.0,0.0,0.0,0.0,0.0,0.0,0.0,0.0,5000.0,51666.0,Direct,,,View report (https://accesshub.pdc.wa.gov/node/59723),Business and consumer affairs,tribal business and gaming issues,house and senate members
60221,59723-53466,59723,FE,27257,Paribello Public Affairs,Employer,53466,Global Mobile (H2 Government Relations),19-Oct,12/21/2019,53121.0,Global Mobile,666.66,0.0,666.66,0.0,0.0,0.0,0.0,0.0,0.0,0.0,666.66,53466.0,Subcontract,17543.0,H2 Government Relations,View report (https://accesshub.pdc.wa.gov/node/59723),,,
60222,59723-54392,59723,FE,27257,Paribello Public Affairs,Employer,54392,Life Flight Network,19-Oct,12/21/2019,54375.0,Life Flight Network,3000.0,0.0,3000.0,0.0,0.0,0.0,0.0,0.0,0.0,0.0,3000.0,54392.0,Direct,,,View report (https://accesshub.pdc.wa.gov/node/59723),Health Care,health care matters,house and senate members
60223,61449-19764,61449,FE,18026,Michele Thomas,Employer,19764,WA LOW-INCOME HOUSING ALLIANCE,19-Nov,12/22/2019,17143.0,WA LOW-INCOME HOUSING ALLIANCE,881.71,0.0,881.71,0.0,0.0,0.0,0.0,0.0,0.0,0.0,881.71,19764.0,Direct,,,View report (https://accesshub.pdc.wa.gov/node/61449),Human services,"housing, homelessness","Various LM, Commerce"
60224,60485-58824,60485,FE,17712,KATHRYN KOLAN,Employer,58824,AMERICAN INTERNATIONAL GROUP INC  (JEAN M LEONARD*),19-Nov,12/23/2019,16112.0,AMERICAN INTERNATIONAL GROUP INC,1111.0,0.0,1111.0,0.0,0.0,0.0,0.0,0.0,0.0,0.0,1111.0,58824.0,Subcontract,17741.0,JEAN M LEONARD*,View report (https://accesshub.pdc.wa.gov/node/60485),,,
60225,61457-29535,61457,FE,17609,Kelly Hall,Employer,29535,CLIMATE SOLUTIONS,19-Nov,12/23/2019,16327.0,CLIMATE SOLUTIONS,324.45,0.0,324.45,9.86,0.0,0.0,0.0,0.0,0.0,9.86,334.31,29535.0,Direct,,,View report (https://accesshub.pdc.wa.gov/node/61457),Transportation,"Clean Fuels, transportation funding","Energy & Environment, , UTC, Commerce"
60226,60485-58828,60485,FE,17712,KATHRYN KOLAN,Employer,58828,ENTERTAINMENT SOFTWARE ASSN (JEAN M LEONARD*),19-Nov,12/23/2019,16416.0,ENTERTAINMENT SOFTWARE ASSN,1111.0,0.0,1111.0,0.0,0.0,0.0,0.0,0.0,0.0,0.0,1111.0,58828.0,Subcontract,17741.0,JEAN M LEONARD*,View report (https://accesshub.pdc.wa.gov/node/60485),,,
60227,61459-60446,61459,FE,59659,Orlando Cano Consulting LLC,Employer,60446,ONEAMERICA (ALEX HUR),19-Dec,12/23/2019,16494.0,ONEAMERICA,4000.0,0.0,4000.0,0.0,0.0,0.0,0.0,0.0,0.0,0.0,4000.0,60446.0,Subcontract,17666.0,ALEX HUR,View report (https://accesshub.pdc.wa.gov/node/61459),Education,Early Learning & Child Care,WA
60228,60485-58829,60485,FE,17712,KATHRYN KOLAN,Employer,58829,NATIONWIDE INSURANCE (JEAN M LEONARD*),19-Nov,12/23/2019,16676.0,NATIONWIDE INSURANCE,1111.0,0.0,1111.0,0.0,0.0,0.0,0.0,0.0,0.0,0.0,1111.0,58829.0,Subcontract,17741.0,JEAN M LEONARD*,View report (https://accesshub.pdc.wa.gov/node/60485),,,
60229,60485-58830,60485,FE,17712,KATHRYN KOLAN,Employer,58830,SPRINT NEXTEL (JEAN M LEONARD*),19-Nov,12/23/2019,16683.0,SPRINT NEXTEL,1111.0,0.0,1111.0,0.0,0.0,0.0,0.0,0.0,0.0,0.0,1111.0,58830.0,Subcontract,17741.0,JEAN M LEONARD*,View report (https://accesshub.pdc.wa.gov/node/60485),,,
60230,60485-58831,60485,FE,17712,KATHRYN KOLAN,Employer,58831,STATE FARM INSURANCE COMPANIES (JEAN M LEONARD*),19-Nov,12/23/2019,16951.0,STATE FARM INSURANCE COMPANIES,1111.0,0.0,1111.0,0.0,0.0,0.0,0.0,0.0,0.0,0.0,1111.0,58831.0,Subcontract,17741.0,JEAN M LEONARD*,View report (https://accesshub.pdc.wa.gov/node/60485),,,
60231,60485-58832,60485,FE,17712,KATHRYN KOLAN,Employer,58832,WA INSURERS (JEAN M LEONARD*),19-Nov,12/23/2019,17130.0,WA INSURERS,1111.0,0.0,1111.0,0.0,0.0,0.0,0.0,0.0,0.0,0.0,1111.0,58832.0,Subcontract,17741.0,JEAN M LEONARD*,View report (https://accesshub.pdc.wa.gov/node/60485),,,
60232,60485-19096,60485,FE,17712,KATHRYN KOLAN,Employer,19096,WA ST MEDICAL ASSN,19-Nov,12/23/2019,17261.0,WA ST MEDICAL ASSN,6000.0,0.0,6000.0,0.0,0.0,0.0,0.0,0.0,0.0,0.0,6000.0,19096.0,Direct,,,View report (https://accesshub.pdc.wa.gov/node/60485),Health Care,Health Care,Legislators
60233,60485-58826,60485,FE,17712,KATHRYN KOLAN,Employer,58826,Crown Castle and Affiliates  (JEAN M LEONARD*),19-Nov,12/23/2019,38969.0,Crown Castle and Affiliates,1111.0,0.0,1111.0,0.0,0.0,0.0,0.0,0.0,0.0,0.0,1111.0,58826.0,Subcontract,17741.0,JEAN M LEONARD*,View report (https://accesshub.pdc.wa.gov/node/60485),,,
60234,60485-58827,60485,FE,17712,KATHRYN KOLAN,Employer,58827,DJI Technology Inc (JEAN M LEONARD*),19-Nov,12/23/2019,39061.0,DJI Technology Inc,1111.0,0.0,1111.0,0.0,0.0,0.0,0.0,0.0,0.0,0.0,1111.0,58827.0,Subcontract,17741.0,JEAN M LEONARD*,View report (https://accesshub.pdc.wa.gov/node/60485),,,
60235,60485-58825,60485,FE,17712,KATHRYN KOLAN,Employer,58825,Blue Origin LLC (JEAN M LEONARD*),19-Nov,12/23/2019,39619.0,Blue Origin LLC,1111.0,0.0,1111.0,0.0,0.0,0.0,0.0,0.0,0.0,0.0,1111.0,58825.0,Subcontract,17741.0,JEAN M LEONARD*,View report (https://accesshub.pdc.wa.gov/node/60485),,,
60236,61247-19871,61247,FE,18075,RHONDA WEAVER,Employer,19871,COMCAST CABLE COMMUNICATIONS,19-Nov,12/24/2019,16344.0,COMCAST CABLE COMMUNICATIONS,2250.0,0.0,2250.0,0.0,0.0,32000.0,0.0,0.0,0.0,32000.0,34250.0,19871.0,Direct,,,View report (https://accesshub.pdc.wa.gov/node/61247),Technology,Telecommunications,Legislature
60237,61470-39111,61470,FE,28847,Amber McPhee-Millard,Employer,39111,NORTHWEST AGRICULTURE BUSINESS CENTER,19-Nov,12/24/2019,16696.0,NORTHWEST AGRICULTURE BUSINESS CENTER,250.0,0.0,250.0,0.0,0.0,0.0,0.0,0.0,0.0,0.0,250.0,39111.0,Direct,,,View report (https://accesshub.pdc.wa.gov/node/61470),Agriculture,Agricultural Issues,House and Senate Committees
60238,61470-51992,61470,FE,28847,Amber McPhee-Millard,Employer,51992,WA ASSN FOR CHILDREN & FAMILIES,19-Nov,12/24/2019,17229.0,WA ASSN FOR CHILDREN & FAMILIES,4000.0,0.0,4000.0,0.0,0.0,0.0,0.0,0.0,0.0,0.0,4000.0,51992.0,Direct,,,View report (https://accesshub.pdc.wa.gov/node/61470),Human services,Human Services Issues,House and Senate Committees
60239,61470-45587,61470,FE,28847,Amber McPhee-Millard,Employer,45587,BreakThrough Inc.,19-Nov,12/24/2019,32015.0,BreakThrough Inc.,1500.0,0.0,1500.0,0.0,0.0,0.0,0.0,0.0,0.0,0.0,1500.0,45587.0,Direct,,,View report (https://accesshub.pdc.wa.gov/node/61470),Human services,Human Services Issues,House and Senate Committees
60242,61486-19828,61486,FE,18053,JANET VARON,Employer,19828,Northwest Health Law Advocates,19-Dec,12/27/2019,16709.0,Northwest Health Law Advocates,591.0,0.0,591.0,0.0,0.0,0.0,0.0,0.0,0.0,0.0,591.0,19828.0,Direct,,,View report (https://accesshub.pdc.wa.gov/node/61486),Financial institutions and insurance,Health insurance related rulemaking,Office of the Insurance Commissioner
60243,61478-18702,61478,FE,17537,KRISTEN FEDERICI,Employer,18702,PROVIDENCE HEALTH & SERVICES- WA,19-May,12/27/2019,16821.0,PROVIDENCE HEALTH & SERVICES- WA,375.0,0.0,375.0,0.0,0.0,0.0,0.0,0.0,0.0,0.0,375.0,18702.0,Direct,,,View report (https://accesshub.pdc.wa.gov/node/61478),Health Care,Health care,"Health care committees, DOH, HCA"
60244,61479-18702,61479,FE,17537,KRISTEN FEDERICI,Employer,18702,PROVIDENCE HEALTH & SERVICES- WA,19-Jun,12/27/2019,16821.0,PROVIDENCE HEALTH & SERVICES- WA,375.0,0.0,375.0,0.0,0.0,0.0,0.0,0.0,0.0,0.0,375.0,18702.0,Direct,,,View report (https://accesshub.pdc.wa.gov/node/61479),Health Care,Health care,"Health care committees, DOH, HCA"
60245,61480-18702,61480,FE,17537,KRISTEN FEDERICI,Employer,18702,PROVIDENCE HEALTH & SERVICES- WA,19-Jul,12/27/2019,16821.0,PROVIDENCE HEALTH & SERVICES- WA,375.0,0.0,375.0,0.0,0.0,0.0,0.0,0.0,0.0,0.0,375.0,18702.0,Direct,,,View report (https://accesshub.pdc.wa.gov/node/61480),Health Care,Health care,"Health care committee, DOH HCA"
60246,61481-18702,61481,FE,17537,KRISTEN FEDERICI,Employer,18702,PROVIDENCE HEALTH & SERVICES- WA,19-Aug,12/27/2019,16821.0,PROVIDENCE HEALTH & SERVICES- WA,450.0,0.0,450.0,0.0,0.0,0.0,0.0,0.0,0.0,0.0,450.0,18702.0,Direct,,,View report (https://accesshub.pdc.wa.gov/node/61481),Health Care,Health care,"Health care committees, DOH, HCA"
60247,61482-18702,61482,FE,17537,KRISTEN FEDERICI,Employer,18702,PROVIDENCE HEALTH & SERVICES- WA,19-Sep,12/27/2019,16821.0,PROVIDENCE HEALTH & SERVICES- WA,375.0,0.0,375.0,0.0,0.0,0.0,0.0,0.0,0.0,0.0,375.0,18702.0,Direct,,,View report (https://accesshub.pdc.wa.gov/node/61482),Health Care,Health care,"Health care committees, DOH, HCA"
60248,61483-18702,61483,FE,17537,KRISTEN FEDERICI,Employer,18702,PROVIDENCE HEALTH & SERVICES- WA,19-Oct,12/27/2019,16821.0,PROVIDENCE HEALTH & SERVICES- WA,450.0,0.0,450.0,0.0,0.0,0.0,0.0,0.0,0.0,0.0,450.0,18702.0,Direct,,,View report (https://accesshub.pdc.wa.gov/node/61483),Health Care,Health care,"Health care committees, DOH and HCA"
60249,61484-18702,61484,FE,17537,KRISTEN FEDERICI,Employer,18702,PROVIDENCE HEALTH & SERVICES- WA,19-Nov,12/27/2019,16821.0,PROVIDENCE HEALTH & SERVICES- WA,375.0,0.0,375.0,0.0,0.0,0.0,0.0,0.0,0.0,0.0,375.0,18702.0,Direct,,,View report (https://accesshub.pdc.wa.gov/node/61484),Health Care,Health care,"Health committees, DOH and HCA"
60250,61485-18702,61485,FE,17537,KRISTEN FEDERICI,Employer,18702,PROVIDENCE HEALTH & SERVICES- WA,19-Dec,12/27/2019,16821.0,PROVIDENCE HEALTH & SERVICES- WA,375.0,0.0,375.0,0.0,0.0,0.0,0.0,0.0,0.0,0.0,375.0,18702.0,Direct,,,View report (https://accesshub.pdc.wa.gov/node/61485),Health Care,Health care,"Health care committee, DOH, HCA"
60251,61387-19639,61387,FE,17974,MELANIE J SMITH,Employer,19639,COMMITTEE FOR CHILDREN,19-Nov,12/28/2019,16347.0,COMMITTEE FOR CHILDREN,2975.0,0.0,2975.0,0.0,0.0,0.0,0.0,0.0,0.0,0.0,2975.0,19639.0,Direct,,,View report (https://accesshub.pdc.wa.gov/node/61387),Education,social emotional learning,"education, early learning, child abuse prevention"
60252,61387-39038,61387,FE,17974,MELANIE J SMITH,Employer,39038,NAMI WA,19-Nov,12/28/2019,16654.0,NAMI WA,1000.0,0.0,1000.0,0.0,0.0,0.0,0.0,0.0,0.0,0.0,1000.0,39038.0,Direct,,,View report (https://accesshub.pdc.wa.gov/node/61387),Health Care,Mental healthcare,healthcare
60253,61387-25635,61387,FE,17974,MELANIE J SMITH,Employer,25635,MULTI-SERVICE CENTER LONG TERM CARE OMBUDSMAN PROGRAM,19-Nov,12/28/2019,16932.0,MULTI-SERVICE CENTER LONG TERM CARE OMBUDSMAN PROGRAM,720.0,0.0,720.0,0.0,0.0,0.0,0.0,0.0,0.0,0.0,720.0,25635.0,Direct,,,View report (https://accesshub.pdc.wa.gov/node/61387),,,
60254,61387-24482,61387,FE,17974,MELANIE J SMITH,Employer,24482,WA ST SOCIETY FOR CLINICAL SOCIAL WORK,19-Nov,12/28/2019,17284.0,WA ST SOCIETY FOR CLINICAL SOCIAL WORK,900.0,0.0,900.0,0.0,0.0,0.0,0.0,0.0,0.0,0.0,900.0,24482.0,Direct,,,View report (https://accesshub.pdc.wa.gov/node/61387),,,
60255,61387-19644,61387,FE,17974,MELANIE J SMITH,Employer,19644,WELLSPRING FAMILY SERVICES,19-Nov,12/28/2019,17297.0,WELLSPRING FAMILY SERVICES,1150.0,0.0,1150.0,0.0,0.0,0.0,0.0,0.0,0.0,0.0,1150.0,19644.0,Direct,,,View report (https://accesshub.pdc.wa.gov/node/61387),Human services,early learning and human services,"human services, early learning"
60256,61498-40716,61498,FE,40254,David Benjamin Mendoza,Employer,40716,Latino Community Fund of Washington State,19-Jul,12/28/2019,40493.0,Latino Community Fund of Washington State,2750.0,0.0,2750.0,0.0,0.0,0.0,0.0,0.0,0.0,0.0,2750.0,40716.0,Direct,,,View report (https://accesshub.pdc.wa.gov/node/61498),,,
60257,61506-40716,61506,FE,40254,David Benjamin Mendoza,Employer,40716,Latino Community Fund of Washington State,19-Aug,12/28/2019,40493.0,Latino Community Fund of Washington State,2750.0,0.0,2750.0,0.0,0.0,0.0,0.0,0.0,0.0,0.0,2750.0,40716.0,Direct,,,View report (https://accesshub.pdc.wa.gov/node/61506),Energy and utilities,Clean Energy Transformation Act,"UTC, Commerce, House Environment Committee"
60258,61507-40716,61507,FE,40254,David Benjamin Mendoza,Employer,40716,Latino Community Fund of Washington State,19-Sep,12/28/2019,40493.0,Latino Community Fund of Washington State,1375.0,0.0,1375.0,0.0,0.0,50.0,0.0,0.0,0.0,50.0,1425.0,40716.0,Direct,,,View report (https://accesshub.pdc.wa.gov/node/61507),,,
60260,61511-19501,61511,FE,17905,T K BENTLER/PUBLIC AFFAIRS ASSOC*,Employer,19501,3M CO,19-Dec,12/29/2019,16055.0,3M CO,3333.33,0.0,3333.33,0.0,0.0,0.0,0.0,0.0,0.0,0.0,3333.33,19501.0,Direct,,,View report (https://accesshub.pdc.wa.gov/node/61511),Transportation,Reflective License Plates,Transportation Committees
60261,61508-29720,61508,FE,27746,Alex Alston Consulting,Employer,29720,WASHINGTON BIKES,19-Nov,12/29/2019,16191.0,WASHINGTON BIKES,1000.0,0.0,1000.0,0.0,0.0,0.0,0.0,0.0,0.0,0.0,1000.0,29720.0,Direct,,,View report (https://accesshub.pdc.wa.gov/node/61508),,,
60262,61509-29720,61509,FE,27746,Alex Alston Consulting,Employer,29720,WASHINGTON BIKES,19-Dec,12/29/2019,16191.0,WASHINGTON BIKES,1000.0,0.0,1000.0,0.0,0.0,0.0,0.0,0.0,0.0,0.0,1000.0,29720.0,Direct,,,View report (https://accesshub.pdc.wa.gov/node/61509),,,
60263,61511-50729,61511,FE,17905,T K BENTLER/PUBLIC AFFAIRS ASSOC*,Employer,50729,CANNABIS ORGANIZATION OF RETAIL ESTABLISHMENTS,19-Dec,12/29/2019,16224.0,CANNABIS ORGANIZATION OF RETAIL ESTABLISHMENTS,4000.0,0.0,4000.0,120.0,0.0,0.0,0.0,0.0,0.0,120.0,4120.0,50729.0,Direct,,,View report (https://accesshub.pdc.wa.gov/node/61511),,,
60264,61512-18662,61512,FE,17522,ENGAGE STRATEGIES SPC*,Employer,18662,ISLANDWOOD,19-Nov,12/29/2019,16549.0,ISLANDWOOD,2000.0,0.0,2000.0,0.0,0.0,0.0,0.0,0.0,0.0,0.0,2000.0,18662.0,Direct,,,View report (https://accesshub.pdc.wa.gov/node/61512),Education,Outdoore ed and rec funding; env education funding,Sen Ways and Means; House Approps; Cap budget; OFM; RCO; OSPI
60265,61512-55709,61512,FE,17522,ENGAGE STRATEGIES SPC*,Employer,55709,KALISPEL TRIBE,19-Nov,12/29/2019,16570.0,KALISPEL TRIBE,4000.0,0.0,4000.0,0.0,0.0,0.0,0.0,0.0,0.0,0.0,4000.0,55709.0,Direct,,,View report (https://accesshub.pdc.wa.gov/node/61512),Environmental Affairs - natural resources - parks,Air quality; Proposed Newport Smelter,Governor's Office; Commerce; Dept of Ecology; House Env
60266,61512-18663,61512,FE,17522,ENGAGE STRATEGIES SPC*,Employer,18663,LUMMI TRIBE,19-Nov,12/29/2019,16610.0,LUMMI TRIBE,4300.0,0.0,4300.0,0.0,0.0,0.0,0.0,0.0,0.0,0.0,4300.0,18663.0,Direct,,,View report (https://accesshub.pdc.wa.gov/node/61512),Environmental Affairs - natural resources - parks,Water; natural resources; taxes; transportation; human services; education,House AGNR; Sen AG; Sen Natural Res. OFM; RCO; WDFW
60267,61511-19506,61511,FE,17905,T K BENTLER/PUBLIC AFFAIRS ASSOC*,Employer,19506,"MOTION PICTURE ASSOCIATION, INC.",19-Dec,12/29/2019,16645.0,"MOTION PICTURE ASSOCIATION, INC.",2500.0,0.0,2500.0,0.0,0.0,0.0,0.0,0.0,0.0,0.0,2500.0,19506.0,Direct,,,View report (https://accesshub.pdc.wa.gov/node/61511),,,
60268,61511-19507,61511,FE,17905,T K BENTLER/PUBLIC AFFAIRS ASSOC*,Employer,19507,MOTOR VEHICLE SOFTWARE CORP,19-Dec,12/29/2019,16648.0,MOTOR VEHICLE SOFTWARE CORP,5000.0,0.0,5000.0,0.0,0.0,0.0,0.0,0.0,0.0,0.0,5000.0,19507.0,Direct,,,View report (https://accesshub.pdc.wa.gov/node/61511),Business and consumer affairs,Subagency license,Dept. of Licensing and Transportation Comm Members
60269,61512-23615,61512,FE,17522,ENGAGE STRATEGIES SPC*,Employer,23615,NORTHWEST ENERGY COALITION,19-Nov,12/29/2019,16700.0,NORTHWEST ENERGY COALITION,667.0,0.0,667.0,0.0,0.0,0.0,0.0,0.0,0.0,0.0,667.0,23615.0,Direct,,,View report (https://accesshub.pdc.wa.gov/node/61512),Environmental Affairs - natural resources - parks,Environmental Justice and health disparities,"House Approps, Sen Ways and Menas"
60270,61511-19508,61511,FE,17905,T K BENTLER/PUBLIC AFFAIRS ASSOC*,Employer,19508,RAI Services Company,19-Dec,12/29/2019,16862.0,RAI Services Company,9305.42,0.0,9305.42,0.0,0.0,0.0,0.0,0.0,0.0,0.0,9305.42,19508.0,Direct,,,View report (https://accesshub.pdc.wa.gov/node/61511),,,
60271,61510-31237,61510,FE,31236,Jim Blundell,Employer,31237,T-MOBILE USA INC,19-Nov,12/29/2019,17038.0,T-MOBILE USA INC,1270.0,0.0,1270.0,0.0,0.0,0.0,0.0,0.0,0.0,0.0,1270.0,31237.0,Direct,,,View report (https://accesshub.pdc.wa.gov/node/61510),Technology,"SB 5711, SB 5935, SB 5919, SB 6446, SB 6423, HB 2200, HB 2592, HB 2282, HB 2284, HB 2312, HB 2389, HB 2279, HB 2477","House Members, House Committee on Technology & Economic Development, Senate Members, Senate Committee on Energy, Environment and Telecommunications"
60272,61512-44980,61512,FE,17522,ENGAGE STRATEGIES SPC*,Employer,44980,WA State Community Action Partnership,19-Nov,12/29/2019,17226.0,WA State Community Action Partnership,3000.0,0.0,3000.0,0.0,0.0,0.0,0.0,0.0,0.0,0.0,3000.0,44980.0,Direct,,,View report (https://accesshub.pdc.wa.gov/node/61512),Human services,"Affordable housing, intergenerational poverty","Commerce; DSHS, OFM, Ways and Means, Appropriations"
60273,61511-19512,61511,FE,17905,T K BENTLER/PUBLIC AFFAIRS ASSOC*,Employer,19512,WA ST INDEPENDENT AUTO DEALERS ASSN,19-Dec,12/29/2019,17257.0,WA ST INDEPENDENT AUTO DEALERS ASSN,2600.0,0.0,2600.0,120.0,0.0,0.0,0.0,0.0,0.0,120.0,2720.0,19512.0,Direct,,,View report (https://accesshub.pdc.wa.gov/node/61511),Transportation,Curbstones,Dept. of Licensing and Transportation Committees
60274,61512-49833,61512,FE,17522,ENGAGE STRATEGIES SPC*,Employer,49833,Sightline Institute,19-Nov,12/29/2019,37788.0,Sightline Institute,2250.0,0.0,2250.0,0.0,0.0,0.0,0.0,0.0,0.0,0.0,2250.0,49833.0,Direct,,,View report (https://accesshub.pdc.wa.gov/node/61512),Local government,"Land Use, HB 1923, SB 5812, HB 1797","H Loc Gov, Sen Housing Aff, House E&E"
60275,61511-44816,61511,FE,17905,T K BENTLER/PUBLIC AFFAIRS ASSOC*,Employer,44816,United Rentals c/o MultiState Associates Inc.,19-Dec,12/29/2019,44672.0,United Rentals c/o MultiState Associates Inc.,5000.0,0.0,5000.0,0.0,0.0,0.0,0.0,0.0,0.0,0.0,5000.0,44816.0,Direct,,,View report (https://accesshub.pdc.wa.gov/node/61511),Fiscal,Heavy Equipment Property Tax,"Finance & W&Ms, Dept of Revenue"
60276,61512-49840,61512,FE,17522,ENGAGE STRATEGIES SPC*,Employer,49840,TEACH FOR AMERICA - WA,19-Nov,12/29/2019,49839.0,TEACH FOR AMERICA - WA,1500.0,0.0,1500.0,0.0,0.0,0.0,0.0,0.0,0.0,0.0,1500.0,49840.0,Direct,,,View report (https://accesshub.pdc.wa.gov/node/61512),Education,"Teacher recruting, training","Education Committees, PESB, OSPI"
60277,51689-18169,51689,FE,17348,CHRISTOPHERSEN INC*,Employer,18169,ASSN OF WA SPIRITS & WINE DISTRIBUTORS,19-Jan,12/30/2019,16172.0,ASSN OF WA SPIRITS & WINE DISTRIBUTORS,5250.0,-700.0,4550.0,0.0,0.0,0.0,0.0,0.0,0.0,0.0,4550.0,18169.0,Direct,,,View report (https://accesshub.pdc.wa.gov/node/51689),Business and consumer affairs,various,various
60278,53473-18169,53473,FE,17348,CHRISTOPHERSEN INC*,Employer,18169,ASSN OF WA SPIRITS & WINE DISTRIBUTORS,19-Feb,12/30/2019,16172.0,ASSN OF WA SPIRITS & WINE DISTRIBUTORS,5250.0,-663.0,4587.0,0.0,2399.95,0.0,0.0,0.0,0.0,2399.95,6986.95,18169.0,Direct,,,View report (https://accesshub.pdc.wa.gov/node/53473),Business and consumer affairs,various,various
60279,54289-18169,54289,FE,17348,CHRISTOPHERSEN INC*,Employer,18169,ASSN OF WA SPIRITS & WINE DISTRIBUTORS,19-Mar,12/30/2019,16172.0,ASSN OF WA SPIRITS & WINE DISTRIBUTORS,5250.0,-663.0,4587.0,0.0,0.0,0.0,0.0,0.0,0.0,0.0,4587.0,18169.0,Direct,,,View report (https://accesshub.pdc.wa.gov/node/54289),Business and consumer affairs,various,various
60280,55053-18169,55053,FE,17348,CHRISTOPHERSEN INC*,Employer,18169,ASSN OF WA SPIRITS & WINE DISTRIBUTORS,19-Apr,12/30/2019,16172.0,ASSN OF WA SPIRITS & WINE DISTRIBUTORS,5250.0,-663.0,4587.0,0.0,0.0,0.0,0.0,0.0,0.0,0.0,4587.0,18169.0,Direct,,,View report (https://accesshub.pdc.wa.gov/node/55053),Business and consumer affairs,various,various
60281,55994-18169,55994,FE,17348,CHRISTOPHERSEN INC*,Employer,18169,ASSN OF WA SPIRITS & WINE DISTRIBUTORS,19-May,12/30/2019,16172.0,ASSN OF WA SPIRITS & WINE DISTRIBUTORS,5250.0,-663.0,4587.0,0.0,0.0,0.0,0.0,0.0,0.0,0.0,4587.0,18169.0,Direct,,,View report (https://accesshub.pdc.wa.gov/node/55994),Business and consumer affairs,various,various
60282,58577-18169,58577,FE,17348,CHRISTOPHERSEN INC*,Employer,18169,ASSN OF WA SPIRITS & WINE DISTRIBUTORS,19-Aug,12/30/2019,16172.0,ASSN OF WA SPIRITS & WINE DISTRIBUTORS,5250.0,-733.0,4517.0,0.0,0.0,0.0,0.0,0.0,0.0,0.0,4517.0,18169.0,Direct,,,View report (https://accesshub.pdc.wa.gov/node/58577),Business and consumer affairs,various,various
60283,59244-18169,59244,FE,17348,CHRISTOPHERSEN INC*,Employer,18169,ASSN OF WA SPIRITS & WINE DISTRIBUTORS,19-Oct,12/30/2019,16172.0,ASSN OF WA SPIRITS & WINE DISTRIBUTORS,5250.0,-733.0,4517.0,0.0,0.0,0.0,0.0,0.0,0.0,0.0,4517.0,18169.0,Direct,,,View report (https://accesshub.pdc.wa.gov/node/59244),Business and consumer affairs,various,various
60284,54289-53365,54289,FE,17348,CHRISTOPHERSEN INC*,Employer,53365,AVISTA CORP,19-Mar,12/30/2019,16180.0,AVISTA CORP,7500.0,0.0,7500.0,0.0,0.0,0.0,0.0,0.0,0.0,0.0,7500.0,53365.0,Direct,,,View report (https://accesshub.pdc.wa.gov/node/54289),Energy and utilities,various,various
60285,55053-53365,55053,FE,17348,CHRISTOPHERSEN INC*,Employer,53365,AVISTA CORP,19-Apr,12/30/2019,16180.0,AVISTA CORP,7500.0,0.0,7500.0,0.0,0.0,0.0,0.0,0.0,0.0,0.0,7500.0,53365.0,Direct,,,View report (https://accesshub.pdc.wa.gov/node/55053),Energy and utilities,various,various
60286,61539-46483,61539,FE,46482,Juan Cotto,Employer,46483,BLOODWORKS NW,19-Nov,12/30/2019,16197.0,BLOODWORKS NW,490.0,0.0,490.0,0.0,0.0,0.0,0.0,0.0,0.0,0.0,490.0,46483.0,Direct,,,View report (https://accesshub.pdc.wa.gov/node/61539),State government,Raise Awareness on Blood Donations,Erik Pettigrew
60287,61516-19317,61516,FE,17825,CAREY L MORRIS,Employer,19317,CHILDHAVEN,19-Oct,12/30/2019,16257.0,CHILDHAVEN,2000.0,0.0,2000.0,0.0,0.0,0.0,0.0,0.0,0.0,0.0,2000.0,19317.0,Direct,,,View report (https://accesshub.pdc.wa.gov/node/61516),Human services,ECLIPSE Program,"Human Services, Early Learning, Education&K12, Fiscal"
60288,61517-19317,61517,FE,17825,CAREY L MORRIS,Employer,19317,CHILDHAVEN,19-Nov,12/30/2019,16257.0,CHILDHAVEN,2000.0,0.0,2000.0,0.0,0.0,0.0,0.0,0.0,0.0,0.0,2000.0,19317.0,Direct,,,View report (https://accesshub.pdc.wa.gov/node/61517),Human services,ECLIPSE Program,"Human Services, Early Learning, Education&K12, Fiscal"
60289,51689-18172,51689,FE,17348,CHRISTOPHERSEN INC*,Employer,18172,THE COLLEGE BOARD,19-Jan,12/30/2019,16334.0,THE COLLEGE BOARD,5000.0,-700.0,4300.0,0.0,0.0,0.0,0.0,0.0,0.0,0.0,4300.0,18172.0,Direct,,,View report (https://accesshub.pdc.wa.gov/node/51689),Education,various,various
60290,53473-18172,53473,FE,17348,CHRISTOPHERSEN INC*,Employer,18172,THE COLLEGE BOARD,19-Feb,12/30/2019,16334.0,THE COLLEGE BOARD,5000.0,-663.0,4337.0,0.0,0.0,0.0,0.0,0.0,0.0,0.0,4337.0,18172.0,Direct,,,View report (https://accesshub.pdc.wa.gov/node/53473),Education,various,various
60291,54289-18172,54289,FE,17348,CHRISTOPHERSEN INC*,Employer,18172,THE COLLEGE BOARD,19-Mar,12/30/2019,16334.0,THE COLLEGE BOARD,5000.0,-663.0,4337.0,0.0,0.0,0.0,0.0,0.0,0.0,0.0,4337.0,18172.0,Direct,,,View report (https://accesshub.pdc.wa.gov/node/54289),Education,various,various
60292,55053-18172,55053,FE,17348,CHRISTOPHERSEN INC*,Employer,18172,THE COLLEGE BOARD,19-Apr,12/30/2019,16334.0,THE COLLEGE BOARD,5000.0,-663.0,4337.0,0.0,0.0,0.0,0.0,0.0,0.0,0.0,4337.0,18172.0,Direct,,,View report (https://accesshub.pdc.wa.gov/node/55053),Education,various,various
60293,55994-18172,55994,FE,17348,CHRISTOPHERSEN INC*,Employer,18172,THE COLLEGE BOARD,19-May,12/30/2019,16334.0,THE COLLEGE BOARD,5000.0,-663.0,4337.0,0.0,0.0,0.0,0.0,0.0,0.0,0.0,4337.0,18172.0,Direct,,,View report (https://accesshub.pdc.wa.gov/node/55994),Education,various,various
60294,58577-18172,58577,FE,17348,CHRISTOPHERSEN INC*,Employer,18172,THE COLLEGE BOARD,19-Aug,12/30/2019,16334.0,THE COLLEGE BOARD,5000.0,-733.0,4267.0,0.0,0.0,0.0,0.0,0.0,0.0,0.0,4267.0,18172.0,Direct,,,View report (https://accesshub.pdc.wa.gov/node/58577),Education,various,various
60295,59244-18172,59244,FE,17348,CHRISTOPHERSEN INC*,Employer,18172,THE COLLEGE BOARD,19-Oct,12/30/2019,16334.0,THE COLLEGE BOARD,5000.0,-733.0,4267.0,0.0,0.0,0.0,0.0,0.0,0.0,0.0,4267.0,18172.0,Direct,,,View report (https://accesshub.pdc.wa.gov/node/59244),Education,various,various
60296,61514-19315,61514,FE,17823,MICHAEL M MORAN,Employer,19315,COLVILLE CONFEDERATED TRIBES,19-Dec,12/30/2019,16343.0,COLVILLE CONFEDERATED TRIBES,7500.0,0.0,7500.0,0.0,0.0,4000.0,0.0,0.0,0.0,4000.0,11500.0,19315.0,Direct,,,View report (https://accesshub.pdc.wa.gov/node/61514),Transportation,rural roads,House & Senate Trans
60297,51689-26030,51689,FE,17348,CHRISTOPHERSEN INC*,Employer,26030,HAMPTON TREE FARMS LLC,19-Jan,12/30/2019,16490.0,HAMPTON TREE FARMS LLC,4000.0,-700.0,3300.0,0.0,0.0,0.0,0.0,0.0,0.0,0.0,3300.0,26030.0,Direct,,,View report (https://accesshub.pdc.wa.gov/node/51689),Business and consumer affairs,various,various
60298,53473-26030,53473,FE,17348,CHRISTOPHERSEN INC*,Employer,26030,HAMPTON TREE FARMS LLC,19-Feb,12/30/2019,16490.0,HAMPTON TREE FARMS LLC,4000.0,-663.0,3337.0,0.0,0.0,0.0,0.0,0.0,0.0,0.0,3337.0,26030.0,Direct,,,View report (https://accesshub.pdc.wa.gov/node/53473),Business and consumer affairs,various,various
60299,54289-26030,54289,FE,17348,CHRISTOPHERSEN INC*,Employer,26030,HAMPTON TREE FARMS LLC,19-Mar,12/30/2019,16490.0,HAMPTON TREE FARMS LLC,4000.0,-663.0,3337.0,0.0,87.73,0.0,0.0,0.0,0.0,87.73,3424.73,26030.0,Direct,,,View report (https://accesshub.pdc.wa.gov/node/54289),Business and consumer affairs,various,various
60300,55053-26030,55053,FE,17348,CHRISTOPHERSEN INC*,Employer,26030,HAMPTON TREE FARMS LLC,19-Apr,12/30/2019,16490.0,HAMPTON TREE FARMS LLC,4000.0,-663.0,3337.0,0.0,0.0,0.0,0.0,0.0,0.0,0.0,3337.0,26030.0,Direct,,,View report (https://accesshub.pdc.wa.gov/node/55053),Business and consumer affairs,various,various
60301,55994-26030,55994,FE,17348,CHRISTOPHERSEN INC*,Employer,26030,HAMPTON TREE FARMS LLC,19-May,12/30/2019,16490.0,HAMPTON TREE FARMS LLC,4000.0,-663.0,3337.0,0.0,0.0,0.0,0.0,0.0,0.0,0.0,3337.0,26030.0,Direct,,,View report (https://accesshub.pdc.wa.gov/node/55994),Business and consumer affairs,various,various
60302,58577-26030,58577,FE,17348,CHRISTOPHERSEN INC*,Employer,26030,HAMPTON TREE FARMS LLC,19-Aug,12/30/2019,16490.0,HAMPTON TREE FARMS LLC,4000.0,-733.0,3267.0,0.0,0.0,0.0,0.0,0.0,0.0,0.0,3267.0,26030.0,Direct,,,View report (https://accesshub.pdc.wa.gov/node/58577),Business and consumer affairs,various,various
60303,59244-26030,59244,FE,17348,CHRISTOPHERSEN INC*,Employer,26030,HAMPTON TREE FARMS LLC,19-Oct,12/30/2019,16490.0,HAMPTON TREE FARMS LLC,4000.0,-733.0,3267.0,0.0,0.0,0.0,0.0,0.0,0.0,0.0,3267.0,26030.0,Direct,,,View report (https://accesshub.pdc.wa.gov/node/59244),Business and consumer affairs,various,various
60304,61516-19321,61516,FE,17825,CAREY L MORRIS,Employer,19321,LEAGUE OF EDUCATION VOTERS,19-Oct,12/30/2019,16589.0,LEAGUE OF EDUCATION VOTERS,4000.0,0.0,4000.0,0.0,0.0,0.0,0.0,0.0,0.0,0.0,4000.0,19321.0,Direct,,,View report (https://accesshub.pdc.wa.gov/node/61516),,,
60305,61517-19321,61517,FE,17825,CAREY L MORRIS,Employer,19321,LEAGUE OF EDUCATION VOTERS,19-Nov,12/30/2019,16589.0,LEAGUE OF EDUCATION VOTERS,4000.0,0.0,4000.0,0.0,0.0,0.0,0.0,0.0,0.0,0.0,4000.0,19321.0,Direct,,,View report (https://accesshub.pdc.wa.gov/node/61517),,,
60306,51689-18174,51689,FE,17348,CHRISTOPHERSEN INC*,Employer,18174,MERCK SHARP & DOHME LLC & AFFILIATES,19-Jan,12/30/2019,16632.0,MERCK SHARP & DOHME LLC & AFFILIATES,4583.33,-700.0,3883.33,0.0,0.0,0.0,0.0,0.0,0.0,0.0,3883.33,18174.0,Direct,,,View report (https://accesshub.pdc.wa.gov/node/51689),Business and consumer affairs,na,na
60307,53473-18174,53473,FE,17348,CHRISTOPHERSEN INC*,Employer,18174,MERCK SHARP & DOHME LLC & AFFILIATES,19-Feb,12/30/2019,16632.0,MERCK SHARP & DOHME LLC & AFFILIATES,4583.33,-663.0,3920.33,0.0,0.0,0.0,0.0,0.0,0.0,0.0,3920.33,18174.0,Direct,,,View report (https://accesshub.pdc.wa.gov/node/53473),Business and consumer affairs,na,na
60308,54289-18174,54289,FE,17348,CHRISTOPHERSEN INC*,Employer,18174,MERCK SHARP & DOHME LLC & AFFILIATES,19-Mar,12/30/2019,16632.0,MERCK SHARP & DOHME LLC & AFFILIATES,4583.33,-663.0,3920.33,0.0,0.0,0.0,0.0,0.0,0.0,0.0,3920.33,18174.0,Direct,,,View report (https://accesshub.pdc.wa.gov/node/54289),Business and consumer affairs,na,na
60309,55053-18174,55053,FE,17348,CHRISTOPHERSEN INC*,Employer,18174,MERCK SHARP & DOHME LLC & AFFILIATES,19-Apr,12/30/2019,16632.0,MERCK SHARP & DOHME LLC & AFFILIATES,4583.33,-663.0,3920.33,0.0,0.0,0.0,0.0,0.0,0.0,0.0,3920.33,18174.0,Direct,,,View report (https://accesshub.pdc.wa.gov/node/55053),Business and consumer affairs,na,na
60310,55994-18174,55994,FE,17348,CHRISTOPHERSEN INC*,Employer,18174,MERCK SHARP & DOHME LLC & AFFILIATES,19-May,12/30/2019,16632.0,MERCK SHARP & DOHME LLC & AFFILIATES,4583.33,-663.0,3920.33,0.0,0.0,0.0,0.0,0.0,0.0,0.0,3920.33,18174.0,Direct,,,View report (https://accesshub.pdc.wa.gov/node/55994),Business and consumer affairs,na,na
60311,58577-18174,58577,FE,17348,CHRISTOPHERSEN INC*,Employer,18174,MERCK SHARP & DOHME LLC & AFFILIATES,19-Aug,12/30/2019,16632.0,MERCK SHARP & DOHME LLC & AFFILIATES,4583.33,-733.0,3850.33,0.0,0.0,0.0,0.0,0.0,0.0,0.0,3850.33,18174.0,Direct,,,View report (https://accesshub.pdc.wa.gov/node/58577),Business and consumer affairs,na,na
60312,59244-18174,59244,FE,17348,CHRISTOPHERSEN INC*,Employer,18174,MERCK SHARP & DOHME LLC & AFFILIATES,19-Oct,12/30/2019,16632.0,MERCK SHARP & DOHME LLC & AFFILIATES,4583.33,-733.0,3850.33,0.0,0.0,0.0,0.0,0.0,0.0,0.0,3850.33,18174.0,Direct,,,View report (https://accesshub.pdc.wa.gov/node/59244),Business and consumer affairs,na,na
60313,51689-18175,51689,FE,17348,CHRISTOPHERSEN INC*,Employer,18175,NORTHWEST KIDNEY CENTERS,19-Jan,12/30/2019,16711.0,NORTHWEST KIDNEY CENTERS,2000.0,-700.0,1300.0,0.0,0.0,0.0,0.0,0.0,0.0,0.0,1300.0,18175.0,Direct,,,View report (https://accesshub.pdc.wa.gov/node/51689),Health Care,various,various
60314,53473-18175,53473,FE,17348,CHRISTOPHERSEN INC*,Employer,18175,NORTHWEST KIDNEY CENTERS,19-Feb,12/30/2019,16711.0,NORTHWEST KIDNEY CENTERS,2000.0,-663.0,1337.0,0.0,0.0,0.0,0.0,0.0,0.0,0.0,1337.0,18175.0,Direct,,,View report (https://accesshub.pdc.wa.gov/node/53473),Health Care,various,various
60315,54289-18175,54289,FE,17348,CHRISTOPHERSEN INC*,Employer,18175,NORTHWEST KIDNEY CENTERS,19-Mar,12/30/2019,16711.0,NORTHWEST KIDNEY CENTERS,2000.0,-663.0,1337.0,0.0,0.0,0.0,0.0,0.0,0.0,0.0,1337.0,18175.0,Direct,,,View report (https://accesshub.pdc.wa.gov/node/54289),Health Care,various,various
60316,55053-18175,55053,FE,17348,CHRISTOPHERSEN INC*,Employer,18175,NORTHWEST KIDNEY CENTERS,19-Apr,12/30/2019,16711.0,NORTHWEST KIDNEY CENTERS,2000.0,-663.0,1337.0,0.0,0.0,0.0,0.0,0.0,0.0,0.0,1337.0,18175.0,Direct,,,View report (https://accesshub.pdc.wa.gov/node/55053),Health Care,various,various
60317,55994-18175,55994,FE,17348,CHRISTOPHERSEN INC*,Employer,18175,NORTHWEST KIDNEY CENTERS,19-May,12/30/2019,16711.0,NORTHWEST KIDNEY CENTERS,2000.0,-663.0,1337.0,0.0,0.0,0.0,0.0,0.0,0.0,0.0,1337.0,18175.0,Direct,,,View report (https://accesshub.pdc.wa.gov/node/55994),Health Care,various,various
60318,58577-18175,58577,FE,17348,CHRISTOPHERSEN INC*,Employer,18175,NORTHWEST KIDNEY CENTERS,19-Aug,12/30/2019,16711.0,NORTHWEST KIDNEY CENTERS,2000.0,-733.0,1267.0,0.0,0.0,0.0,0.0,0.0,0.0,0.0,1267.0,18175.0,Direct,,,View report (https://accesshub.pdc.wa.gov/node/58577),Health Care,various,various
60319,59244-18175,59244,FE,17348,CHRISTOPHERSEN INC*,Employer,18175,NORTHWEST KIDNEY CENTERS,19-Oct,12/30/2019,16711.0,NORTHWEST KIDNEY CENTERS,2000.0,-733.0,1267.0,0.0,0.0,0.0,0.0,0.0,0.0,0.0,1267.0,18175.0,Direct,,,View report (https://accesshub.pdc.wa.gov/node/59244),Health Care,various,various
60322,51689-18176,51689,FE,17348,CHRISTOPHERSEN INC*,Employer,18176,Pediatrix Medical Group,19-Jan,12/30/2019,16769.0,Pediatrix Medical Group,5750.0,-700.0,5050.0,0.0,0.0,0.0,0.0,0.0,0.0,0.0,5050.0,18176.0,Direct,,,View report (https://accesshub.pdc.wa.gov/node/51689),Health Care,various,various
60323,53473-18176,53473,FE,17348,CHRISTOPHERSEN INC*,Employer,18176,Pediatrix Medical Group,19-Feb,12/30/2019,16769.0,Pediatrix Medical Group,5750.0,-663.0,5087.0,0.0,0.0,0.0,0.0,0.0,0.0,0.0,5087.0,18176.0,Direct,,,View report (https://accesshub.pdc.wa.gov/node/53473),Health Care,various,various
60324,54289-18176,54289,FE,17348,CHRISTOPHERSEN INC*,Employer,18176,Pediatrix Medical Group,19-Mar,12/30/2019,16769.0,Pediatrix Medical Group,5750.0,-663.0,5087.0,0.0,0.0,0.0,0.0,0.0,0.0,0.0,5087.0,18176.0,Direct,,,View report (https://accesshub.pdc.wa.gov/node/54289),Health Care,various,various
60325,55053-18176,55053,FE,17348,CHRISTOPHERSEN INC*,Employer,18176,Pediatrix Medical Group,19-Apr,12/30/2019,16769.0,Pediatrix Medical Group,5750.0,-663.0,5087.0,86.68,0.0,0.0,0.0,0.0,0.0,86.68,5173.68,18176.0,Direct,,,View report (https://accesshub.pdc.wa.gov/node/55053),Health Care,various,various
60326,55994-18176,55994,FE,17348,CHRISTOPHERSEN INC*,Employer,18176,Pediatrix Medical Group,19-May,12/30/2019,16769.0,Pediatrix Medical Group,5750.0,-663.0,5087.0,0.0,0.0,0.0,0.0,0.0,0.0,0.0,5087.0,18176.0,Direct,,,View report (https://accesshub.pdc.wa.gov/node/55994),Health Care,various,various
60327,58577-18176,58577,FE,17348,CHRISTOPHERSEN INC*,Employer,18176,Pediatrix Medical Group,19-Aug,12/30/2019,16769.0,Pediatrix Medical Group,5750.0,-733.0,5017.0,0.0,0.0,0.0,0.0,0.0,0.0,0.0,5017.0,18176.0,Direct,,,View report (https://accesshub.pdc.wa.gov/node/58577),Health Care,various,various
60328,59244-18176,59244,FE,17348,CHRISTOPHERSEN INC*,Employer,18176,Pediatrix Medical Group,19-Oct,12/30/2019,16769.0,Pediatrix Medical Group,5750.0,-733.0,5017.0,0.0,0.0,1000.0,0.0,0.0,0.0,1000.0,6017.0,18176.0,Direct,,,View report (https://accesshub.pdc.wa.gov/node/59244),Health Care,various,various
60329,61516-19323,61516,FE,17825,CAREY L MORRIS,Employer,19323,PROSPERITY COUNSELING & TREATMENT SERVICES INC,19-Oct,12/30/2019,16819.0,PROSPERITY COUNSELING & TREATMENT SERVICES INC,1000.0,0.0,1000.0,0.0,0.0,0.0,0.0,0.0,0.0,0.0,1000.0,19323.0,Direct,,,View report (https://accesshub.pdc.wa.gov/node/61516),Health Care,SUD Provider Issues,"HCA, DOH, Health Care Committee"
60330,61517-19323,61517,FE,17825,CAREY L MORRIS,Employer,19323,PROSPERITY COUNSELING & TREATMENT SERVICES INC,19-Nov,12/30/2019,16819.0,PROSPERITY COUNSELING & TREATMENT SERVICES INC,2000.0,0.0,2000.0,0.0,0.0,0.0,0.0,0.0,0.0,0.0,2000.0,19323.0,Direct,,,View report (https://accesshub.pdc.wa.gov/node/61517),Health Care,SUD Provider Issues,"HCA, DOH, Health Care Committee"
60331,61547-28265,61547,FE,28264,Randazzo LLC,Employer,28265,QUINAULT INDIAN NATION (The Whitener Group),19-Nov,12/30/2019,16837.0,QUINAULT INDIAN NATION,4000.0,0.0,4000.0,0.0,0.0,0.0,0.0,0.0,0.0,0.0,4000.0,28265.0,Subcontract,27484.0,The Whitener Group,View report (https://accesshub.pdc.wa.gov/node/61547),,,
60333,51689-18178,51689,FE,17348,CHRISTOPHERSEN INC*,Employer,18178,"STAND FOR CHILDREN, INC.",19-Jan,12/30/2019,16949.0,"STAND FOR CHILDREN, INC.",5850.0,-700.0,5150.0,0.0,0.0,0.0,0.0,0.0,0.0,0.0,5150.0,18178.0,Direct,,,View report (https://accesshub.pdc.wa.gov/node/51689),Education,various,various
60334,53473-18178,53473,FE,17348,CHRISTOPHERSEN INC*,Employer,18178,"STAND FOR CHILDREN, INC.",19-Feb,12/30/2019,16949.0,"STAND FOR CHILDREN, INC.",5850.0,-663.0,5187.0,0.0,0.0,0.0,0.0,0.0,0.0,0.0,5187.0,18178.0,Direct,,,View report (https://accesshub.pdc.wa.gov/node/53473),Education,various,various
60335,54289-18178,54289,FE,17348,CHRISTOPHERSEN INC*,Employer,18178,"STAND FOR CHILDREN, INC.",19-Mar,12/30/2019,16949.0,"STAND FOR CHILDREN, INC.",6500.0,-663.0,5837.0,0.0,0.0,0.0,0.0,0.0,0.0,0.0,5837.0,18178.0,Direct,,,View report (https://accesshub.pdc.wa.gov/node/54289),Education,various,various
60336,55053-18178,55053,FE,17348,CHRISTOPHERSEN INC*,Employer,18178,"STAND FOR CHILDREN, INC.",19-Apr,12/30/2019,16949.0,"STAND FOR CHILDREN, INC.",6500.0,-663.0,5837.0,0.0,0.0,0.0,0.0,0.0,0.0,0.0,5837.0,18178.0,Direct,,,View report (https://accesshub.pdc.wa.gov/node/55053),Education,various,various
60337,55994-18178,55994,FE,17348,CHRISTOPHERSEN INC*,Employer,18178,"STAND FOR CHILDREN, INC.",19-May,12/30/2019,16949.0,"STAND FOR CHILDREN, INC.",6500.0,-663.0,5837.0,0.0,0.0,0.0,0.0,0.0,0.0,0.0,5837.0,18178.0,Direct,,,View report (https://accesshub.pdc.wa.gov/node/55994),Education,various,various
60338,61516-26568,61516,FE,17825,CAREY L MORRIS,Employer,26568,Thrive Washington,19-Oct,12/30/2019,16982.0,Thrive Washington,2500.0,0.0,2500.0,0.0,0.0,0.0,0.0,0.0,0.0,0.0,2500.0,26568.0,Direct,,,View report (https://accesshub.pdc.wa.gov/node/61516),Education,Early Learning,"DCYF. Education, Early Learning & Human Services"
60339,61517-26568,61517,FE,17825,CAREY L MORRIS,Employer,26568,Thrive Washington,19-Nov,12/30/2019,16982.0,Thrive Washington,2500.0,0.0,2500.0,0.0,0.0,0.0,0.0,0.0,0.0,0.0,2500.0,26568.0,Direct,,,View report (https://accesshub.pdc.wa.gov/node/61517),Education,Early Learning,"DCYF. Education, Early Learning & Human Services"
60340,51689-18180,51689,FE,17348,CHRISTOPHERSEN INC*,Employer,18180,WA CANNABUSINESS ASSN,19-Jan,12/30/2019,17073.0,WA CANNABUSINESS ASSN,6000.0,-700.0,5300.0,0.0,0.0,0.0,0.0,0.0,0.0,0.0,5300.0,18180.0,Direct,,,View report (https://accesshub.pdc.wa.gov/node/51689),Business and consumer affairs,various,various
60341,53473-18180,53473,FE,17348,CHRISTOPHERSEN INC*,Employer,18180,WA CANNABUSINESS ASSN,19-Feb,12/30/2019,17073.0,WA CANNABUSINESS ASSN,6000.0,-670.0,5330.0,1297.19,1784.63,0.0,0.0,0.0,37451.0,40532.82,45862.82,18180.0,Direct,,,View report (https://accesshub.pdc.wa.gov/node/53473),Business and consumer affairs,various,various
60342,54289-18180,54289,FE,17348,CHRISTOPHERSEN INC*,Employer,18180,WA CANNABUSINESS ASSN,19-Mar,12/30/2019,17073.0,WA CANNABUSINESS ASSN,6000.0,-670.0,5330.0,0.0,0.0,0.0,18250.0,0.0,0.0,18250.0,23580.0,18180.0,Direct,,,View report (https://accesshub.pdc.wa.gov/node/54289),Business and consumer affairs,various,various
60343,55053-18180,55053,FE,17348,CHRISTOPHERSEN INC*,Employer,18180,WA CANNABUSINESS ASSN,19-Apr,12/30/2019,17073.0,WA CANNABUSINESS ASSN,6000.0,-670.0,5330.0,0.0,291.81,0.0,0.0,0.0,1500.0,1791.81,7121.81,18180.0,Direct,,,View report (https://accesshub.pdc.wa.gov/node/55053),Business and consumer affairs,various,various
60344,55994-18180,55994,FE,17348,CHRISTOPHERSEN INC*,Employer,18180,WA CANNABUSINESS ASSN,19-May,12/30/2019,17073.0,WA CANNABUSINESS ASSN,6000.0,-670.0,5330.0,2741.8,0.0,0.0,0.0,0.0,23250.0,25991.8,31321.8,18180.0,Direct,,,View report (https://accesshub.pdc.wa.gov/node/55994),Business and consumer affairs,various,various
60345,58577-18180,58577,FE,17348,CHRISTOPHERSEN INC*,Employer,18180,WA CANNABUSINESS ASSN,19-Aug,12/30/2019,17073.0,WA CANNABUSINESS ASSN,6000.0,-736.0,5264.0,552.09,0.0,0.0,0.0,0.0,0.0,552.09,5816.09,18180.0,Direct,,,View report (https://accesshub.pdc.wa.gov/node/58577),Business and consumer affairs,various,various
60346,59244-18180,59244,FE,17348,CHRISTOPHERSEN INC*,Employer,18180,WA CANNABUSINESS ASSN,19-Oct,12/30/2019,17073.0,WA CANNABUSINESS ASSN,6000.0,-736.0,5264.0,296.6,0.0,0.0,0.0,0.0,0.0,296.6,5560.6,18180.0,Direct,,,View report (https://accesshub.pdc.wa.gov/node/59244),Business and consumer affairs,various,various
60347,61521-19070,61521,FE,17698,Juliet Schindler,Employer,19070,COLLEGE SUCCESS FOUNDATION,19-Nov,12/30/2019,17104.0,COLLEGE SUCCESS FOUNDATION,3000.0,0.0,3000.0,0.0,0.0,0.0,0.0,0.0,0.0,0.0,3000.0,19070.0,Direct,,,View report (https://accesshub.pdc.wa.gov/node/61521),Higher education,legislative budget,"leadership, fiscal committees"
60348,51689-18181,51689,FE,17348,CHRISTOPHERSEN INC*,Employer,18181,WA REFUSE & RECYCLING ASSN,19-Jan,12/30/2019,17185.0,WA REFUSE & RECYCLING ASSN,6000.0,0.0,6000.0,0.0,0.0,0.0,0.0,0.0,3086.46,3086.46,9086.46,18181.0,Direct,,,View report (https://accesshub.pdc.wa.gov/node/51689),Business and consumer affairs,various,various
60349,53473-18181,53473,FE,17348,CHRISTOPHERSEN INC*,Employer,18181,WA REFUSE & RECYCLING ASSN,19-Feb,12/30/2019,17185.0,WA REFUSE & RECYCLING ASSN,6000.0,0.0,6000.0,0.0,2518.62,0.0,0.0,0.0,0.0,2518.62,8518.62,18181.0,Direct,,,View report (https://accesshub.pdc.wa.gov/node/53473),Business and consumer affairs,various,various
60350,54289-18181,54289,FE,17348,CHRISTOPHERSEN INC*,Employer,18181,WA REFUSE & RECYCLING ASSN,19-Mar,12/30/2019,17185.0,WA REFUSE & RECYCLING ASSN,6000.0,0.0,6000.0,0.0,276.29,0.0,0.0,0.0,0.0,276.29,6276.29,18181.0,Direct,,,View report (https://accesshub.pdc.wa.gov/node/54289),Business and consumer affairs,various,various
60351,55053-18181,55053,FE,17348,CHRISTOPHERSEN INC*,Employer,18181,WA REFUSE & RECYCLING ASSN,19-Apr,12/30/2019,17185.0,WA REFUSE & RECYCLING ASSN,6000.0,0.0,6000.0,0.0,0.0,0.0,0.0,0.0,0.0,0.0,6000.0,18181.0,Direct,,,View report (https://accesshub.pdc.wa.gov/node/55053),Business and consumer affairs,various,various
60352,55994-18181,55994,FE,17348,CHRISTOPHERSEN INC*,Employer,18181,WA REFUSE & RECYCLING ASSN,19-May,12/30/2019,17185.0,WA REFUSE & RECYCLING ASSN,6000.0,0.0,6000.0,0.0,0.0,0.0,0.0,0.0,0.0,0.0,6000.0,18181.0,Direct,,,View report (https://accesshub.pdc.wa.gov/node/55994),Business and consumer affairs,various,various
60353,58577-18181,58577,FE,17348,CHRISTOPHERSEN INC*,Employer,18181,WA REFUSE & RECYCLING ASSN,19-Aug,12/30/2019,17185.0,WA REFUSE & RECYCLING ASSN,6000.0,0.0,6000.0,0.0,0.0,0.0,0.0,0.0,0.0,0.0,6000.0,18181.0,Direct,,,View report (https://accesshub.pdc.wa.gov/node/58577),Business and consumer affairs,various,various
60354,59244-18181,59244,FE,17348,CHRISTOPHERSEN INC*,Employer,18181,WA REFUSE & RECYCLING ASSN,19-Oct,12/30/2019,17185.0,WA REFUSE & RECYCLING ASSN,6000.0,0.0,6000.0,0.0,0.0,0.0,0.0,0.0,0.0,0.0,6000.0,18181.0,Direct,,,View report (https://accesshub.pdc.wa.gov/node/59244),Business and consumer affairs,various,various
60355,61516-19324,61516,FE,17825,CAREY L MORRIS,Employer,19324,WA ST COALITION  AGAINST DOMESTIC VIOLENCE,19-Oct,12/30/2019,17227.0,WA ST COALITION  AGAINST DOMESTIC VIOLENCE,2199.0,0.0,2199.0,0.0,0.0,0.0,0.0,0.0,0.0,0.0,2199.0,19324.0,Direct,,,View report (https://accesshub.pdc.wa.gov/node/61516),,,
60356,61517-19324,61517,FE,17825,CAREY L MORRIS,Employer,19324,WA ST COALITION  AGAINST DOMESTIC VIOLENCE,19-Nov,12/30/2019,17227.0,WA ST COALITION  AGAINST DOMESTIC VIOLENCE,2199.0,0.0,2199.0,0.0,0.0,0.0,0.0,0.0,0.0,0.0,2199.0,19324.0,Direct,,,View report (https://accesshub.pdc.wa.gov/node/61517),,,
60357,61538-18959,61538,FE,17631,TIM HERBERT,Employer,18959,WA State Assn of Plumbers & Pipefitters,19-Dec,12/30/2019,17275.0,WA State Assn of Plumbers & Pipefitters,1250.88,0.0,1250.88,0.0,0.0,0.0,0.0,0.0,0.0,0.0,1250.88,18959.0,Direct,,,View report (https://accesshub.pdc.wa.gov/node/61538),Labor,"Plumbing Codes, PipeTrades, SB5235, S-4963.1/20",Senate and L&I
60358,61547-50205,61547,FE,28264,Randazzo LLC,Employer,50205,Snoqualmie Tribe,19-Nov,12/30/2019,31273.0,Snoqualmie Tribe,3500.0,0.0,3500.0,0.0,0.0,0.0,0.0,0.0,0.0,0.0,3500.0,50205.0,Direct,,,View report (https://accesshub.pdc.wa.gov/node/61547),Environmental Affairs - natural resources - parks,snoqualmie falls and related issues,"DNR, DOE, Governor's Office, AGO, King county, 5th district legislators"
60359,51689-48674,51689,FE,17348,CHRISTOPHERSEN INC*,Employer,48674,Internet Association,19-Jan,12/30/2019,31991.0,Internet Association,4000.0,-700.0,3300.0,0.0,0.0,0.0,0.0,0.0,0.0,0.0,3300.0,48674.0,Direct,,,View report (https://accesshub.pdc.wa.gov/node/51689),Technology,various,various
60360,53473-48674,53473,FE,17348,CHRISTOPHERSEN INC*,Employer,48674,Internet Association,19-Feb,12/30/2019,31991.0,Internet Association,4000.0,-663.0,3337.0,0.0,0.0,0.0,0.0,0.0,0.0,0.0,3337.0,48674.0,Direct,,,View report (https://accesshub.pdc.wa.gov/node/53473),Technology,various,various
60361,54289-48674,54289,FE,17348,CHRISTOPHERSEN INC*,Employer,48674,Internet Association,19-Mar,12/30/2019,31991.0,Internet Association,4000.0,-663.0,3337.0,0.0,52.85,0.0,0.0,0.0,0.0,52.85,3389.85,48674.0,Direct,,,View report (https://accesshub.pdc.wa.gov/node/54289),Technology,various,various
60362,55053-48674,55053,FE,17348,CHRISTOPHERSEN INC*,Employer,48674,Internet Association,19-Apr,12/30/2019,31991.0,Internet Association,4000.0,-663.0,3337.0,0.0,0.0,0.0,0.0,0.0,0.0,0.0,3337.0,48674.0,Direct,,,View report (https://accesshub.pdc.wa.gov/node/55053),Technology,various,various
60363,61522-48589,61522,FE,48588,Matt Miller,Employer,48589,CHI Franciscan Health,19-Dec,12/30/2019,32196.0,CHI Franciscan Health,2000.0,0.0,2000.0,0.0,0.0,0.0,0.0,0.0,0.0,0.0,2000.0,48589.0,Direct,,,View report (https://accesshub.pdc.wa.gov/node/61522),Health Care,Health Systems' Issues,"Health Care, labor, and fiscal Committees, DOH, HCA"
60364,61392-61249,61392,FE,48411,Ashley Sutton,Employer,61249,Win Win Network,19-Nov,12/30/2019,35885.0,Win Win Network,1650.0,0.0,1650.0,0.0,0.0,0.0,0.0,0.0,0.0,0.0,1650.0,61249.0,Direct,,,View report (https://accesshub.pdc.wa.gov/node/61392),State government,Voting access,State Government
60365,59244-38319,59244,FE,17348,CHRISTOPHERSEN INC*,Employer,38319,Recompose,19-Oct,12/30/2019,38316.0,Recompose,4000.0,-733.0,3267.0,0.0,0.0,0.0,0.0,0.0,0.0,0.0,3267.0,38319.0,Direct,,,View report (https://accesshub.pdc.wa.gov/node/59244),Business and consumer affairs,various,various
60366,51689-38319,51689,FE,17348,CHRISTOPHERSEN INC*,Employer,38319,Recompose,19-Jan,12/30/2019,38316.0,Recompose,4000.0,-700.0,3300.0,0.0,0.0,0.0,0.0,0.0,0.0,0.0,3300.0,38319.0,Direct,,,View report (https://accesshub.pdc.wa.gov/node/51689),Business and consumer affairs,various,various
60367,53473-38319,53473,FE,17348,CHRISTOPHERSEN INC*,Employer,38319,Recompose,19-Feb,12/30/2019,38316.0,Recompose,4000.0,-663.0,3337.0,0.0,0.0,0.0,0.0,0.0,0.0,0.0,3337.0,38319.0,Direct,,,View report (https://accesshub.pdc.wa.gov/node/53473),Business and consumer affairs,various,various
60368,54289-38319,54289,FE,17348,CHRISTOPHERSEN INC*,Employer,38319,Recompose,19-Mar,12/30/2019,38316.0,Recompose,4000.0,-663.0,3337.0,0.0,0.0,0.0,0.0,0.0,0.0,0.0,3337.0,38319.0,Direct,,,View report (https://accesshub.pdc.wa.gov/node/54289),Business and consumer affairs,various,various
60369,55053-38319,55053,FE,17348,CHRISTOPHERSEN INC*,Employer,38319,Recompose,19-Apr,12/30/2019,38316.0,Recompose,4000.0,-663.0,3337.0,0.0,0.0,0.0,0.0,0.0,0.0,0.0,3337.0,38319.0,Direct,,,View report (https://accesshub.pdc.wa.gov/node/55053),Business and consumer affairs,various,various
60370,55994-38319,55994,FE,17348,CHRISTOPHERSEN INC*,Employer,38319,Recompose,19-May,12/30/2019,38316.0,Recompose,4000.0,-663.0,3337.0,0.0,0.0,0.0,0.0,0.0,0.0,0.0,3337.0,38319.0,Direct,,,View report (https://accesshub.pdc.wa.gov/node/55994),Business and consumer affairs,various,various
60371,58577-38319,58577,FE,17348,CHRISTOPHERSEN INC*,Employer,38319,Recompose,19-Aug,12/30/2019,38316.0,Recompose,4000.0,-733.0,3267.0,0.0,0.0,0.0,0.0,0.0,0.0,0.0,3267.0,38319.0,Direct,,,View report (https://accesshub.pdc.wa.gov/node/58577),Business and consumer affairs,various,various
60372,58577-44208,58577,FE,17348,CHRISTOPHERSEN INC*,Employer,44208,"Assurant, Inc.",19-Aug,12/30/2019,44206.0,"Assurant, Inc.",4000.0,0.0,4000.0,0.0,0.0,0.0,0.0,0.0,0.0,0.0,4000.0,44208.0,Direct,,,View report (https://accesshub.pdc.wa.gov/node/58577),Financial institutions and insurance,various,various
60374,51689-50183,51689,FE,17348,CHRISTOPHERSEN INC*,Employer,50183,Socati Corp.,19-Jan,12/30/2019,50181.0,Socati Corp.,5000.0,0.0,5000.0,0.0,0.0,0.0,0.0,0.0,0.0,0.0,5000.0,50183.0,Direct,,,View report (https://accesshub.pdc.wa.gov/node/51689),Business and consumer affairs,various,Commerce & Gaming
60375,53473-50183,53473,FE,17348,CHRISTOPHERSEN INC*,Employer,50183,Socati Corp.,19-Feb,12/30/2019,50181.0,Socati Corp.,5000.0,-363.0,4637.0,0.0,0.0,0.0,0.0,0.0,0.0,0.0,4637.0,50183.0,Direct,,,View report (https://accesshub.pdc.wa.gov/node/53473),Business and consumer affairs,various,Commerce & Gaming
60376,54289-50183,54289,FE,17348,CHRISTOPHERSEN INC*,Employer,50183,Socati Corp.,19-Mar,12/30/2019,50181.0,Socati Corp.,5000.0,-363.0,4637.0,0.0,0.0,0.0,0.0,0.0,0.0,0.0,4637.0,50183.0,Direct,,,View report (https://accesshub.pdc.wa.gov/node/54289),Business and consumer affairs,various,Commerce & Gaming
60377,55053-50183,55053,FE,17348,CHRISTOPHERSEN INC*,Employer,50183,Socati Corp.,19-Apr,12/30/2019,50181.0,Socati Corp.,5000.0,-363.0,4637.0,0.0,0.0,0.0,0.0,0.0,0.0,0.0,4637.0,50183.0,Direct,,,View report (https://accesshub.pdc.wa.gov/node/55053),Business and consumer affairs,various,Commerce & Gaming
60378,55994-50183,55994,FE,17348,CHRISTOPHERSEN INC*,Employer,50183,Socati Corp.,19-May,12/30/2019,50181.0,Socati Corp.,5000.0,-363.0,4637.0,0.0,0.0,0.0,0.0,0.0,0.0,0.0,4637.0,50183.0,Direct,,,View report (https://accesshub.pdc.wa.gov/node/55994),Business and consumer affairs,various,Commerce & Gaming
60379,58577-50183,58577,FE,17348,CHRISTOPHERSEN INC*,Employer,50183,Socati Corp.,19-Aug,12/30/2019,50181.0,Socati Corp.,5000.0,-400.0,4600.0,0.0,0.0,0.0,0.0,0.0,0.0,0.0,4600.0,50183.0,Direct,,,View report (https://accesshub.pdc.wa.gov/node/58577),Business and consumer affairs,various,Commerce & Gaming
60380,59244-50183,59244,FE,17348,CHRISTOPHERSEN INC*,Employer,50183,Socati Corp.,19-Oct,12/30/2019,50181.0,Socati Corp.,5000.0,-400.0,4600.0,0.0,0.0,0.0,0.0,0.0,0.0,0.0,4600.0,50183.0,Direct,,,View report (https://accesshub.pdc.wa.gov/node/59244),Business and consumer affairs,various,Commerce and Gaming
60381,59244-59220,59244,FE,17348,CHRISTOPHERSEN INC*,Employer,59220,Maverick Gaming LLC (Coaxis Public Affairs ),19-Oct,12/30/2019,58487.0,Maverick Gaming LLC,10000.0,0.0,10000.0,0.0,0.0,0.0,0.0,0.0,0.0,0.0,10000.0,59220.0,Subcontract,58479.0,Coaxis Public Affairs,View report (https://accesshub.pdc.wa.gov/node/59244),,,
60382,61573-18194,61573,FE,17358,"Public Affairs Consulting, LLC",Employer,18194,BLDG OWNERS & MANAGERS ASSN OF KING CO,19-Jun,12/31/2019,16216.0,BLDG OWNERS & MANAGERS ASSN OF KING CO,1766.18,0.0,1766.18,15.9,0.0,0.0,0.0,0.0,0.0,15.9,1782.08,18194.0,Direct,,,View report (https://accesshub.pdc.wa.gov/node/61573),Business and consumer affairs,Commercial Real Estate,Lawmakers and Agencies of Government
60383,61583-18194,61583,FE,17358,"Public Affairs Consulting, LLC",Employer,18194,BLDG OWNERS & MANAGERS ASSN OF KING CO,19-Sep,12/31/2019,16216.0,BLDG OWNERS & MANAGERS ASSN OF KING CO,1766.18,0.0,1766.18,154.04,0.0,0.0,0.0,0.0,0.0,154.04,1920.22,18194.0,Direct,,,View report (https://accesshub.pdc.wa.gov/node/61583),Business and consumer affairs,Commercial Real Estate,Lawmakers and Agencies of Government
60384,61587-18194,61587,FE,17358,"Public Affairs Consulting, LLC",Employer,18194,BLDG OWNERS & MANAGERS ASSN OF KING CO,19-Oct,12/31/2019,16216.0,BLDG OWNERS & MANAGERS ASSN OF KING CO,1766.18,0.0,1766.18,50.6,0.0,0.0,0.0,0.0,0.0,50.6,1816.78,18194.0,Direct,,,View report (https://accesshub.pdc.wa.gov/node/61587),Business and consumer affairs,Commercial Real Estate,Lawmakers and Agencies of Government
60385,61588-18194,61588,FE,17358,"Public Affairs Consulting, LLC",Employer,18194,BLDG OWNERS & MANAGERS ASSN OF KING CO,19-Nov,12/31/2019,16216.0,BLDG OWNERS & MANAGERS ASSN OF KING CO,1766.18,0.0,1766.18,6.96,0.0,0.0,0.0,0.0,0.0,6.96,1773.14,18194.0,Direct,,,View report (https://accesshub.pdc.wa.gov/node/61588),Business and consumer affairs,Commercial Real Estate,Lawmakers and Agencies of Government
60386,61589-18194,61589,FE,17358,"Public Affairs Consulting, LLC",Employer,18194,BLDG OWNERS & MANAGERS ASSN OF KING CO,19-Dec,12/31/2019,16216.0,BLDG OWNERS & MANAGERS ASSN OF KING CO,2108.02,0.0,2108.02,0.0,0.0,0.0,0.0,0.0,0.0,0.0,2108.02,18194.0,Direct,,,View report (https://accesshub.pdc.wa.gov/node/61589),Business and consumer affairs,Commercial Real Estate,Lawmakers and Agencies of Government
60387,61573-30466,61573,FE,17358,"Public Affairs Consulting, LLC",Employer,30466,CONSOLIDATED BOOKKEEPING & MANAGEMENT SERVICES INC,19-Jun,12/31/2019,16357.0,CONSOLIDATED BOOKKEEPING & MANAGEMENT SERVICES INC,3500.0,0.0,3500.0,74.47,0.0,0.0,0.0,0.0,0.0,74.47,3574.47,30466.0,Direct,,,View report (https://accesshub.pdc.wa.gov/node/61573),Labor,Labor and Contracting,Lawmakers and Agencies of Government
60388,61583-30466,61583,FE,17358,"Public Affairs Consulting, LLC",Employer,30466,CONSOLIDATED BOOKKEEPING & MANAGEMENT SERVICES INC,19-Sep,12/31/2019,16357.0,CONSOLIDATED BOOKKEEPING & MANAGEMENT SERVICES INC,3500.0,0.0,3500.0,0.0,0.0,0.0,0.0,0.0,0.0,0.0,3500.0,30466.0,Direct,,,View report (https://accesshub.pdc.wa.gov/node/61583),Labor,Labor and Contracting,Lawmakers and Agencies of Government
60389,61587-30466,61587,FE,17358,"Public Affairs Consulting, LLC",Employer,30466,CONSOLIDATED BOOKKEEPING & MANAGEMENT SERVICES INC,19-Oct,12/31/2019,16357.0,CONSOLIDATED BOOKKEEPING & MANAGEMENT SERVICES INC,3500.0,0.0,3500.0,0.0,0.0,0.0,0.0,0.0,0.0,0.0,3500.0,30466.0,Direct,,,View report (https://accesshub.pdc.wa.gov/node/61587),Labor,Labor and Contracting,Lawmakers and Agencies of Government
60390,61588-30466,61588,FE,17358,"Public Affairs Consulting, LLC",Employer,30466,CONSOLIDATED BOOKKEEPING & MANAGEMENT SERVICES INC,19-Nov,12/31/2019,16357.0,CONSOLIDATED BOOKKEEPING & MANAGEMENT SERVICES INC,3500.0,0.0,3500.0,66.24,0.0,0.0,0.0,0.0,0.0,66.24,3566.24,30466.0,Direct,,,View report (https://accesshub.pdc.wa.gov/node/61588),Labor,Labor and Contracting,Lawmakers and Agencies of Government
60391,61589-30466,61589,FE,17358,"Public Affairs Consulting, LLC",Employer,30466,CONSOLIDATED BOOKKEEPING & MANAGEMENT SERVICES INC,19-Dec,12/31/2019,16357.0,CONSOLIDATED BOOKKEEPING & MANAGEMENT SERVICES INC,3500.0,0.0,3500.0,0.0,0.0,0.0,0.0,0.0,0.0,0.0,3500.0,30466.0,Direct,,,View report (https://accesshub.pdc.wa.gov/node/61589),Labor,Labor and Contracting,Lawmakers and Agencies of Government
60392,61573-18196,61573,FE,17358,"Public Affairs Consulting, LLC",Employer,18196,GOVT BLDG OWNERS & LESSORS ASSN,19-Jun,12/31/2019,16476.0,GOVT BLDG OWNERS & LESSORS ASSN,2989.58,0.0,2989.58,0.0,0.0,0.0,0.0,0.0,0.0,0.0,2989.58,18196.0,Direct,,,View report (https://accesshub.pdc.wa.gov/node/61573),Business and consumer affairs,Commercial Real Estate,Lawmakers and Agencies of Government
60393,61583-18196,61583,FE,17358,"Public Affairs Consulting, LLC",Employer,18196,GOVT BLDG OWNERS & LESSORS ASSN,19-Sep,12/31/2019,16476.0,GOVT BLDG OWNERS & LESSORS ASSN,2989.58,0.0,2989.58,0.0,0.0,0.0,0.0,0.0,0.0,0.0,2989.58,18196.0,Direct,,,View report (https://accesshub.pdc.wa.gov/node/61583),Business and consumer affairs,Commercial Real Estate,Lawmakers and Agencies of Government
60394,61587-18196,61587,FE,17358,"Public Affairs Consulting, LLC",Employer,18196,GOVT BLDG OWNERS & LESSORS ASSN,19-Oct,12/31/2019,16476.0,GOVT BLDG OWNERS & LESSORS ASSN,2989.58,0.0,2989.58,0.0,0.0,0.0,0.0,0.0,0.0,0.0,2989.58,18196.0,Direct,,,View report (https://accesshub.pdc.wa.gov/node/61587),Business and consumer affairs,Commercial Real Estate,Lawmakers and Agencies of Government
60395,61588-18196,61588,FE,17358,"Public Affairs Consulting, LLC",Employer,18196,GOVT BLDG OWNERS & LESSORS ASSN,19-Nov,12/31/2019,16476.0,GOVT BLDG OWNERS & LESSORS ASSN,2989.58,0.0,2989.58,0.0,0.0,0.0,0.0,0.0,0.0,0.0,2989.58,18196.0,Direct,,,View report (https://accesshub.pdc.wa.gov/node/61588),Business and consumer affairs,Commercial Real Estate,Lawmakers and Agencies of Government
60396,61589-18196,61589,FE,17358,"Public Affairs Consulting, LLC",Employer,18196,GOVT BLDG OWNERS & LESSORS ASSN,19-Dec,12/31/2019,16476.0,GOVT BLDG OWNERS & LESSORS ASSN,2989.58,0.0,2989.58,0.0,0.0,0.0,0.0,0.0,0.0,0.0,2989.58,18196.0,Direct,,,View report (https://accesshub.pdc.wa.gov/node/61589),Business and consumer affairs,Commercial Real Estate,Lawmakers and Agencies of Government
60397,61591-59662,61591,FE,59597,Ryan Donohue,Employer,59662,HABITAT FOR HUMANITY OF WA ST,19-Dec,12/31/2019,16489.0,HABITAT FOR HUMANITY OF WA ST,377.6,0.0,377.6,0.0,0.0,0.0,0.0,0.0,0.0,0.0,377.6,59662.0,Direct,,,View report (https://accesshub.pdc.wa.gov/node/61591),Human services,Affordable housing,"Dept of Commerce, Ashley Jackson (staff for Sen. Dhingra), Sens. Claire Wilson, Mark Mullet, Rebecca Saldana, Rep. Mia Gregerson"
60398,61573-18198,61573,FE,17358,"Public Affairs Consulting, LLC",Employer,18198,Manufactured Housing Communities of WA,19-Jun,12/31/2019,16614.0,Manufactured Housing Communities of WA,2000.0,0.0,2000.0,169.18,0.0,0.0,0.0,0.0,0.0,169.18,2169.18,18198.0,Direct,,,View report (https://accesshub.pdc.wa.gov/node/61573),Business and consumer affairs,Affordable Housing,Lawmakers and Agencies of Government
60399,61583-18198,61583,FE,17358,"Public Affairs Consulting, LLC",Employer,18198,Manufactured Housing Communities of WA,19-Sep,12/31/2019,16614.0,Manufactured Housing Communities of WA,2000.0,0.0,2000.0,51.62,0.0,0.0,0.0,0.0,0.0,51.62,2051.62,18198.0,Direct,,,View report (https://accesshub.pdc.wa.gov/node/61583),Business and consumer affairs,Affordable Housing,Lawmakers and Agencies of Government
60400,61587-18198,61587,FE,17358,"Public Affairs Consulting, LLC",Employer,18198,Manufactured Housing Communities of WA,19-Oct,12/31/2019,16614.0,Manufactured Housing Communities of WA,2000.0,0.0,2000.0,156.02,0.0,0.0,0.0,0.0,0.0,156.02,2156.02,18198.0,Direct,,,View report (https://accesshub.pdc.wa.gov/node/61587),Business and consumer affairs,Affordable Housing,Lawmakers and Agencies of Government
60401,61588-18198,61588,FE,17358,"Public Affairs Consulting, LLC",Employer,18198,Manufactured Housing Communities of WA,19-Nov,12/31/2019,16614.0,Manufactured Housing Communities of WA,2000.0,0.0,2000.0,0.0,0.0,0.0,0.0,0.0,0.0,0.0,2000.0,18198.0,Direct,,,View report (https://accesshub.pdc.wa.gov/node/61588),Business and consumer affairs,Affordable Housing,Lawmakers and Agencies of Government
60402,61589-18198,61589,FE,17358,"Public Affairs Consulting, LLC",Employer,18198,Manufactured Housing Communities of WA,19-Dec,12/31/2019,16614.0,Manufactured Housing Communities of WA,2000.0,0.0,2000.0,0.0,0.0,0.0,0.0,0.0,0.0,0.0,2000.0,18198.0,Direct,,,View report (https://accesshub.pdc.wa.gov/node/61589),Business and consumer affairs,Affordable Housing,Lawmakers and Agencies of Government
60403,61573-18200,61573,FE,17358,"Public Affairs Consulting, LLC",Employer,18200,NATL ASSN OF CREDIT MGMT,19-Jun,12/31/2019,16659.0,NATL ASSN OF CREDIT MGMT,604.0,0.0,604.0,3.98,0.0,0.0,0.0,0.0,0.0,3.98,607.98,18200.0,Direct,,,View report (https://accesshub.pdc.wa.gov/node/61573),Financial institutions and insurance,Financial Affairs,Lawmakers and Agencies of Government
60404,61583-18200,61583,FE,17358,"Public Affairs Consulting, LLC",Employer,18200,NATL ASSN OF CREDIT MGMT,19-Sep,12/31/2019,16659.0,NATL ASSN OF CREDIT MGMT,604.0,0.0,604.0,2.38,0.0,0.0,0.0,0.0,0.0,2.38,606.38,18200.0,Direct,,,View report (https://accesshub.pdc.wa.gov/node/61583),Financial institutions and insurance,Financial Affairs,Lawmakers and Agencies of Government
60405,61587-18200,61587,FE,17358,"Public Affairs Consulting, LLC",Employer,18200,NATL ASSN OF CREDIT MGMT,19-Oct,12/31/2019,16659.0,NATL ASSN OF CREDIT MGMT,604.0,0.0,604.0,2.38,0.0,0.0,0.0,0.0,0.0,2.38,606.38,18200.0,Direct,,,View report (https://accesshub.pdc.wa.gov/node/61587),Financial institutions and insurance,Financial Affairs,Lawmakers and Agencies of Government
60406,61588-18200,61588,FE,17358,"Public Affairs Consulting, LLC",Employer,18200,NATL ASSN OF CREDIT MGMT,19-Nov,12/31/2019,16659.0,NATL ASSN OF CREDIT MGMT,604.0,0.0,604.0,2.38,0.0,0.0,0.0,0.0,0.0,2.38,606.38,18200.0,Direct,,,View report (https://accesshub.pdc.wa.gov/node/61588),Financial institutions and insurance,Financial Affairs,Lawmakers and Agencies of Government
