,id,report_number,origin,filer_id,filer_name,type,funding_source_id,funding_source_name,filing_period,receipt_date,employer_id,employer_name,compensation,sub_lobbyist_compensation,net_compensation,personal_expenses,entertainment,contributions,advertising,political_ads,other,total_expenses,net_total,employment_registration_id,employment_type,contractor_id,contractor_name,url,legislation_subject_matter,issue_bill_number,committee_lobbied
100000,86150-31282,86150,FE,18074,Waypoint Consulting Group,Employer,31282,Washington State Opportunity Scholarship,21-Dec,1/1/2022,30931.0,Washington State Opportunity Scholarship,2000.0,0.0,2000.0,0.0,0.0,0.0,0.0,0.0,0.0,0.0,2000.0,31282.0,Direct,,,View report (https://accesshub.pdc.wa.gov/node/86150),Higher education,Higher Education,"Higher Ed, W&M, Approps, WSAC, PESB"
100001,86118-41082,86118,FE,17401,Brynn Brady,Employer,41082,Sunovion Pharmaceuticals Inc. (Martin Flynn Public Affairs Inc),21-Dec,1/1/2022,33133.0,Sunovion Pharmaceuticals Inc.,3500.0,0.0,3500.0,0.0,0.0,0.0,0.0,0.0,0.0,0.0,3500.0,41082.0,Subcontract,17407.0,Martin Flynn Public Affairs Inc,View report (https://accesshub.pdc.wa.gov/node/86118),,,
100002,86118-49790,86118,FE,17401,Brynn Brady,Employer,49790,Detente Management (Martin Flynn Public Affairs Inc),21-Dec,1/1/2022,46391.0,Detente Management,3000.0,0.0,3000.0,0.0,0.0,0.0,0.0,0.0,0.0,0.0,3000.0,49790.0,Subcontract,17407.0,Martin Flynn Public Affairs Inc,View report (https://accesshub.pdc.wa.gov/node/86118),,,
100003,86149-47136,86149,FE,17496,DOTY & ASSOC INC*,Employer,47136,Lakepointe Covington Inc.,21-Dec,1/1/2022,46966.0,Lakepointe Covington Inc.,2500.0,0.0,2500.0,0.0,0.0,0.0,0.0,0.0,0.0,0.0,2500.0,47136.0,Direct,,,View report (https://accesshub.pdc.wa.gov/node/86149),State government,,
100004,86151-47042,86151,FE,17536,Nick Federici,Employer,47042,City of Sammamish,21-Dec,1/1/2022,47025.0,City of Sammamish,2000.0,0.0,2000.0,0.0,0.0,0.0,0.0,0.0,0.0,0.0,2000.0,47042.0,Direct,,,View report (https://accesshub.pdc.wa.gov/node/86151),Local government,Local Gov't,Local Gov't
100005,86143-51699,86143,FE,45903,"Doug Mah & Associates, LLC",Employer,51699,Thurston County Chamber of Commerce,21-Dec,1/1/2022,47800.0,Thurston County Chamber of Commerce,1500.0,0.0,1500.0,0.0,0.0,0.0,0.0,0.0,0.0,0.0,1500.0,51699.0,Direct,,,View report (https://accesshub.pdc.wa.gov/node/86143),Fiscal,transportation and capital budget,"Representatives and Senators from the 2, 20, 22, and 35 LD"
100006,86149-52099,86149,FE,17496,DOTY & ASSOC INC*,Employer,52099,Sourcewell,21-Dec,1/1/2022,52067.0,Sourcewell,3500.0,-1750.0,1750.0,0.0,0.0,0.0,0.0,0.0,0.0,0.0,1750.0,52099.0,Direct,,,View report (https://accesshub.pdc.wa.gov/node/86149),State government,,
100007,86149-59573,86149,FE,17496,DOTY & ASSOC INC*,Employer,59573,Kitsap Mental Health Services,21-Dec,1/1/2022,59568.0,Kitsap Mental Health Services,1500.0,-750.0,750.0,0.0,0.0,0.0,0.0,0.0,0.0,0.0,750.0,59573.0,Direct,,,View report (https://accesshub.pdc.wa.gov/node/86149),State government,,
100008,86094-62440,86094,FE,17579,Melissa M Gombosky,Employer,62440,American Staffing Association,21-Dec,1/1/2022,62351.0,American Staffing Association,2083.33,0.0,2083.33,0.0,0.0,0.0,0.0,0.0,0.0,0.0,2083.33,62440.0,Direct,,,View report (https://accesshub.pdc.wa.gov/node/86094),Labor,"SB 6122, HB 2409,SB 6281,SB 5717 / HB 1491",S & H Labor
100009,86151-62857,86151,FE,17536,Nick Federici,Employer,62857,American Association of Orthodontists,21-Dec,1/1/2022,62856.0,American Association of Orthodontists,3000.0,0.0,3000.0,0.0,0.0,0.0,0.0,0.0,0.0,0.0,3000.0,62857.0,Direct,,,View report (https://accesshub.pdc.wa.gov/node/86151),Health Care,Health Care,H and S Health Care Committees
100010,86094-64586,86094,FE,17579,Melissa M Gombosky,Employer,64586,"Safelite Group, Inc.",21-Dec,1/1/2022,64584.0,"Safelite Group, Inc.",5000.0,0.0,5000.0,0.0,0.0,0.0,0.0,0.0,0.0,0.0,5000.0,64586.0,Direct,,,View report (https://accesshub.pdc.wa.gov/node/86094),Transportation,Transportation,S & H Transportation
100011,86094-68662,86094,FE,17579,Melissa M Gombosky,Employer,68662,Central Valley School District,21-Dec,1/1/2022,68661.0,Central Valley School District,3500.0,0.0,3500.0,0.0,0.0,0.0,0.0,0.0,0.0,0.0,3500.0,68662.0,Direct,,,View report (https://accesshub.pdc.wa.gov/node/86094),Education,Education Issues,Education Committees
100012,86158-18983,86158,FE,17654,Trent M House,Employer,18983,AEROSPACE FUTURES ALLIANCE OF WASHINGTON LTD,21-Dec,1/2/2022,16071.0,AEROSPACE FUTURES ALLIANCE OF WASHINGTON LTD,4000.0,0.0,4000.0,0.0,0.0,0.0,0.0,0.0,0.0,0.0,4000.0,18983.0,Direct,,,View report (https://accesshub.pdc.wa.gov/node/86158),Labor,"Workers Compensation, Taxes",Commerce and Labor Committees
100013,86154-66249,86154,FE,17790,GAIL TORAASON MCGAFFICK INC*,Employer,66249,AMERICAN MASSAGE THERAPY ASSN- WA CHAPTER,21-Dec,1/2/2022,16115.0,AMERICAN MASSAGE THERAPY ASSN- WA CHAPTER,4120.0,0.0,4120.0,0.0,0.0,0.0,0.0,0.0,0.0,0.0,4120.0,66249.0,Direct,,,View report (https://accesshub.pdc.wa.gov/node/86154),Health Care,"Monitor Board of Massage, health care rule-making","DOH, Board of Massage, OIC"
100014,86160-73534,86160,FE,18008,Eileen Sullivan,Employer,73534,BIOGEN,21-Dec,1/2/2022,16192.0,BIOGEN,6500.0,0.0,6500.0,0.0,0.0,0.0,0.0,0.0,0.0,0.0,6500.0,73534.0,Direct,,,View report (https://accesshub.pdc.wa.gov/node/86160),Health Care,Health Care,Health Care Committees
100015,86156-19315,86156,FE,17823,MICHAEL M MORAN,Employer,19315,COLVILLE CONFEDERATED TRIBES,21-Dec,1/2/2022,16343.0,COLVILLE CONFEDERATED TRIBES,7500.0,0.0,7500.0,0.0,0.0,0.0,0.0,0.0,0.0,0.0,7500.0,19315.0,Direct,,,View report (https://accesshub.pdc.wa.gov/node/86156),Fiscal,Capital Budget,"OFM, LEGISLATURE"
100016,86160-73123,86160,FE,18008,Eileen Sullivan,Employer,73123,COMCAST CABLE COMMUNICATIONS,21-Dec,1/2/2022,16344.0,COMCAST CABLE COMMUNICATIONS,6500.0,0.0,6500.0,0.0,0.0,0.0,0.0,0.0,0.0,0.0,6500.0,73123.0,Direct,,,View report (https://accesshub.pdc.wa.gov/node/86160),Technology,Privacy,"H Innovation, Technology & Economic Development, S Environment, Energy & Technology"
100018,86163-18529,86163,FE,17479,ROMAN M DANIELS-BROWN,Employer,18529,DaVita Inc.,21-Dec,1/2/2022,16380.0,DaVita Inc.,6000.0,0.0,6000.0,73.0,0.0,4000.0,0.0,0.0,0.0,4073.0,10073.0,18529.0,Direct,,,View report (https://accesshub.pdc.wa.gov/node/86163),Health Care,Health Care,Health Care
100019,86160-73988,86160,FE,18008,Eileen Sullivan,Employer,73988,"Meta Platforms, Inc.",21-Dec,1/2/2022,16430.0,"Meta Platforms, Inc.",5000.0,0.0,5000.0,0.0,0.0,0.0,0.0,0.0,0.0,0.0,5000.0,73988.0,Direct,,,View report (https://accesshub.pdc.wa.gov/node/86160),Technology,Privacy,"H Innovation, Technology & Economic Development, S Environment, Energy & Technology"
100021,86154-19244,86154,FE,17790,GAIL TORAASON MCGAFFICK INC*,Employer,19244,FRESENIUS MEDICAL CARE NORTH AMERICA,21-Dec,1/2/2022,16462.0,FRESENIUS MEDICAL CARE NORTH AMERICA,4000.0,0.0,4000.0,0.0,0.0,0.0,0.0,0.0,0.0,0.0,4000.0,19244.0,Direct,,,View report (https://accesshub.pdc.wa.gov/node/86154),,,
100022,86158-18984,86158,FE,17654,Trent M House,Employer,18984,GENENTECH,21-Dec,1/2/2022,16467.0,GENENTECH,18000.0,0.0,18000.0,0.0,0.0,0.0,0.0,0.0,0.0,0.0,18000.0,18984.0,Direct,,,View report (https://accesshub.pdc.wa.gov/node/86158),Health Care,Drug Pricing,Health Care Committees
100024,86160-73541,86160,FE,18008,Eileen Sullivan,Employer,73541,"McLANE COMPANY, Inc.",21-Dec,1/2/2022,16626.0,"McLANE COMPANY, Inc.",3500.0,0.0,3500.0,0.0,0.0,0.0,0.0,0.0,0.0,0.0,3500.0,73541.0,Direct,,,View report (https://accesshub.pdc.wa.gov/node/86160),Business and consumer affairs,Transportation and Labor,All House Senate
100026,86163-18531,86163,FE,17479,ROMAN M DANIELS-BROWN,Employer,18531,"Novartis Services, Inc.",21-Dec,1/2/2022,16725.0,"Novartis Services, Inc.",4583.33,0.0,4583.33,0.0,0.0,0.0,0.0,0.0,0.0,0.0,4583.33,18531.0,Direct,,,View report (https://accesshub.pdc.wa.gov/node/86163),Health Care,pharmaceuticals,health care
100027,86163-18532,86163,FE,17479,ROMAN M DANIELS-BROWN,Employer,18532,PACIFIC DENTAL SERVICES,21-Dec,1/2/2022,16749.0,PACIFIC DENTAL SERVICES,6000.0,0.0,6000.0,0.0,0.0,0.0,0.0,0.0,0.0,0.0,6000.0,18532.0,Direct,,,View report (https://accesshub.pdc.wa.gov/node/86163),Health Care,Dental Care,Health Care
100028,86154-20022,86154,FE,17790,GAIL TORAASON MCGAFFICK INC*,Employer,20022,PIERCE CO ALLIANCE (MELANIE STEWART & ASSOC LLC*),21-Dec,1/2/2022,16782.0,PIERCE CO ALLIANCE,2000.0,0.0,2000.0,0.0,0.0,0.0,0.0,0.0,0.0,0.0,2000.0,20022.0,Subcontract,17991.0,MELANIE STEWART & ASSOC LLC*,View report (https://accesshub.pdc.wa.gov/node/86154),,,
100030,86158-18987,86158,FE,17654,Trent M House,Employer,18987,PORT OF SEATTLE,21-Dec,1/2/2022,16805.0,PORT OF SEATTLE,7000.0,0.0,7000.0,0.0,0.0,0.0,0.0,0.0,0.0,0.0,7000.0,18987.0,Direct,,,View report (https://accesshub.pdc.wa.gov/node/86158),Transportation,"Real ID, TNC's, Taxi Cabs, Elections","Transportation Committees, Local Government Committees"
100031,86158-18988,86158,FE,17654,Trent M House,Employer,18988,PROVIDENCE HEALTH & SERVICES- WA,21-Dec,1/2/2022,16821.0,PROVIDENCE HEALTH & SERVICES- WA,6000.0,0.0,6000.0,0.0,0.0,0.0,0.0,0.0,0.0,0.0,6000.0,18988.0,Direct,,,View report (https://accesshub.pdc.wa.gov/node/86158),Health Care,Dental Residencies,Health Care Committee
100032,86159-80001,86159,FE,46174,"Washington Government Relations, LLC",Employer,80001,RENTAL HOUSING ASSN OF WA,21-Dec,1/2/2022,16894.0,RENTAL HOUSING ASSN OF WA,3500.0,0.0,3500.0,0.0,0.0,0.0,0.0,0.0,0.0,0.0,3500.0,80001.0,Direct,,,View report (https://accesshub.pdc.wa.gov/node/86159),Business and consumer affairs,Landlord / Tenant,"Senate Housing & Local Government Committee, House Housing, Human Services & Veterans Committee"
100034,86163-39257,86163,FE,17479,ROMAN M DANIELS-BROWN,Employer,39257,Astria Health,21-Dec,1/2/2022,16957.0,Astria Health,6000.0,0.0,6000.0,73.0,0.0,0.0,0.0,0.0,0.0,73.0,6073.0,39257.0,Direct,,,View report (https://accesshub.pdc.wa.gov/node/86163),Health Care,Health care,Health care
100036,86163-18534,86163,FE,17479,ROMAN M DANIELS-BROWN,Employer,18534,TAKEDA PHARMACEUTICALS,21-Dec,1/2/2022,16970.0,TAKEDA PHARMACEUTICALS,5000.0,0.0,5000.0,0.0,0.0,0.0,0.0,0.0,0.0,0.0,5000.0,18534.0,Direct,,,View report (https://accesshub.pdc.wa.gov/node/86163),Health Care,Health Care,Health Care Committees
100037,86154-28018,86154,FE,17790,GAIL TORAASON MCGAFFICK INC*,Employer,28018,VIRGINIA MASON FRANCISCAN HEALTH,21-Dec,1/2/2022,17037.0,VIRGINIA MASON FRANCISCAN HEALTH,2500.0,0.0,2500.0,0.0,0.0,0.0,0.0,0.0,0.0,0.0,2500.0,28018.0,Direct,,,View report (https://accesshub.pdc.wa.gov/node/86154),Health Care,Monitoring health care rulemaking,"DOH, HCA, OIC"
100038,86163-73251,86163,FE,17479,ROMAN M DANIELS-BROWN,Employer,73251,WA AMBULATORY SURGERY CENTER ASSN,21-Dec,1/2/2022,17060.0,WA AMBULATORY SURGERY CENTER ASSN,4000.0,0.0,4000.0,0.0,0.0,0.0,0.0,0.0,0.0,0.0,4000.0,73251.0,Direct,,,View report (https://accesshub.pdc.wa.gov/node/86163),Health Care,Health Care,Health Care Committee
100039,86158-39392,86158,FE,17654,Trent M House,Employer,39392,WA BANKERS ASSN,21-Dec,1/2/2022,17061.0,WA BANKERS ASSN,10000.0,0.0,10000.0,0.0,0.0,0.0,0.0,0.0,0.0,0.0,10000.0,39392.0,Direct,,,View report (https://accesshub.pdc.wa.gov/node/86158),Financial institutions and insurance,Banking,"House Finance, Senate Financial Institutions"
100040,86158-18991,86158,FE,17654,Trent M House,Employer,18991,WA ST DENTAL ASSN,21-Dec,1/2/2022,17238.0,WA ST DENTAL ASSN,8750.0,0.0,8750.0,0.0,0.0,0.0,0.0,0.0,0.0,0.0,8750.0,18991.0,Direct,,,View report (https://accesshub.pdc.wa.gov/node/86158),Health Care,Dental Insurance Reforms,Health Care Committees
100041,86163-27407,86163,FE,17479,ROMAN M DANIELS-BROWN,Employer,27407,WA ST MEDICAL ASSN,21-Dec,1/2/2022,17261.0,WA ST MEDICAL ASSN,6000.0,0.0,6000.0,0.0,0.0,0.0,0.0,0.0,0.0,0.0,6000.0,27407.0,Direct,,,View report (https://accesshub.pdc.wa.gov/node/86163),Health Care,Health Care,Health Care
100042,86154-19246,86154,FE,17790,GAIL TORAASON MCGAFFICK INC*,Employer,19246,Washington State Podiatric Medical Association,21-Dec,1/2/2022,17272.0,Washington State Podiatric Medical Association,4000.0,0.0,4000.0,0.0,0.0,0.0,0.0,0.0,0.0,0.0,4000.0,19246.0,Direct,,,View report (https://accesshub.pdc.wa.gov/node/86154),Health Care,"Monitor health care rulemaking, track Podiatric Medical Board","DOH, HCA, Podiatric Medical Board, OIC"
100044,86154-19247,86154,FE,17790,GAIL TORAASON MCGAFFICK INC*,Employer,19247,Yakima Valley Memorial Hospital Association,21-Dec,1/2/2022,17321.0,Yakima Valley Memorial Hospital Association,2500.0,0.0,2500.0,0.0,0.0,0.0,0.0,0.0,0.0,0.0,2500.0,19247.0,Direct,,,View report (https://accesshub.pdc.wa.gov/node/86154),Health Care,monitoring health care rulemaking,"DOH, HCA, OIC"
100045,86163-26046,86163,FE,17479,ROMAN M DANIELS-BROWN,Employer,26046,"U.S. Anesthesia Partners, Inc.",21-Dec,1/2/2022,26042.0,"U.S. Anesthesia Partners, Inc.",6000.0,0.0,6000.0,73.0,0.0,0.0,0.0,0.0,0.0,73.0,6073.0,26046.0,Direct,,,View report (https://accesshub.pdc.wa.gov/node/86163),Health Care,Health Care,Health Care
100046,86158-48852,86158,FE,17654,Trent M House,Employer,48852,WA Hospitality Assn,21-Dec,1/2/2022,26557.0,WA Hospitality Assn,5000.0,0.0,5000.0,0.0,0.0,0.0,0.0,0.0,0.0,0.0,5000.0,48852.0,Direct,,,View report (https://accesshub.pdc.wa.gov/node/86158),Business and consumer affairs,Covid,All House Senate + Gov
100047,86160-72998,86160,FE,18008,Eileen Sullivan,Employer,72998,JPMorgan Chase Holdings LLC,21-Dec,1/2/2022,28184.0,JPMorgan Chase Holdings LLC,5000.0,0.0,5000.0,0.0,0.0,0.0,0.0,0.0,0.0,0.0,5000.0,72998.0,Direct,,,View report (https://accesshub.pdc.wa.gov/node/86160),Business and consumer affairs,Privacy,All House Senate
100048,86158-29353,86158,FE,17654,Trent M House,Employer,29353,"A Place for Mom, Inc.",21-Dec,1/2/2022,29258.0,"A Place for Mom, Inc.",1000.0,0.0,1000.0,0.0,0.0,0.0,0.0,0.0,0.0,0.0,1000.0,29353.0,Direct,,,View report (https://accesshub.pdc.wa.gov/node/86158),Business and consumer affairs,General Business Climate Monitoring,All Legislative Committees
100049,86160-77692,86160,FE,18008,Eileen Sullivan,Employer,77692,ChargePoint Inc,21-Dec,1/2/2022,37392.0,ChargePoint Inc,5000.0,0.0,5000.0,0.0,0.0,0.0,0.0,0.0,0.0,0.0,5000.0,77692.0,Direct,,,View report (https://accesshub.pdc.wa.gov/node/86160),Transportation,Transportation,S & H Transportation
100051,86163-61371,86163,FE,17479,ROMAN M DANIELS-BROWN,Employer,61371,Life Flight Network,21-Dec,1/2/2022,54375.0,Life Flight Network,4666.0,0.0,4666.0,73.0,0.0,0.0,0.0,0.0,0.0,73.0,4739.0,61371.0,Direct,,,View report (https://accesshub.pdc.wa.gov/node/86163),Health Care,Health Care,Health Care Committee
100052,86163-55789,86163,FE,17479,ROMAN M DANIELS-BROWN,Employer,55789,Confluence Health,21-Dec,1/2/2022,55787.0,Confluence Health,6000.0,0.0,6000.0,73.0,0.0,0.0,0.0,0.0,0.0,73.0,6073.0,55789.0,Direct,,,View report (https://accesshub.pdc.wa.gov/node/86163),Health Care,Health Care,Health Care Committee and Ways and Means
100053,86162-61258,86162,FE,61257,Sandra Michelle Lennon,Employer,61258,Washington School-Based Health Alliance,21-Dec,1/2/2022,61254.0,Washington School-Based Health Alliance,462.5,0.0,462.5,0.0,0.0,0.0,0.0,0.0,0.0,0.0,462.5,61258.0,Direct,,,View report (https://accesshub.pdc.wa.gov/node/86162),Health Care,DOH decision package re Young Adult Behavioral Health,Governor (for Governor's budget) and legislature re supplemental funding per DOH DP
100054,86160-72792,86160,FE,18008,Eileen Sullivan,Employer,72792,"Dropbox, Inc.",21-Dec,1/2/2022,72789.0,"Dropbox, Inc.",3500.0,0.0,3500.0,0.0,0.0,0.0,0.0,0.0,0.0,0.0,3500.0,72792.0,Direct,,,View report (https://accesshub.pdc.wa.gov/node/86160),Technology,Privacy,"H Innovation, Technology & Economic Development, S Environment, Energy & Technology"
100055,86160-73021,86160,FE,18008,Eileen Sullivan,Employer,73021,"Fiserv, Inc.",21-Dec,1/2/2022,73020.0,"Fiserv, Inc.",5000.0,0.0,5000.0,0.0,0.0,0.0,0.0,0.0,0.0,0.0,5000.0,73021.0,Direct,,,View report (https://accesshub.pdc.wa.gov/node/86160),Technology,Privacy,"H Innovation, Technology & Economic Development, S Environment, Energy & Technology"
100056,86158-77950,86158,FE,17654,Trent M House,Employer,77950,American Cleaning Institute,21-Dec,1/2/2022,77949.0,American Cleaning Institute,4000.0,0.0,4000.0,0.0,0.0,0.0,0.0,0.0,0.0,0.0,4000.0,77950.0,Direct,,,View report (https://accesshub.pdc.wa.gov/node/86158),Business and consumer affairs,Enviroment / Business,All House Senate
100057,86159-81915,86159,FE,46174,"Washington Government Relations, LLC",Employer,81915,Tacoma-Pierce County Association of Realtors,21-Dec,1/2/2022,81911.0,Tacoma-Pierce County Association of Realtors,2825.0,0.0,2825.0,0.0,0.0,0.0,0.0,0.0,0.0,0.0,2825.0,81915.0,Direct,,,View report (https://accesshub.pdc.wa.gov/node/86159),Business and consumer affairs,Landlord / Tenant,"Senate Housing & Local Government Committee, House Housing, Human Services & Veterans Committee"
100058,86158-83466,86158,FE,17654,Trent M House,Employer,83466,Aerospace Machinists Joint Training Committee,21-Dec,1/2/2022,83460.0,Aerospace Machinists Joint Training Committee,5000.0,0.0,5000.0,0.0,0.0,0.0,0.0,0.0,0.0,0.0,5000.0,83466.0,Direct,,,View report (https://accesshub.pdc.wa.gov/node/86158),Transportation,Transportation,All House Senate Transportation
100059,86160-84184,86160,FE,18008,Eileen Sullivan,Employer,84184,UHV Manager LLC,21-Dec,1/2/2022,84181.0,UHV Manager LLC,6000.0,0.0,6000.0,0.0,0.0,0.0,0.0,0.0,0.0,0.0,6000.0,84184.0,Direct,,,View report (https://accesshub.pdc.wa.gov/node/86160),,,
100060,86212-49630,86212,FE,49611,Devon S. Connor-Green,Employer,49630,ARNPS UNITED OF WA ST,21-Dec,1/3/2022,16070.0,ARNPS UNITED OF WA ST,1250.0,0.0,1250.0,0.0,0.0,0.0,0.0,0.0,0.0,0.0,1250.0,49630.0,Direct,,,View report (https://accesshub.pdc.wa.gov/node/86212),Health Care,Health Care,"H Health Care, S Health Care"
100061,84658-80843,84658,FE,38146,RNJ Strategies,Employer,80843,Intl Assn of Machinists & Aerospace Workers Dist Lodge 751,21-Nov,1/3/2022,16072.0,Intl Assn of Machinists & Aerospace Workers Dist Lodge 751,10250.0,0.0,10250.0,0.0,0.0,0.0,0.0,0.0,0.0,0.0,10250.0,80843.0,Direct,,,View report (https://accesshub.pdc.wa.gov/node/84658),Labor,Labor,All House Senate
100062,86148-80843,86148,FE,38146,RNJ Strategies,Employer,80843,Intl Assn of Machinists & Aerospace Workers Dist Lodge 751,21-Dec,1/3/2022,16072.0,Intl Assn of Machinists & Aerospace Workers Dist Lodge 751,10250.0,0.0,10250.0,0.0,0.0,0.0,0.0,0.0,0.0,0.0,10250.0,80843.0,Direct,,,View report (https://accesshub.pdc.wa.gov/node/86148),Labor,Labor,All House Senate
100063,84658-38845,84658,FE,38146,RNJ Strategies,Employer,38845,Alliance for Gun Responsibility,21-Nov,1/3/2022,16083.0,Alliance for Gun Responsibility,12000.0,0.0,12000.0,0.0,0.0,0.0,0.0,0.0,0.0,0.0,12000.0,38845.0,Direct,,,View report (https://accesshub.pdc.wa.gov/node/84658),Law and justice,Gun Responsibility,All House Senate
100064,86148-38845,86148,FE,38146,RNJ Strategies,Employer,38845,Alliance for Gun Responsibility,21-Dec,1/3/2022,16083.0,Alliance for Gun Responsibility,12000.0,0.0,12000.0,0.0,0.0,0.0,0.0,0.0,0.0,0.0,12000.0,38845.0,Direct,,,View report (https://accesshub.pdc.wa.gov/node/86148),Law and justice,Gun Responsibility,All House Senate
100065,86180-49713,86180,FE,17578,JEFFREY S GOMBOSKY,Employer,49713,"Graduation Alliance, Inc.",21-Dec,1/3/2022,16089.0,"Graduation Alliance, Inc.",3000.0,0.0,3000.0,0.0,0.0,0.0,0.0,0.0,0.0,0.0,3000.0,49713.0,Direct,,,View report (https://accesshub.pdc.wa.gov/node/86180),,,
100066,86199-46893,86199,FE,17372,BRUCE K BECKETT,Employer,46893,AMERICAN FOREST RESOURCE CNCL,21-Dec,1/3/2022,16105.0,AMERICAN FOREST RESOURCE CNCL,3000.0,0.0,3000.0,0.0,0.0,0.0,0.0,0.0,0.0,0.0,3000.0,46893.0,Direct,,,View report (https://accesshub.pdc.wa.gov/node/86199),Environmental Affairs - natural resources - parks,"DNR Sustainable Harvest; ""Evergreen"" bill proposal; DNR timber sales",DNR; House/Senate Natural Resource Committees; JLARC
100067,86180-18801,86180,FE,17578,JEFFREY S GOMBOSKY,Employer,18801,ANHEUSER-BUSCH COMPANIES INC,21-Dec,1/3/2022,16128.0,ANHEUSER-BUSCH COMPANIES INC,5833.33,0.0,5833.33,0.0,0.0,12252.52,0.0,0.0,0.0,12252.52,18085.85,18801.0,Direct,,,View report (https://accesshub.pdc.wa.gov/node/86180),,,
100068,86169-26596,86169,FE,26595,STEVEN SCHULTZ,Employer,26596,ARTHRITIS FOUNDATION,21-Dec,1/3/2022,16140.0,ARTHRITIS FOUNDATION,6853.84,0.0,6853.84,0.0,0.0,0.0,0.0,0.0,0.0,0.0,6853.84,26596.0,Direct,,,View report (https://accesshub.pdc.wa.gov/node/86169),Health Care,"Telehealth, Juvenile arthritis/pediatric rheumatology, accumulator adjustment programs",Legislature/Office of Insurance Commissioner
100069,86212-70233,86212,FE,49611,Devon S. Connor-Green,Employer,70233,ASSN OF ADV PRACTICE PSYCHIATRIC NURSES,21-Dec,1/3/2022,16147.0,ASSN OF ADV PRACTICE PSYCHIATRIC NURSES,1250.0,0.0,1250.0,0.0,0.0,0.0,0.0,0.0,0.0,0.0,1250.0,70233.0,Direct,,,View report (https://accesshub.pdc.wa.gov/node/86212),Health Care,Health Care,"H Health Care, S Health Care"
100070,86171-61405,86171,FE,17359,CHRISTOPHER BANDOLI,Employer,61405,Association of Washington Healthcare Plans,21-Dec,1/3/2022,16169.0,Association of Washington Healthcare Plans,2000.0,0.0,2000.0,0.0,0.0,0.0,0.0,0.0,0.0,0.0,2000.0,61405.0,Direct,,,View report (https://accesshub.pdc.wa.gov/node/86171),Health Care,Health care financing issues,"Health care Committees, OIC, HCA, HBE"
100071,86179-19359,86179,FE,17848,THE NEXUS GROUP LLC*,Employer,19359,ASSN OF WA SCHOOL PRINCIPALS,21-Dec,1/3/2022,16173.0,ASSN OF WA SCHOOL PRINCIPALS,1500.0,0.0,1500.0,0.0,0.0,0.0,0.0,0.0,0.0,0.0,1500.0,19359.0,Direct,,,View report (https://accesshub.pdc.wa.gov/node/86179),Fiscal,Health Care Pensions Benefits,SCPP PFC SAO APPS SEBB PEBB HCA
100073,86214-18958,86214,FE,17630,Matthew A Hepner,Employer,18958,CERTIFIED ELECTRICAL WORKERS OF WA,21-Dec,1/3/2022,16249.0,CERTIFIED ELECTRICAL WORKERS OF WA,11041.6,0.0,11041.6,0.0,0.0,0.0,0.0,0.0,0.0,0.0,11041.6,18958.0,Direct,,,View report (https://accesshub.pdc.wa.gov/node/86214),Labor,"Public Safety, Prevailing Wage, Worker Comp, UI, Safety and Health,Transportation, Sick Leave, Wage and Hour, Environmental, Capital Budget, COVID-19","L&I, ESD,DOT, Attorney General's Office,Senate Labor & Commerce,Senate Transportation,Senate Ways and Means,House Labor and Workplace Standards,House Appropriations,House Transportation,House Capital Bud"
100074,84658-39052,84658,FE,38146,RNJ Strategies,Employer,39052,CITY OF SEATTLE,21-Nov,1/3/2022,16311.0,CITY OF SEATTLE,5650.0,0.0,5650.0,0.0,0.0,0.0,0.0,0.0,0.0,0.0,5650.0,39052.0,Direct,,,View report (https://accesshub.pdc.wa.gov/node/84658),Transportation,Transportation,All House Senate
100075,86148-39052,86148,FE,38146,RNJ Strategies,Employer,39052,CITY OF SEATTLE,21-Dec,1/3/2022,16311.0,CITY OF SEATTLE,5650.0,0.0,5650.0,0.0,0.0,0.0,0.0,0.0,0.0,0.0,5650.0,39052.0,Direct,,,View report (https://accesshub.pdc.wa.gov/node/86148),Transportation,Transportation,All House Senate
100076,86180-18803,86180,FE,17578,JEFFREY S GOMBOSKY,Employer,18803,ENTERPRISE HOLDINGS LLC,21-Dec,1/3/2022,16396.0,ENTERPRISE HOLDINGS LLC,2500.0,0.0,2500.0,0.0,0.0,0.0,0.0,0.0,0.0,0.0,2500.0,18803.0,Direct,,,View report (https://accesshub.pdc.wa.gov/node/86180),,,
100077,86152-26108,86152,FE,26001,BMcConsulting,Employer,26108,FIRE SPRINKLER ADVISORY BD OF PUGET SOUND (DOTY & ASSOC INC*),21-Dec,1/3/2022,16444.0,FIRE SPRINKLER ADVISORY BD OF PUGET SOUND,1050.0,0.0,1050.0,0.0,0.0,0.0,0.0,0.0,0.0,0.0,1050.0,26108.0,Subcontract,17496.0,DOTY & ASSOC INC*,View report (https://accesshub.pdc.wa.gov/node/86152),,,
100078,86212-80023,86212,FE,49611,Devon S. Connor-Green,Employer,80023,GILEAD SCIENCES INC,21-Dec,1/3/2022,16471.0,GILEAD SCIENCES INC,5000.0,0.0,5000.0,0.0,0.0,0.0,0.0,0.0,0.0,0.0,5000.0,80023.0,Direct,,,View report (https://accesshub.pdc.wa.gov/node/86212),Health Care,Health Care,All House & Senate
100079,86168-19076,86168,FE,17704,JAMES L KING JR,Employer,19076,INDEPENDENT BUSINESS ASSN,21-Dec,1/3/2022,16523.0,INDEPENDENT BUSINESS ASSN,1250.0,0.0,1250.0,0.0,0.0,0.0,0.0,0.0,0.0,0.0,1250.0,19076.0,Direct,,,View report (https://accesshub.pdc.wa.gov/node/86168),Transportation,Electric Vehicle Accident Safety,Sen. King
100082,84658-56719,84658,FE,38146,RNJ Strategies,Employer,56719,KING CO SEXUAL ASSAULT RESOURCE CENTER,21-Nov,1/3/2022,16578.0,KING CO SEXUAL ASSAULT RESOURCE CENTER,6000.0,0.0,6000.0,0.0,0.0,0.0,0.0,0.0,0.0,0.0,6000.0,56719.0,Direct,,,View report (https://accesshub.pdc.wa.gov/node/84658),Law and justice,Law and Justice,All House Senate
100083,86148-56719,86148,FE,38146,RNJ Strategies,Employer,56719,KING CO SEXUAL ASSAULT RESOURCE CENTER,21-Dec,1/3/2022,16578.0,KING CO SEXUAL ASSAULT RESOURCE CENTER,6000.0,0.0,6000.0,0.0,0.0,0.0,0.0,0.0,0.0,0.0,6000.0,56719.0,Direct,,,View report (https://accesshub.pdc.wa.gov/node/86148),Law and justice,Law and Justice,All House Senate
100084,86183-18128,86183,FE,17334,MARK ALLEN,Employer,18128,WA MASSAGE OWNERS ASSN,21-Dec,1/3/2022,16621.0,WA MASSAGE OWNERS ASSN,2800.0,0.0,2800.0,0.0,0.0,0.0,0.0,0.0,0.0,0.0,2800.0,18128.0,Direct,,,View report (https://accesshub.pdc.wa.gov/node/86183),,,
100085,86180-18807,86180,FE,17578,JEFFREY S GOMBOSKY,Employer,18807,MULTICARE HEALTH SYSTEM,21-Dec,1/3/2022,16651.0,MULTICARE HEALTH SYSTEM,7500.0,0.0,7500.0,0.0,0.0,0.0,0.0,0.0,0.0,0.0,7500.0,18807.0,Direct,,,View report (https://accesshub.pdc.wa.gov/node/86180),,,
100086,86165-19401,86165,FE,17872,OYSTER BAY PUBLIC AFFAIRS*,Employer,19401,OTSUKA AMERICA PHARMACEUTICAL INC,21-Dec,1/3/2022,16743.0,OTSUKA AMERICA PHARMACEUTICAL INC,4000.0,0.0,4000.0,0.0,0.0,0.0,0.0,0.0,0.0,0.0,4000.0,19401.0,Direct,,,View report (https://accesshub.pdc.wa.gov/node/86165),Health Care,health care,health care
100087,86148-38846,86148,FE,38146,RNJ Strategies,Employer,38846,PARENT TRUST FOR WA CHILDREN,21-Dec,1/3/2022,16763.0,PARENT TRUST FOR WA CHILDREN,1000.0,0.0,1000.0,0.0,0.0,0.0,0.0,0.0,0.0,0.0,1000.0,38846.0,Direct,,,View report (https://accesshub.pdc.wa.gov/node/86148),Human services,Health Care,Health Care
100088,86180-18808,86180,FE,17578,JEFFREY S GOMBOSKY,Employer,18808,PHARMACEUTICAL RSRCH/MFG OF AMERICA,21-Dec,1/3/2022,16776.0,PHARMACEUTICAL RSRCH/MFG OF AMERICA,10833.33,0.0,10833.33,0.0,0.0,0.0,0.0,0.0,0.0,0.0,10833.33,18808.0,Direct,,,View report (https://accesshub.pdc.wa.gov/node/86180),,,
100089,86199-27140,86199,FE,17372,BRUCE K BECKETT,Employer,27140,PORT OF MOSES LAKE,21-Dec,1/3/2022,16802.0,PORT OF MOSES LAKE,3500.0,0.0,3500.0,0.0,0.0,0.0,0.0,0.0,0.0,0.0,3500.0,27140.0,Direct,,,View report (https://accesshub.pdc.wa.gov/node/86199),State government,Community Aviation Coordinating Commission; Economic development opportunities; hydrogen fuel; airport management,"WSDOT Aviation, Dept. of Commerce, Energy Department, Dept of Ecology"
100090,84658-72995,84658,FE,38146,RNJ Strategies,Employer,72995,PUBLIC SCHOOL EMPLOYEES OF WA,21-Nov,1/3/2022,16824.0,PUBLIC SCHOOL EMPLOYEES OF WA,3500.0,0.0,3500.0,0.0,0.0,0.0,0.0,0.0,0.0,0.0,3500.0,72995.0,Direct,,,View report (https://accesshub.pdc.wa.gov/node/84658),Education,Labor,All House Senate
100091,86148-72995,86148,FE,38146,RNJ Strategies,Employer,72995,PUBLIC SCHOOL EMPLOYEES OF WA,21-Dec,1/3/2022,16824.0,PUBLIC SCHOOL EMPLOYEES OF WA,3500.0,0.0,3500.0,0.0,0.0,0.0,0.0,0.0,0.0,0.0,3500.0,72995.0,Direct,,,View report (https://accesshub.pdc.wa.gov/node/86148),Education,Labor,All House Senate
100093,86180-72028,86180,FE,17578,JEFFREY S GOMBOSKY,Employer,72028,RENEWABLE NORTHWEST,21-Dec,1/3/2022,16854.0,RENEWABLE NORTHWEST,3500.0,0.0,3500.0,0.0,0.0,0.0,0.0,0.0,0.0,0.0,3500.0,72028.0,Direct,,,View report (https://accesshub.pdc.wa.gov/node/86180),,,
100094,86165-19403,86165,FE,17872,OYSTER BAY PUBLIC AFFAIRS*,Employer,19403,Washington School Counselor Association,21-Dec,1/3/2022,16880.0,Washington School Counselor Association,2500.0,0.0,2500.0,0.0,0.0,0.0,0.0,0.0,0.0,0.0,2500.0,19403.0,Direct,,,View report (https://accesshub.pdc.wa.gov/node/86165),Education,education,Education Committees
100095,86178-18225,86178,FE,17369,DAVID S BEARD,Employer,18225,SCHOOLS OUT WA,21-Dec,1/3/2022,16883.0,SCHOOLS OUT WA,265.7,0.0,265.7,0.0,0.0,0.0,0.0,0.0,0.0,0.0,265.7,18225.0,Direct,,,View report (https://accesshub.pdc.wa.gov/node/86178),,,
100096,86180-39888,86180,FE,17578,JEFFREY S GOMBOSKY,Employer,39888,TESLA,21-Dec,1/3/2022,16979.0,TESLA,5000.0,0.0,5000.0,0.0,0.0,0.0,0.0,0.0,0.0,0.0,5000.0,39888.0,Direct,,,View report (https://accesshub.pdc.wa.gov/node/86180),,,
100097,84658-40398,84658,FE,38146,RNJ Strategies,Employer,40398,UNITED FOOD & COMM WRKRS # 3000,21-Nov,1/3/2022,17005.0,UNITED FOOD & COMM WRKRS # 3000,9500.0,0.0,9500.0,0.0,0.0,0.0,0.0,0.0,0.0,0.0,9500.0,40398.0,Direct,,,View report (https://accesshub.pdc.wa.gov/node/84658),Labor,Labor,All House Senate
100098,86148-40398,86148,FE,38146,RNJ Strategies,Employer,40398,UNITED FOOD & COMM WRKRS # 3000,21-Dec,1/3/2022,17005.0,UNITED FOOD & COMM WRKRS # 3000,9500.0,0.0,9500.0,0.0,0.0,0.0,0.0,0.0,0.0,0.0,9500.0,40398.0,Direct,,,View report (https://accesshub.pdc.wa.gov/node/86148),Labor,Labor,All House Senate
100105,86165-19404,86165,FE,17872,OYSTER BAY PUBLIC AFFAIRS*,Employer,19404,VERTEX PHARMACEUTICALS INC,21-Dec,1/3/2022,17033.0,VERTEX PHARMACEUTICALS INC,4000.0,0.0,4000.0,0.0,0.0,5000.0,0.0,0.0,0.0,5000.0,9000.0,19404.0,Direct,,,View report (https://accesshub.pdc.wa.gov/node/86165),Health Care,health care,"health care, budget"
100106,86165-39142,86165,FE,17872,OYSTER BAY PUBLIC AFFAIRS*,Employer,39142,WA BEER & WINE DISTRIBUTORS ASSN (CIVIC GROUP*),21-Dec,1/3/2022,17067.0,WA BEER & WINE DISTRIBUTORS ASSN,2500.0,0.0,2500.0,0.0,0.0,0.0,0.0,0.0,0.0,0.0,2500.0,39142.0,Subcontract,17450.0,CIVIC GROUP*,View report (https://accesshub.pdc.wa.gov/node/86165),,,
100107,86197-29092,86197,FE,17542,JACK FIELD,Employer,29092,WA CATTLE FEEDERS ASSN,21-Dec,1/3/2022,17078.0,WA CATTLE FEEDERS ASSN,1500.0,0.0,1500.0,0.0,0.0,0.0,0.0,0.0,0.0,0.0,1500.0,29092.0,Direct,,,View report (https://accesshub.pdc.wa.gov/node/86197),Agriculture,brand fee issues,WSDA
100108,86165-19407,86165,FE,17872,OYSTER BAY PUBLIC AFFAIRS*,Employer,19407,NORTHWEST CAREER COLLEGE FEDERATION,21-Dec,1/3/2022,17118.0,NORTHWEST CAREER COLLEGE FEDERATION,3083.33,0.0,3083.33,0.0,0.0,0.0,0.0,0.0,0.0,0.0,3083.33,19407.0,Direct,,,View report (https://accesshub.pdc.wa.gov/node/86165),Higher education,higher ed,higher ed
100109,86180-18811,86180,FE,17578,JEFFREY S GOMBOSKY,Employer,18811,WA HEALTH CARE ASSN,21-Dec,1/3/2022,17128.0,WA HEALTH CARE ASSN,9000.0,0.0,9000.0,0.0,0.0,0.0,0.0,0.0,0.0,0.0,9000.0,18811.0,Direct,,,View report (https://accesshub.pdc.wa.gov/node/86180),Fiscal,Medicaid Funding for Skilled Nursing facilities,House Appropriations Committee and Senate Ways and Means Committee
100110,86200-49269,86200,FE,49268,Russell Gregrey Brown,Employer,49269,WA Assn of Prosecuting Attorneys,21-Dec,1/3/2022,17164.0,WA Assn of Prosecuting Attorneys,637.5,0.0,637.5,0.0,0.0,0.0,0.0,0.0,0.0,0.0,637.5,49269.0,Direct,,,View report (https://accesshub.pdc.wa.gov/node/86200),Law and justice,various,various
100111,86199-38993,86199,FE,17372,BRUCE K BECKETT,Employer,38993,WA RETAIL ASSN,21-Dec,1/3/2022,17180.0,WA RETAIL ASSN,4800.0,0.0,4800.0,0.0,0.0,0.0,0.0,0.0,0.0,0.0,4800.0,38993.0,Direct,,,View report (https://accesshub.pdc.wa.gov/node/86199),Labor,"Long Term Care Tax; Unemployment Insurance, Workers Comp Rates, Indepedent Medical Exams;","Dept. of Labor and Industries; ESD, Unemployment Insurance Advisory Committee,"
100114,86179-19362,86179,FE,17848,THE NEXUS GROUP LLC*,Employer,19362,WA ASSN OF SCHOOL ADMINISTRATORS,21-Dec,1/3/2022,17186.0,WA ASSN OF SCHOOL ADMINISTRATORS,3000.0,0.0,3000.0,0.0,0.0,0.0,0.0,0.0,0.0,0.0,3000.0,19362.0,Direct,,,View report (https://accesshub.pdc.wa.gov/node/86179),Fiscal,Health Care Pensions Benefits,SCPP PFC SAO APPS SEBB PEBB HCA
100116,86172-19018,86172,FE,17670,ANDREA IMLER,Employer,19018,Washington Trails Association,21-Dec,1/3/2022,17200.0,Washington Trails Association,500.0,0.0,500.0,0.0,0.0,0.0,0.0,0.0,0.0,0.0,500.0,19018.0,Direct,,,View report (https://accesshub.pdc.wa.gov/node/86172),Environmental Affairs - natural resources - parks,Emerging Leaders - nat resources job creation; M&O funding,Rep Ryu
100117,86183-18129,86183,FE,17334,MARK ALLEN,Employer,18129,WA ST ASSN OF BROADCASTERS,21-Dec,1/3/2022,17219.0,WA ST ASSN OF BROADCASTERS,2000.0,0.0,2000.0,0.0,0.0,0.0,0.0,0.0,0.0,0.0,2000.0,18129.0,Direct,,,View report (https://accesshub.pdc.wa.gov/node/86183),Law and justice,HB 1639; Missing & Murdered Indigenous Women & People,Missing & Murdered Indigenous Women & People Task Force; Annie Forsman-Adams; Asa Washines
100118,86165-85153,86165,FE,17872,OYSTER BAY PUBLIC AFFAIRS*,Employer,85153,WA ST DENTAL ASSN,21-Dec,1/3/2022,17238.0,WA ST DENTAL ASSN,5000.0,0.0,5000.0,0.0,0.0,0.0,0.0,0.0,0.0,0.0,5000.0,85153.0,Direct,,,View report (https://accesshub.pdc.wa.gov/node/86165),Health Care,health care,health care
100119,86181-19722,86181,FE,18007,JOHN STUHLMILLER,Employer,19722,WA ST FARM BUREAU,21-Dec,1/3/2022,17246.0,WA ST FARM BUREAU,2000.0,0.0,2000.0,0.0,0.0,0.0,0.0,0.0,0.0,0.0,2000.0,19722.0,Direct,,,View report (https://accesshub.pdc.wa.gov/node/86181),Agriculture,general ag issues,Various agencies
100120,86152-28541,86152,FE,26001,BMcConsulting,Employer,28541,WA ST ASSN OF FIRE CHIEFS (DOTY & ASSOC INC*),21-Dec,1/3/2022,17247.0,WA ST ASSN OF FIRE CHIEFS,1250.0,0.0,1250.0,0.0,0.0,0.0,0.0,0.0,0.0,0.0,1250.0,28541.0,Subcontract,17496.0,DOTY & ASSOC INC*,View report (https://accesshub.pdc.wa.gov/node/86152),,,
100121,86165-68128,86165,FE,17872,OYSTER BAY PUBLIC AFFAIRS*,Employer,68128,WA ST SOCIETY OF ANESTHESIOLOGISTS,21-Dec,1/3/2022,17283.0,WA ST SOCIETY OF ANESTHESIOLOGISTS,7000.0,0.0,7000.0,0.0,0.0,0.0,0.0,0.0,0.0,0.0,7000.0,68128.0,Direct,,,View report (https://accesshub.pdc.wa.gov/node/86165),Health Care,health care,"health care, OIC"
100122,86179-19363,86179,FE,17848,THE NEXUS GROUP LLC*,Employer,19363,WA ST SCHOOL RETIREES ASSN,21-Dec,1/3/2022,17286.0,WA ST SCHOOL RETIREES ASSN,5659.0,0.0,5659.0,0.0,0.0,0.0,0.0,0.0,0.0,0.0,5659.0,19363.0,Direct,,,View report (https://accesshub.pdc.wa.gov/node/86179),Fiscal,Health Care Pensions Benefits,SCPP PFC SAO APPS SEBB PEBB HCA
100123,86152-26037,86152,FE,26001,BMcConsulting,Employer,26037,City of Bremerton,21-Dec,1/3/2022,26023.0,City of Bremerton,4000.0,0.0,4000.0,0.0,0.0,0.0,0.0,0.0,0.0,0.0,4000.0,26037.0,Direct,,,View report (https://accesshub.pdc.wa.gov/node/86152),State government,,
100124,86152-50416,86152,FE,26001,BMcConsulting,Employer,50416,ACTION DD (GOVERNMENT RELATIONS SERVICES*),21-Dec,1/3/2022,27525.0,ACTION DD,1500.0,0.0,1500.0,0.0,0.0,0.0,0.0,0.0,0.0,0.0,1500.0,50416.0,Subcontract,17589.0,GOVERNMENT RELATIONS SERVICES*,View report (https://accesshub.pdc.wa.gov/node/86152),,,
100125,86199-29456,86199,FE,17372,BRUCE K BECKETT,Employer,29456,Wenatchee Valley Chamber of Commerce,21-Dec,1/3/2022,28448.0,Wenatchee Valley Chamber of Commerce,3500.0,0.0,3500.0,0.0,0.0,0.0,0.0,0.0,0.0,0.0,3500.0,29456.0,Direct,,,View report (https://accesshub.pdc.wa.gov/node/86199),State government,COVID Response; Tourism; Transportation; Housing,12th District legislators; House/Senate Transportation Committees; Gov. Inslee's COVID team; House/Senate Fiscal Committees
100126,86167-40317,86167,FE,40314,Kent Ryan Hartwig,Employer,40317,Renewable Energy Group,21-Dec,1/3/2022,30764.0,Renewable Energy Group,1721.5,0.0,1721.5,1454.44,0.0,0.0,0.0,0.0,0.0,1454.44,3175.94,40317.0,Direct,,,View report (https://accesshub.pdc.wa.gov/node/86167),Transportation,Transportation budget,Senate Transportation Committee
100127,86199-32598,86199,FE,17372,BRUCE K BECKETT,Employer,32598,Port of Port Angeles,21-Dec,1/3/2022,32592.0,Port of Port Angeles,3000.0,0.0,3000.0,251.62,0.0,0.0,0.0,0.0,0.0,251.62,3251.62,32598.0,Direct,,,View report (https://accesshub.pdc.wa.gov/node/86199),Environmental Affairs - natural resources - parks,Stormwater; Labor availability; DNR timber supply,Dept. of Ecology; 24th District delegation; Labor and Industries; Dept. of Archeology and Historic Preservation
100128,86152-41183,86152,FE,26001,BMcConsulting,Employer,41183,City of Poulsbo,21-Dec,1/3/2022,40750.0,City of Poulsbo,3750.0,0.0,3750.0,0.0,0.0,0.0,0.0,0.0,0.0,0.0,3750.0,41183.0,Direct,,,View report (https://accesshub.pdc.wa.gov/node/86152),State government,,
100129,86152-43435,86152,FE,26001,BMcConsulting,Employer,43435,Washington Sun and Craft Grower's Association,21-Dec,1/3/2022,43434.0,Washington Sun and Craft Grower's Association,2500.0,-2000.0,500.0,0.0,0.0,0.0,0.0,0.0,0.0,0.0,500.0,43435.0,Direct,,,View report (https://accesshub.pdc.wa.gov/node/86152),State government,,
100130,86165-48975,86165,FE,17872,OYSTER BAY PUBLIC AFFAIRS*,Employer,48975,Kalkokmey Enterprises,21-Dec,1/3/2022,48863.0,Kalkokmey Enterprises,4000.0,0.0,4000.0,0.0,0.0,0.0,0.0,0.0,0.0,0.0,4000.0,48975.0,Direct,,,View report (https://accesshub.pdc.wa.gov/node/86165),Environmental Affairs - natural resources - parks,outdoor recreation education,parks and natural resources
100131,86210-49481,86210,FE,49469,Sarah Commerford Brady,Employer,49481,Child Care Resources,21-Dec,1/3/2022,49480.0,Child Care Resources,397.0,0.0,397.0,0.0,0.0,0.0,0.0,0.0,0.0,0.0,397.0,49481.0,Direct,,,View report (https://accesshub.pdc.wa.gov/node/86210),,,
100132,86152-52627,86152,FE,26001,BMcConsulting,Employer,52627,Sourcewell (DOTY & ASSOC INC*),21-Dec,1/3/2022,52067.0,Sourcewell,1750.0,0.0,1750.0,0.0,0.0,0.0,0.0,0.0,0.0,0.0,1750.0,52627.0,Subcontract,17496.0,DOTY & ASSOC INC*,View report (https://accesshub.pdc.wa.gov/node/86152),,,
100133,84658-57289,84658,FE,38146,RNJ Strategies,Employer,57289,Civic Ventures,21-Nov,1/3/2022,57288.0,Civic Ventures,10000.0,0.0,10000.0,0.0,0.0,0.0,0.0,0.0,0.0,0.0,10000.0,57289.0,Direct,,,View report (https://accesshub.pdc.wa.gov/node/84658),Labor,Civic Action,All House Senate
100134,86148-57289,86148,FE,38146,RNJ Strategies,Employer,57289,Civic Ventures,21-Dec,1/3/2022,57288.0,Civic Ventures,10000.0,0.0,10000.0,0.0,0.0,0.0,0.0,0.0,0.0,0.0,10000.0,57289.0,Direct,,,View report (https://accesshub.pdc.wa.gov/node/86148),Labor,Civic Action,All House Senate
100135,86152-59587,86152,FE,26001,BMcConsulting,Employer,59587,Kitsap Mental Health Services (DOTY & ASSOC INC*),21-Dec,1/3/2022,59568.0,Kitsap Mental Health Services,750.0,0.0,750.0,0.0,0.0,0.0,0.0,0.0,0.0,0.0,750.0,59587.0,Subcontract,17496.0,DOTY & ASSOC INC*,View report (https://accesshub.pdc.wa.gov/node/86152),,,
100136,85417-60687,85417,FE,17907,Krystelle Purkey,Employer,60687,Washington Court Reporters Association,21-Dec,1/3/2022,60654.0,Washington Court Reporters Association,1000.0,0.0,1000.0,0.0,0.0,0.0,0.0,0.0,0.0,0.0,1000.0,60687.0,Direct,,,View report (https://accesshub.pdc.wa.gov/node/85417),Labor,Independent Contractors,Senate & House
100137,84658-71805,84658,FE,38146,RNJ Strategies,Employer,71805,Northwest Portland Area Indian Health Board,21-Nov,1/3/2022,63531.0,Northwest Portland Area Indian Health Board,8750.0,0.0,8750.0,0.0,0.0,0.0,0.0,0.0,0.0,0.0,8750.0,71805.0,Direct,,,View report (https://accesshub.pdc.wa.gov/node/84658),Health Care,Health Care,All House Senate
100138,86180-78099,86180,FE,17578,JEFFREY S GOMBOSKY,Employer,78099,"Live Nation Entertainment, Inc. (CHRIS MARR)",21-Dec,1/3/2022,63596.0,"Live Nation Entertainment, Inc.",3000.0,0.0,3000.0,0.0,0.0,0.0,0.0,0.0,0.0,0.0,3000.0,78099.0,Subcontract,17773.0,CHRIS MARR,View report (https://accesshub.pdc.wa.gov/node/86180),,,
100139,86180-64750,86180,FE,17578,JEFFREY S GOMBOSKY,Employer,64750,The Soccer Club of Tacoma,21-Dec,1/3/2022,63721.0,The Soccer Club of Tacoma,22500.0,0.0,22500.0,0.0,0.0,0.0,0.0,0.0,0.0,0.0,22500.0,64750.0,Direct,,,View report (https://accesshub.pdc.wa.gov/node/86180),,,
100141,86268-18649,86268,FE,17520,Emerick & Bloom,Employer,18649,Washington Acupuncture and Eastern Medicine Association,21-Dec,1/4/2022,16067.0,Washington Acupuncture and Eastern Medicine Association,2500.0,0.0,2500.0,0.0,0.0,0.0,0.0,0.0,0.0,0.0,2500.0,18649.0,Direct,,,View report (https://accesshub.pdc.wa.gov/node/86268),Health Care,Acupuncture,"DOH, HCA, House and Senate"
100142,74634-18345,74634,FE,17430,CAPITOL CONNECTION*,Employer,18345,ALLIANCE FOR AUTOMOTIVE INNOVATION,21-Dec,1/4/2022,16081.0,ALLIANCE FOR AUTOMOTIVE INNOVATION,5195.83,0.0,5195.83,0.0,0.0,0.0,0.0,0.0,0.0,0.0,5195.83,18345.0,Direct,,,View report (https://accesshub.pdc.wa.gov/node/74634),Transportation,autonomous vehicles,Rep Kloba
100143,86257-84292,86257,FE,17693,Water Street Public Affairs LLC,Employer,84292,AMAZON.COM SERVICES LLC,21-Nov,1/4/2022,16088.0,AMAZON.COM SERVICES LLC,2500.0,0.0,2500.0,0.0,0.0,0.0,0.0,0.0,0.0,0.0,2500.0,84292.0,Direct,,,View report (https://accesshub.pdc.wa.gov/node/86257),Energy and utilities,Climate policy,"Environment, Energy & Technology (S); Environment & Energy (H); Transportation (H & S), Department of Ecology"
100144,85213-50720,85213,FE,50719,Mark Cooke,Employer,50720,AMERICAN CIVIL LIBERTIES UNION OF WA,21-Dec,1/4/2022,16097.0,AMERICAN CIVIL LIBERTIES UNION OF WA,1043.0,0.0,1043.0,0.0,0.0,0.0,0.0,0.0,0.0,0.0,1043.0,50720.0,Direct,,,View report (https://accesshub.pdc.wa.gov/node/85213),Law and justice,Drug Policy,Rep. Orwall
100145,86237-19617,86237,FE,17964,SCOTT C SIGMON,Employer,19617,WA ST CHAPTER OF ASSOC PUBLIC SAFETY COMMUNICATIONS OFFICIALS,21-Dec,1/4/2022,16158.0,WA ST CHAPTER OF ASSOC PUBLIC SAFETY COMMUNICATIONS OFFICIALS,2250.0,0.0,2250.0,0.0,0.0,0.0,0.0,0.0,0.0,0.0,2250.0,19617.0,Direct,,,View report (https://accesshub.pdc.wa.gov/node/86237),Local government,SB 5555,Senator Van De Wege
100146,86257-26056,86257,FE,17693,Water Street Public Affairs LLC,Employer,26056,BENTON PUD,21-Nov,1/4/2022,16188.0,BENTON PUD,6500.0,0.0,6500.0,0.0,0.0,0.0,0.0,0.0,0.0,0.0,6500.0,26056.0,Direct,,,View report (https://accesshub.pdc.wa.gov/node/86257),Energy and utilities,CETA; LSRD; Local Government,"Environment, Energy & Technology (S); Environment & Energy (H); Dept. Commerce"
100148,86237-19619,86237,FE,17964,SCOTT C SIGMON,Employer,19619,COASTAL CONSERVATION ASSN WA,21-Dec,1/4/2022,16333.0,COASTAL CONSERVATION ASSN WA,500.0,0.0,500.0,0.0,0.0,0.0,0.0,0.0,0.0,0.0,500.0,19619.0,Direct,,,View report (https://accesshub.pdc.wa.gov/node/86237),Environmental Affairs - natural resources - parks,Salmon Recovery,Governor's Supplemental Operating Budget
100149,74634-18346,74634,FE,17430,CAPITOL CONNECTION*,Employer,18346,EQUAL JUSTICE COALITION,21-Dec,1/4/2022,16418.0,EQUAL JUSTICE COALITION,5950.0,0.0,5950.0,0.0,0.0,0.0,0.0,0.0,0.0,0.0,5950.0,18346.0,Direct,,,View report (https://accesshub.pdc.wa.gov/node/74634),Law and justice,access to justice,OCLA
100150,86257-25369,86257,FE,17693,Water Street Public Affairs LLC,Employer,25369,FRANKLIN CO PUBLIC UTILITY DIST,21-Nov,1/4/2022,16454.0,FRANKLIN CO PUBLIC UTILITY DIST,3500.0,0.0,3500.0,0.0,0.0,0.0,0.0,0.0,0.0,0.0,3500.0,25369.0,Direct,,,View report (https://accesshub.pdc.wa.gov/node/86257),Energy and utilities,CETA; LSRD; Local Government,"Environment, Energy & Technology (S); Environment & Energy (H); Dept. Commerce"
100151,86268-69827,86268,FE,17520,Emerick & Bloom,Employer,69827,FRESENIUS MEDICAL CARE NORTH AMERICA,21-Dec,1/4/2022,16462.0,FRESENIUS MEDICAL CARE NORTH AMERICA,2000.0,0.0,2000.0,0.0,0.0,0.0,0.0,0.0,0.0,0.0,2000.0,69827.0,Direct,,,View report (https://accesshub.pdc.wa.gov/node/86268),,,
100152,86268-18651,86268,FE,17520,Emerick & Bloom,Employer,18651,HOME CARE ASSN OF WA,21-Dec,1/4/2022,16509.0,HOME CARE ASSN OF WA,4000.0,0.0,4000.0,0.0,0.0,0.0,0.0,0.0,0.0,0.0,4000.0,18651.0,Direct,,,View report (https://accesshub.pdc.wa.gov/node/86268),Health Care,"Home Health, Home Care, Hospice","DOH, DSHS, HCA, House and Senate Healthcare Committees"
100153,74634-18347,74634,FE,17430,CAPITOL CONNECTION*,Employer,18347,ALCOA US PRIMARY METALS,21-Dec,1/4/2022,16536.0,ALCOA US PRIMARY METALS,7000.0,0.0,7000.0,0.0,0.0,0.0,0.0,0.0,0.0,0.0,7000.0,18347.0,Direct,,,View report (https://accesshub.pdc.wa.gov/node/74634),,,
100154,86237-19623,86237,FE,17964,SCOTT C SIGMON,Employer,19623,LEADINGAGE WA,21-Dec,1/4/2022,16588.0,LEADINGAGE WA,9000.0,0.0,9000.0,0.0,0.0,0.0,0.0,0.0,0.0,0.0,9000.0,19623.0,Direct,,,View report (https://accesshub.pdc.wa.gov/node/86237),Health Care,Agency Nursing Costs,Rep Cody & Rep Harris
100155,86237-19624,86237,FE,17964,SCOTT C SIGMON,Employer,19624,CONSUMER HEALTHCARE PRODUCTS ASSN,21-Dec,1/4/2022,16692.0,CONSUMER HEALTHCARE PRODUCTS ASSN,4000.0,0.0,4000.0,0.0,0.0,0.0,0.0,0.0,0.0,0.0,4000.0,19624.0,Direct,,,View report (https://accesshub.pdc.wa.gov/node/86237),Environmental Affairs - natural resources - parks,Plastic Packaging,Senator Das
100156,86237-19625,86237,FE,17964,SCOTT C SIGMON,Employer,19625,PARTNERS IN CAREERS,21-Dec,1/4/2022,16764.0,PARTNERS IN CAREERS,1500.0,0.0,1500.0,0.0,0.0,0.0,0.0,0.0,0.0,0.0,1500.0,19625.0,Direct,,,View report (https://accesshub.pdc.wa.gov/node/86237),Human services,Work Force Training,Senator Cleveland
100157,86264-85273,86264,FE,85272,Jane Douthit,Employer,85273,REGENCE BLUE SHIELD,21-Dec,1/4/2022,16849.0,REGENCE BLUE SHIELD,1000.0,0.0,1000.0,0.0,0.0,15000.0,0.0,0.0,0.0,15000.0,16000.0,85273.0,Direct,,,View report (https://accesshub.pdc.wa.gov/node/86264),Health Care,Health care policy,"Cody, Maycumber, Ybarra, Bronoske, Robinson, Schmick, Simmons, Harris, Wilson, Walen, Stonier, Randall"
100158,86244-37661,86244,FE,37660,Tim Strickland,Employer,37661,PEACEHEALTH,21-Dec,1/4/2022,16934.0,PEACEHEALTH,2400.0,0.0,2400.0,0.0,0.0,0.0,0.0,0.0,0.0,0.0,2400.0,37661.0,Direct,,,View report (https://accesshub.pdc.wa.gov/node/86244),Health Care,COVID; hospital capacity; healthcare workforce issues; licensure issues,"DOH -- Kristin Peterson, Tao Kwan-Gett, Lacey Fehrenbach, Scott Lindquist"
100159,86237-19626,86237,FE,17964,SCOTT C SIGMON,Employer,19626,"UCB, INC",21-Dec,1/4/2022,17002.0,"UCB, INC",4166.66,0.0,4166.66,0.0,0.0,0.0,0.0,0.0,0.0,0.0,4166.66,19626.0,Direct,,,View report (https://accesshub.pdc.wa.gov/node/86237),Health Care,Rx Drug Pricing,Senator Keiser
100160,86256-82706,86256,FE,82408,Waldo Emerson Waldron-Ramsey,Employer,82706,WA COMMUNITY ACTION NETWORK,21-Dec,1/4/2022,17070.0,WA COMMUNITY ACTION NETWORK,4800.0,0.0,4800.0,0.0,0.0,0.0,0.0,0.0,0.0,0.0,4800.0,82706.0,Direct,,,View report (https://accesshub.pdc.wa.gov/node/86256),Law and justice,Criminal Justice,Legislature/state agency
100161,74634-18349,74634,FE,17430,CAPITOL CONNECTION*,Employer,18349,WA FIRE COMMISSIONERS ASSN,21-Dec,1/4/2022,17113.0,WA FIRE COMMISSIONERS ASSN,6945.0,0.0,6945.0,0.0,0.0,0.0,0.0,0.0,0.0,0.0,6945.0,18349.0,Direct,,,View report (https://accesshub.pdc.wa.gov/node/74634),Local government,treasurer responsibilities,Sen Sheldon
100162,86268-18652,86268,FE,17520,Emerick & Bloom,Employer,18652,Home Care Association of America,21-Dec,1/4/2022,17168.0,Home Care Association of America,2000.0,0.0,2000.0,0.0,0.0,0.0,0.0,0.0,0.0,0.0,2000.0,18652.0,Direct,,,View report (https://accesshub.pdc.wa.gov/node/86268),Health Care,Home Care,"DOH, DSHS, House and Senate Health Care"
100163,86253-19120,86253,FE,17732,DENNIS J LAWSON,Employer,19120,WA ST COUNCIL OF FIRE FIGHTERS,21-Dec,1/4/2022,17232.0,WA ST COUNCIL OF FIRE FIGHTERS,2736.77,0.0,2736.77,0.0,0.0,0.0,0.0,0.0,0.0,0.0,2736.77,19120.0,Direct,,,View report (https://accesshub.pdc.wa.gov/node/86253),Labor,Fire Service Issues,House of Representatives/Senate
100164,86254-19191,86254,FE,17772,GREG B MARKLEY,Employer,19191,WA ST COUNCIL OF FIRE FIGHTERS,21-Dec,1/4/2022,17232.0,WA ST COUNCIL OF FIRE FIGHTERS,380.11,0.0,380.11,0.0,0.0,0.0,0.0,0.0,0.0,0.0,380.11,19191.0,Direct,,,View report (https://accesshub.pdc.wa.gov/node/86254),Labor,Fire Service Issues,House of Representatives/Senate
100165,86251-39780,86251,FE,39779,AJ Johnson,Employer,39780,WA ST COUNCIL OF FIRE FIGHTERS,21-Dec,1/4/2022,17232.0,WA ST COUNCIL OF FIRE FIGHTERS,2747.54,0.0,2747.54,0.0,0.0,0.0,0.0,0.0,0.0,0.0,2747.54,39780.0,Direct,,,View report (https://accesshub.pdc.wa.gov/node/86251),Labor,Fire Service Issues,House of Representatives/Senate
100166,86252-47744,86252,FE,17967,Bud Sizemore,Employer,47744,WA ST COUNCIL OF FIRE FIGHTERS,21-Dec,1/4/2022,17232.0,WA ST COUNCIL OF FIRE FIGHTERS,3580.54,0.0,3580.54,0.0,0.0,0.0,0.0,0.0,0.0,0.0,3580.54,47744.0,Direct,,,View report (https://accesshub.pdc.wa.gov/node/86252),Labor,Fire Service Issues,House of Representatives/Senate
100167,86255-85301,86255,FE,85300,Erin Johnson,Employer,85301,WA ST COUNCIL OF FIRE FIGHTERS,21-Dec,1/4/2022,17232.0,WA ST COUNCIL OF FIRE FIGHTERS,1000.0,0.0,1000.0,0.0,0.0,0.0,0.0,0.0,0.0,0.0,1000.0,85301.0,Direct,,,View report (https://accesshub.pdc.wa.gov/node/86255),Labor,Fire Service Issues,House of Representatives/Senate
100168,86224-18544,86224,FE,17483,THOMAS M DAVIS,Employer,18544,WA ST FARM BUREAU,21-Dec,1/4/2022,17246.0,WA ST FARM BUREAU,4000.0,0.0,4000.0,0.0,0.0,0.0,0.0,0.0,0.0,0.0,4000.0,18544.0,Direct,,,View report (https://accesshub.pdc.wa.gov/node/86224),Agriculture,All agricultural issues,"WDFW, WSDA, DOH, DOE"
100169,86268-18653,86268,FE,17520,Emerick & Bloom,Employer,18653,WA ST HOSPICE & PALLIATIVE CARE ORG,21-Dec,1/4/2022,17255.0,WA ST HOSPICE & PALLIATIVE CARE ORG,4000.0,0.0,4000.0,0.0,0.0,0.0,0.0,0.0,0.0,0.0,4000.0,18653.0,Direct,,,View report (https://accesshub.pdc.wa.gov/node/86268),Health Care,Hospice & Palliative Care,"DOH, HCA, House and Senate Health Care"
100170,86227-18883,86227,FE,17593,SEAN N GRAHAM,Employer,18883,WA ST MEDICAL ASSN,21-Dec,1/4/2022,17261.0,WA ST MEDICAL ASSN,4333.0,0.0,4333.0,0.0,0.0,0.0,0.0,0.0,0.0,0.0,4333.0,18883.0,Direct,,,View report (https://accesshub.pdc.wa.gov/node/86227),Health Care,Multiple,Multiple
100171,86250-60411,86250,FE,59611,Alex Wehinger,Employer,60411,WA ST MEDICAL ASSN,22-Jan,1/4/2022,17261.0,WA ST MEDICAL ASSN,1500.0,0.0,1500.0,0.0,0.0,0.0,0.0,0.0,0.0,0.0,1500.0,60411.0,Direct,,,View report (https://accesshub.pdc.wa.gov/node/86250),Health Care,Various,Various
100172,86227-59537,86227,FE,17593,SEAN N GRAHAM,Employer,59537,WA ST SOCIETY OF ANESTHESIOLOGISTS,21-Dec,1/4/2022,17283.0,WA ST SOCIETY OF ANESTHESIOLOGISTS,500.0,0.0,500.0,0.0,0.0,0.0,0.0,0.0,0.0,0.0,500.0,59537.0,Direct,,,View report (https://accesshub.pdc.wa.gov/node/86227),,,
100173,74634-18350,74634,FE,17430,CAPITOL CONNECTION*,Employer,18350,WRIGHT RUNSTAD ASSOC LIMITED PARTNERSHIP,21-Dec,1/4/2022,17317.0,WRIGHT RUNSTAD ASSOC LIMITED PARTNERSHIP,3000.0,0.0,3000.0,0.0,0.0,0.0,0.0,0.0,0.0,0.0,3000.0,18350.0,Direct,,,View report (https://accesshub.pdc.wa.gov/node/74634),,,
100174,86268-72224,86268,FE,17520,Emerick & Bloom,Employer,72224,Yakima Valley Memorial Hospital Association,21-Dec,1/4/2022,17321.0,Yakima Valley Memorial Hospital Association,2500.0,0.0,2500.0,0.0,0.0,0.0,0.0,0.0,0.0,0.0,2500.0,72224.0,Direct,,,View report (https://accesshub.pdc.wa.gov/node/86268),Health Care,Hospital Issues,DOH
100175,86237-25407,86237,FE,17964,SCOTT C SIGMON,Employer,25407,"bluebird bio, Inc.",21-Dec,1/4/2022,25383.0,"bluebird bio, Inc.",2000.0,0.0,2000.0,0.0,0.0,0.0,0.0,0.0,0.0,0.0,2000.0,25407.0,Direct,,,View report (https://accesshub.pdc.wa.gov/node/86237),Health Care,Rx Drug Pricing,Senator Keiser
100176,86257-61670,86257,FE,17693,Water Street Public Affairs LLC,Employer,61670,"Prime Therapeutics, LLC",21-Nov,1/4/2022,36475.0,"Prime Therapeutics, LLC",4000.0,0.0,4000.0,0.0,0.0,0.0,0.0,0.0,0.0,0.0,4000.0,61670.0,Direct,,,View report (https://accesshub.pdc.wa.gov/node/86257),Health Care,Health care benefit management; Prescription drug pricing and transperancy,Health Care & Wellness (H); Health Care & Long Term Care (S); OIC; HCA
100177,86257-59225,86257,FE,17693,Water Street Public Affairs LLC,Employer,59225,WaBA dba Clean and Prosperous WA,21-Nov,1/4/2022,50980.0,WaBA dba Clean and Prosperous WA,10000.0,0.0,10000.0,0.0,0.0,0.0,0.0,0.0,0.0,0.0,10000.0,59225.0,Direct,,,View report (https://accesshub.pdc.wa.gov/node/86257),Energy and utilities,Cap & Invest; Transportation Funding; ZEV; GHG Limits; GHG Authority,"Environment, Energy & Technology (S); Environment & Energy (H); Transportation (H & S), Department of Ecology"
100178,86257-63454,86257,FE,17693,Water Street Public Affairs LLC,Employer,63454,Yakima Basin Joint Board,21-Nov,1/4/2022,51434.0,Yakima Basin Joint Board,4000.0,0.0,4000.0,0.0,0.0,0.0,0.0,0.0,0.0,0.0,4000.0,63454.0,Direct,,,View report (https://accesshub.pdc.wa.gov/node/86257),Environmental Affairs - natural resources - parks,Water Resources,"Capital Budget (H); Ways & Means (S); Ag & Natural Resources (H); Ag Water & Natural Resources (S); Local Gov (S), Department of Ecology"
100179,86260-51752,86260,FE,35126,William Daley,Employer,51752,Just Strategy,21-Dec,1/4/2022,51552.0,Just Strategy,1000.0,0.0,1000.0,0.0,0.0,0.0,0.0,0.0,0.0,0.0,1000.0,51752.0,Direct,,,View report (https://accesshub.pdc.wa.gov/node/86260),Higher education,Community College Appropriations,"Higher Education, Appropriations, and Ways and Means Committees"
100180,86221-70793,86221,FE,69692,Fernando Mejia-Ledesma,Employer,70793,Just Strategy,21-Dec,1/4/2022,51552.0,Just Strategy,6333.0,0.0,6333.0,0.0,0.0,0.0,0.0,0.0,0.0,0.0,6333.0,70793.0,Direct,,,View report (https://accesshub.pdc.wa.gov/node/86221),Higher education,"Wraparound services, free community college, pay equity, outreach",College & Workforce Development Committee
100181,86237-74067,86237,FE,17964,SCOTT C SIGMON,Employer,74067,"PeaceHealth Networks On Demand, LLC (The Holt Company)",21-Dec,1/4/2022,66198.0,"PeaceHealth Networks On Demand, LLC",2500.0,0.0,2500.0,0.0,0.0,0.0,0.0,0.0,0.0,0.0,2500.0,74067.0,Subcontract,66187.0,The Holt Company,View report (https://accesshub.pdc.wa.gov/node/86237),,,
100182,86294-70293,86294,FE,17587,JON GOULD,Employer,70293,CHILDHAVEN,21-Dec,1/5/2022,16257.0,CHILDHAVEN,1000.0,0.0,1000.0,0.0,0.0,0.0,0.0,0.0,0.0,0.0,1000.0,70293.0,Direct,,,View report (https://accesshub.pdc.wa.gov/node/86294),Human services,multiple,"mulitiple members of the Leg, house and senate committees and Dept of Children, Youth, Families"
100183,85335-59684,85335,FE,59681,Samantha Hatzenbeler,Employer,59684,ECONOMIC OPPORTUNITY INSTITUTE,21-Nov,1/5/2022,16403.0,ECONOMIC OPPORTUNITY INSTITUTE,243.0,0.0,243.0,0.0,0.0,0.0,0.0,0.0,0.0,0.0,243.0,59684.0,Direct,,,View report (https://accesshub.pdc.wa.gov/node/85335),Health Care,"charity care, immigrant health, Cascade Care, workforce, drug affordability","HBE, Senate Democratic staff, Reps Thai, Simmons, Macri; Sens Robinson, Randall"
100184,86270-59684,86270,FE,59681,Samantha Hatzenbeler,Employer,59684,ECONOMIC OPPORTUNITY INSTITUTE,21-Dec,1/5/2022,16403.0,ECONOMIC OPPORTUNITY INSTITUTE,510.0,0.0,510.0,0.0,0.0,0.0,0.0,0.0,0.0,0.0,510.0,59684.0,Direct,,,View report (https://accesshub.pdc.wa.gov/node/86270),Health Care,Immigrant health equity; child care worker health care; balanced billing; Cascade Care,Senate Democratic staff; Health Benefit Exchange; Rep. Thai; OIC
100185,86273-82338,86273,FE,47356,Streuli Public Affairs,Employer,82338,Google LLC and its Affiliates,21-Dec,1/5/2022,16475.0,Google LLC and its Affiliates,2500.0,-1250.0,1250.0,0.0,0.0,0.0,0.0,0.0,0.0,0.0,1250.0,82338.0,Direct,,,View report (https://accesshub.pdc.wa.gov/node/86273),Technology,Cloud Technology,Various Legislative Policy and Fiscal Committees and State Agencies
100186,86273-49283,86273,FE,47356,Streuli Public Affairs,Employer,49283,IRON WORKERS DIST CNCL OF THE PNW,21-Dec,1/5/2022,16547.0,IRON WORKERS DIST CNCL OF THE PNW,2500.0,0.0,2500.0,0.0,0.0,0.0,0.0,0.0,0.0,0.0,2500.0,49283.0,Direct,,,View report (https://accesshub.pdc.wa.gov/node/86273),Transportation,Construction,Various Legislative Policy and Fiscal Committees and State Agencies
100188,86302-35793,86302,FE,35792,Irene Plenefisch,Employer,35793,MICROSOFT CORP,21-Dec,1/5/2022,16636.0,MICROSOFT CORP,3000.0,0.0,3000.0,184.74,116.36,0.0,0.0,0.0,0.0,301.1,3301.1,35793.0,Direct,,,View report (https://accesshub.pdc.wa.gov/node/86302),Technology,Data Privacy and facial recognition technology (SB5062),"Senate Environment, Energy and Technology, House Civil Rights & Juducuart"
100189,86273-83574,86273,FE,47356,Streuli Public Affairs,Employer,83574,PACIFIC NORTHWEST REGIONAL COUNCIL OF CARPENTERS,21-Dec,1/5/2022,16754.0,PACIFIC NORTHWEST REGIONAL COUNCIL OF CARPENTERS,5000.0,0.0,5000.0,0.0,0.0,0.0,0.0,0.0,0.0,0.0,5000.0,83574.0,Direct,,,View report (https://accesshub.pdc.wa.gov/node/86273),,,
100190,86026-75082,86026,FE,75081,Yvette Maganya,Employer,75082,PLANNED PARENTHOOD ALLIANCE ADVOCATES,21-Dec,1/5/2022,16789.0,PLANNED PARENTHOOD ALLIANCE ADVOCATES,460.87,0.0,460.87,0.0,0.0,0.0,0.0,0.0,0.0,0.0,460.87,75082.0,Direct,,,View report (https://accesshub.pdc.wa.gov/node/86026),Health Care,Sexual and Reproductive Health,Members of the Legislature
100193,86273-47358,86273,FE,47356,Streuli Public Affairs,Employer,47358,WA CATTLEMEN'S ASSN,21-Dec,1/5/2022,17072.0,WA CATTLEMEN'S ASSN,2000.0,0.0,2000.0,0.0,0.0,0.0,0.0,0.0,0.0,0.0,2000.0,47358.0,Direct,,,View report (https://accesshub.pdc.wa.gov/node/86273),Agriculture,Beef,Various Legislative Policy and Fiscal Committees and State Agencies
100194,86273-69327,86273,FE,47356,Streuli Public Affairs,Employer,69327,Northwest Aquaculture Alliance,21-Dec,1/5/2022,17115.0,Northwest Aquaculture Alliance,1500.0,0.0,1500.0,0.0,0.0,0.0,0.0,0.0,0.0,0.0,1500.0,69327.0,Direct,,,View report (https://accesshub.pdc.wa.gov/node/86273),Agriculture,Aquaculture,Various Legislative Policy and Fiscal Committees and State Agencies
100196,86273-68870,86273,FE,47356,Streuli Public Affairs,Employer,68870,WA ST POTATO COMMISSION,21-Dec,1/5/2022,17273.0,WA ST POTATO COMMISSION,4150.0,0.0,4150.0,0.0,0.0,0.0,0.0,0.0,0.0,0.0,4150.0,68870.0,Direct,,,View report (https://accesshub.pdc.wa.gov/node/86273),Agriculture,Agriculture,Various Legislative Policy and Fiscal Committees And State Agencies
100197,86273-68871,86273,FE,47356,Streuli Public Affairs,Employer,68871,WA POTATO & ONION ASSN,21-Dec,1/5/2022,23611.0,WA POTATO & ONION ASSN,850.0,0.0,850.0,0.0,0.0,0.0,0.0,0.0,0.0,0.0,850.0,68871.0,Direct,,,View report (https://accesshub.pdc.wa.gov/node/86273),Agriculture,Agriculture,Various Legislative Policy and Fiscal Committees and State Agencies
100198,86273-61599,86273,FE,47356,Streuli Public Affairs,Employer,61599,City of Sedro-Woolley,21-Dec,1/5/2022,37314.0,City of Sedro-Woolley,2000.0,0.0,2000.0,0.0,0.0,0.0,0.0,0.0,0.0,0.0,2000.0,61599.0,Direct,,,View report (https://accesshub.pdc.wa.gov/node/86273),Local government,Project Construction,Various Legislative Policy and Fiscal Committees and State Agencies
100199,82678-53258,82678,FE,53257,Dan Fazio,Employer,53258,wafla,21-Dec,1/5/2022,52074.0,wafla,500.0,0.0,500.0,0.0,0.0,10000.0,0.0,0.0,0.0,10000.0,10500.0,53258.0,Direct,,,View report (https://accesshub.pdc.wa.gov/node/82678),Labor,Agricultural issues,"As the director of a non-profit association of employers, Mr. Fazio receives calls from Legislators and works with Agency staff on issues impacting seasonal agricultural employment, particularly the federal H-2A program."
100200,86273-52519,86273,FE,47356,Streuli Public Affairs,Employer,52519,Northwest Resources II Inc,21-Dec,1/5/2022,52518.0,Northwest Resources II Inc,500.0,0.0,500.0,0.0,0.0,0.0,0.0,0.0,0.0,0.0,500.0,52519.0,Direct,,,View report (https://accesshub.pdc.wa.gov/node/86273),Health Care,SUD Providers,Various Legislative Policy and Fiscal Committees and State Agencies
100202,86336-18970,86336,FE,17642,JAN HIMEBAUGH,Employer,18970,BUILDING INDUSTRY ASSN OF WA,21-Dec,1/6/2022,16215.0,BUILDING INDUSTRY ASSN OF WA,500.0,0.0,500.0,0.0,0.0,0.0,0.0,0.0,0.0,0.0,500.0,18970.0,Direct,,,View report (https://accesshub.pdc.wa.gov/node/86336),State government,"Natural Gas, Long Term Care Tax",Legislature
100204,86337-71723,86337,FE,17469,JOSIE CUMMINGS,Employer,71723,BUILDING INDUSTRY ASSN OF WA,21-Dec,1/6/2022,16215.0,BUILDING INDUSTRY ASSN OF WA,500.0,0.0,500.0,0.0,0.0,0.0,0.0,0.0,0.0,0.0,500.0,71723.0,Direct,,,View report (https://accesshub.pdc.wa.gov/node/86337),Environmental Affairs - natural resources - parks,Water and Workforce Development,Legislature State Board of Education and OSPI
100206,86329-85187,86329,FE,85186,Galanda Broadman PLLC,Employer,85187,CHEHALIS CONFEDERATED TRIBES,21-Dec,1/6/2022,16253.0,CHEHALIS CONFEDERATED TRIBES,6077.5,0.0,6077.5,0.0,0.0,0.0,0.0,0.0,0.0,0.0,6077.5,85187.0,Direct,,,View report (https://accesshub.pdc.wa.gov/node/86329),Environmental Affairs - natural resources - parks,Riparian Bill,Governors Office of Indian Affairs
100208,86359-18366,86359,FE,17432,CAPITOL STRATEGIES CONSULTING*,Employer,18366,PACIFICORP,21-Dec,1/6/2022,16746.0,PACIFICORP,7325.0,0.0,7325.0,0.0,0.0,0.0,0.0,0.0,0.0,0.0,7325.0,18366.0,Direct,,,View report (https://accesshub.pdc.wa.gov/node/86359),Energy and utilities,Energy,"Environment & Energy Committee, Environment, Energy & Technology Committee"
100209,86326-50642,86326,FE,50641,Karen Lang,Employer,50642,PEMCO Insurance,21-Dec,1/6/2022,16770.0,PEMCO Insurance,500.0,0.0,500.0,0.0,0.0,0.0,0.0,0.0,0.0,0.0,500.0,50642.0,Direct,,,View report (https://accesshub.pdc.wa.gov/node/86326),Business and consumer affairs,Insurance,"CPB, BFT"
100210,86359-18367,86359,FE,17432,CAPITOL STRATEGIES CONSULTING*,Employer,18367,PORTLAND GENERAL ELECTRIC,21-Dec,1/6/2022,16798.0,PORTLAND GENERAL ELECTRIC,2000.0,0.0,2000.0,0.0,0.0,0.0,0.0,0.0,0.0,0.0,2000.0,18367.0,Direct,,,View report (https://accesshub.pdc.wa.gov/node/86359),Fiscal,Taxes,Finance Committee and Ways and Means Committee
100211,86324-19451,86324,FE,17887,SVEN PETERSON,Employer,19451,PREMERA BLUE CROSS,21-Dec,1/6/2022,16812.0,PREMERA BLUE CROSS,750.0,0.0,750.0,0.0,0.0,0.0,0.0,0.0,0.0,0.0,750.0,19451.0,Direct,,,View report (https://accesshub.pdc.wa.gov/node/86324),Health Care,Misc Regulatory Issues,Office of the Insurance Commissioner
100212,86323-45767,86323,FE,17998,GARY STRANNIGAN,Employer,45767,PREMERA BLUE CROSS,21-Dec,1/6/2022,16812.0,PREMERA BLUE CROSS,2500.0,0.0,2500.0,0.0,0.0,0.0,0.0,0.0,0.0,0.0,2500.0,45767.0,Direct,,,View report (https://accesshub.pdc.wa.gov/node/86323),Health Care,Misc HC Legislative Issues,"WA State Legislature, OIC"
100214,86359-18368,86359,FE,17432,CAPITOL STRATEGIES CONSULTING*,Employer,18368,SHEET METAL & AIR CONDITION CONTRACTORS WEST WA,21-Dec,1/6/2022,16909.0,SHEET METAL & AIR CONDITION CONTRACTORS WEST WA,5563.0,0.0,5563.0,0.0,0.0,0.0,0.0,0.0,0.0,0.0,5563.0,18368.0,Direct,,,View report (https://accesshub.pdc.wa.gov/node/86359),Labor,Employment regulation,Labor committees and Labor and Industries Dept.
100215,86359-18369,86359,FE,17432,CAPITOL STRATEGIES CONSULTING*,Employer,18369,SPOKANE TRANSIT AUTHORITY,21-Dec,1/6/2022,16943.0,SPOKANE TRANSIT AUTHORITY,5000.0,0.0,5000.0,0.0,0.0,0.0,0.0,0.0,0.0,0.0,5000.0,18369.0,Direct,,,View report (https://accesshub.pdc.wa.gov/node/86359),Transportation,Transportation issues,Transportation committees
100216,86341-39464,86341,FE,39463,Rene Sunde,Employer,39464,WA RETAIL ASSN,21-Dec,1/6/2022,17180.0,WA RETAIL ASSN,1366.0,0.0,1366.0,0.0,0.0,0.0,0.0,0.0,0.0,0.0,1366.0,39464.0,Direct,,,View report (https://accesshub.pdc.wa.gov/node/86341),Labor,Retail Industry Mask Requirements & Vaccine Mandates,Governor Inslee
100217,86359-18370,86359,FE,17432,CAPITOL STRATEGIES CONSULTING*,Employer,18370,WA WATER POLICY ALLIANCE,21-Dec,1/6/2022,17212.0,WA WATER POLICY ALLIANCE,2236.0,0.0,2236.0,0.0,0.0,0.0,0.0,0.0,0.0,0.0,2236.0,18370.0,Direct,,,View report (https://accesshub.pdc.wa.gov/node/86359),Agriculture,Water rights,"Agriculture, Water, Natural Resources & Parks, Rural Development, Agriculture & Natural Resources Committees and Department of Ecology"
100218,86368-50023,86368,FE,49453,"Samantha Slaughter, PsyD",Employer,50023,WA ST PSYCHOLOGICAL ASSN,21-Dec,1/6/2022,17269.0,WA ST PSYCHOLOGICAL ASSN,1625.0,0.0,1625.0,16.55,0.0,0.0,0.0,0.0,0.0,16.55,1641.55,50023.0,Direct,,,View report (https://accesshub.pdc.wa.gov/node/86368),Health Care,Licensing WACs,Examining Board of Psychology
100220,86374-70149,86374,FE,17935,Nancy Sapiro,Employer,70149,AAUW of Washington State,21-Dec,1/7/2022,16091.0,AAUW of Washington State,1500.0,0.0,1500.0,0.0,0.0,0.0,0.0,0.0,0.0,0.0,1500.0,70149.0,Direct,,,View report (https://accesshub.pdc.wa.gov/node/86374),Health Care,health care,Members of House and Senate
100221,86374-70151,86374,FE,17935,Nancy Sapiro,Employer,70151,AMERICAN CONGRESS OF OBSTETRICIANS AND GYNECOLOGISTS,21-Dec,1/7/2022,16099.0,AMERICAN CONGRESS OF OBSTETRICIANS AND GYNECOLOGISTS,1500.0,0.0,1500.0,0.0,0.0,0.0,0.0,0.0,0.0,0.0,1500.0,70151.0,Direct,,,View report (https://accesshub.pdc.wa.gov/node/86374),Health Care,Health Care,"Members of House, Senate"
100222,86398-50372,86398,FE,50371,Tom Wolf,Employer,50372,BP AMERICA INC,21-Dec,1/7/2022,16139.0,BP AMERICA INC,2200.0,0.0,2200.0,0.0,0.0,0.0,0.0,0.0,0.0,0.0,2200.0,50372.0,Direct,,,View report (https://accesshub.pdc.wa.gov/node/86398),Energy and utilities,Climate Commitment Act,"Department of Ecology, Senator Carlyle, Rep. Fitzgibbon"
100224,86374-70415,86374,FE,17935,Nancy Sapiro,Employer,70415,CITY OF SEATTLE,21-Dec,1/7/2022,16311.0,CITY OF SEATTLE,5200.0,0.0,5200.0,0.0,0.0,0.0,0.0,0.0,0.0,0.0,5200.0,70415.0,Direct,,,View report (https://accesshub.pdc.wa.gov/node/86374),Local government,Local Government,Members House and Senate
100226,86414-19578,86414,FE,17944,MICHAEL V SCHWISOW,Employer,19578,COLUMBIA BASIN DEVELOPMENT LEAGUE,21-Dec,1/7/2022,16335.0,COLUMBIA BASIN DEVELOPMENT LEAGUE,4166.66,0.0,4166.66,0.0,0.0,0.0,0.0,0.0,0.0,0.0,4166.66,19578.0,Direct,,,View report (https://accesshub.pdc.wa.gov/node/86414),Environmental Affairs - natural resources - parks,Ag water infrastructure,"Senate Ag, Water, Natural Resources & Parks, Senate Ways & Means"
100227,86374-23620,86374,FE,17935,Nancy Sapiro,Employer,23620,End of Life Washington,21-Dec,1/7/2022,16352.0,End of Life Washington,2000.0,0.0,2000.0,0.0,0.0,0.0,0.0,0.0,0.0,0.0,2000.0,23620.0,Direct,,,View report (https://accesshub.pdc.wa.gov/node/86374),Health Care,End of Life Care,"Members House and Senate and OIC, HBE, HCA, AG's Office"
100228,86374-70148,86374,FE,17935,Nancy Sapiro,Employer,70148,CEDAR RIVER CLINICS,21-Dec,1/7/2022,16439.0,CEDAR RIVER CLINICS,400.0,0.0,400.0,0.0,0.0,0.0,0.0,0.0,0.0,0.0,400.0,70148.0,Direct,,,View report (https://accesshub.pdc.wa.gov/node/86374),Health Care,Health Care,"Members of Senate and House AG's Office, OIC, HBE, DoH"
100229,86393-68786,86393,FE,68785,Christine Reid,Employer,68786,IBEW LOCAL 77,21-Dec,1/7/2022,16516.0,IBEW LOCAL 77,5500.0,0.0,5500.0,0.0,0.0,0.0,0.0,0.0,0.0,0.0,5500.0,68786.0,Direct,,,View report (https://accesshub.pdc.wa.gov/node/86393),Energy and utilities,natural gas,environment and energy
100230,86373-19730,86373,FE,18011,JOSHUA J SWANSON,Employer,19730,IUOE LOCAL 302,21-Dec,1/7/2022,16552.0,IUOE LOCAL 302,7417.27,0.0,7417.27,0.0,0.0,0.0,0.0,0.0,125.0,125.0,7542.27,19730.0,Direct,,,View report (https://accesshub.pdc.wa.gov/node/86373),Labor,"Public Safety,Prevailing Wage,Worker Comp,UI,Safety and Health,Transportation Capital Budget, Apprenticeship,Supplemental Budget","Labor & Industries, Employment Security, Department of Transportation, House Appropriations, Senate Labor and Commerce, House Labor and Workforce Development, Senate and House Transportation, Senate Ways and Means, Senate and House Capital Budget"
100231,86374-19568,86374,FE,17935,Nancy Sapiro,Employer,19568,JEWISH FEDERATION OF GREATER SEATTLE,21-Dec,1/7/2022,16559.0,JEWISH FEDERATION OF GREATER SEATTLE,1000.0,0.0,1000.0,0.0,0.0,0.0,0.0,0.0,0.0,0.0,1000.0,19568.0,Direct,,,View report (https://accesshub.pdc.wa.gov/node/86374),Law and justice,Hate Crimes,Members of House and Senate
100232,86374-19569,86374,FE,17935,Nancy Sapiro,Employer,19569,League of Women Voters Washington,21-Dec,1/7/2022,16590.0,League of Women Voters Washington,500.0,0.0,500.0,0.0,0.0,0.0,0.0,0.0,0.0,0.0,500.0,19569.0,Direct,,,View report (https://accesshub.pdc.wa.gov/node/86374),,,
100233,86415-72174,86415,FE,72172,Janet Kelly,Employer,72174,PUGET SOUND ENERGY INC,21-Dec,1/7/2022,16828.0,PUGET SOUND ENERGY INC,14000.0,0.0,14000.0,0.0,0.0,0.0,0.0,0.0,0.0,0.0,14000.0,72174.0,Direct,,,View report (https://accesshub.pdc.wa.gov/node/86415),Energy and utilities,Energy and climate policy,"State legislature (House and Senate Energy Committees); Governor's Office; Dept. of Commerce, Ecology"
100234,86406-70965,86406,FE,70964,Natalie Hester,Employer,70965,WA CHARTERS ACTION,21-Dec,1/7/2022,17071.0,WA CHARTERS ACTION,1364.9,0.0,1364.9,0.0,0.0,0.0,0.0,0.0,0.0,0.0,1364.9,70965.0,Direct,,,View report (https://accesshub.pdc.wa.gov/node/86406),Education,Various,Various
100235,86374-70154,86374,FE,17935,Nancy Sapiro,Employer,70154,WA EMPLOYMENT LAWYERS ASSN,21-Dec,1/7/2022,17105.0,WA EMPLOYMENT LAWYERS ASSN,1800.0,0.0,1800.0,0.0,0.0,0.0,0.0,0.0,0.0,0.0,1800.0,70154.0,Direct,,,View report (https://accesshub.pdc.wa.gov/node/86374),Labor,nondisclosure agreements,Members of House and Senate Labor Committees
100237,86390-19043,86390,FE,17682,MARK J JOHNSON,Employer,19043,WA RETAIL ASSN,21-Dec,1/7/2022,17180.0,WA RETAIL ASSN,12250.0,0.0,12250.0,0.0,0.0,0.0,0.0,0.0,0.0,0.0,12250.0,19043.0,Direct,,,View report (https://accesshub.pdc.wa.gov/node/86390),Labor,Unemployment insurance,Employment Security Department
100238,86403-19823,86403,FE,18048,LAURIE M VALERIANO,Employer,19823,TOXIC-FREE FUTURE,21-Dec,1/7/2022,17201.0,TOXIC-FREE FUTURE,721.6,0.0,721.6,0.0,0.0,0.0,0.0,0.0,0.0,0.0,721.6,19823.0,Direct,,,View report (https://accesshub.pdc.wa.gov/node/86403),Environmental Affairs - natural resources - parks,Toxics in products,The Environment Committees and Department of Ecology
100239,86414-19579,86414,FE,17944,MICHAEL V SCHWISOW,Employer,19579,Washington Winegrowers Association,21-Dec,1/7/2022,17210.0,Washington Winegrowers Association,2000.0,0.0,2000.0,0.0,0.0,0.0,0.0,0.0,0.0,0.0,2000.0,19579.0,Direct,,,View report (https://accesshub.pdc.wa.gov/node/86414),Labor,Ag employee overtime,Department of Labor & Industries
100241,86414-19580,86414,FE,17944,MICHAEL V SCHWISOW,Employer,19580,WA ST WATER RESOURCES ASSN,21-Dec,1/7/2022,17292.0,WA ST WATER RESOURCES ASSN,5060.33,0.0,5060.33,0.0,0.0,0.0,0.0,0.0,0.0,0.0,5060.33,19580.0,Direct,,,View report (https://accesshub.pdc.wa.gov/node/86414),,,
100242,86410-73643,86410,FE,73642,Jeff Johnson,Employer,73643,REGIONAL WATER COOPERATIVE OF PIERCE CO,21-Dec,1/7/2022,17293.0,REGIONAL WATER COOPERATIVE OF PIERCE CO,3200.0,0.0,3200.0,100.0,0.0,0.0,0.0,0.0,0.0,100.0,3300.0,73643.0,Direct,,,View report (https://accesshub.pdc.wa.gov/node/86410),Energy and utilities,"utility customer assistance programs, GMA, water rights","Dept of Commerce, Dept of Health, Dept of Ecology, Dept of Labor & Industry"
100243,86380-50339,86380,FE,50337,Dan Bertolet,Employer,50339,Sightline Institute,21-Dec,1/7/2022,37788.0,Sightline Institute,996.84,0.0,996.84,0.0,0.0,0.0,0.0,0.0,0.0,0.0,996.84,50339.0,Direct,,,View report (https://accesshub.pdc.wa.gov/node/86380),Environmental Affairs - natural resources - parks,"HB 1711, HB 1337, HB 1782, plus other bills not submitted yet","Reps Walen, Bateman, Berg, Gregerson, Pollet, Senn, Shewmake; Sens Das, Liias, Salomon; Governor's staffer John Flanagan"
100245,86374-84194,86374,FE,17935,Nancy Sapiro,Employer,84194,Washington State Alliance for Retired Americans (EMILY MURPHY STRATEGIES LLC*),21-Dec,1/7/2022,83122.0,Washington State Alliance for Retired Americans,650.0,0.0,650.0,0.0,0.0,0.0,0.0,0.0,0.0,0.0,650.0,84194.0,Subcontract,17521.0,EMILY MURPHY STRATEGIES LLC*,View report (https://accesshub.pdc.wa.gov/node/86374),,,
100246,86248-18283,86248,FE,17398,BOSWELL CONSULTING*,Employer,18283,AMERICAN INSTITUTE OF ARCHITECTS WA COUNCIL,21-Dec,1/8/2022,16076.0,AMERICAN INSTITUTE OF ARCHITECTS WA COUNCIL,1750.0,-521.43,1228.57,0.0,0.0,0.0,0.0,0.0,0.0,0.0,1228.57,18283.0,Direct,,,View report (https://accesshub.pdc.wa.gov/node/86248),Business and consumer affairs,various,various
100247,86235-48957,86235,FE,48956,Brooke Davies,Employer,48957,AMERICAN INSTITUTE OF ARCHITECTS WA COUNCIL (BOSWELL CONSULTING*),21-Dec,1/8/2022,16076.0,AMERICAN INSTITUTE OF ARCHITECTS WA COUNCIL,321.43,0.0,321.43,0.0,0.0,0.0,0.0,0.0,0.0,0.0,321.43,48957.0,Subcontract,17398.0,BOSWELL CONSULTING*,View report (https://accesshub.pdc.wa.gov/node/86235),,,
100248,80954-18169,80954,FE,17348,CHRISTOPHERSEN INC*,Employer,18169,ASSN OF WA SPIRITS & WINE DISTRIBUTORS,21-Jun,1/8/2022,16172.0,ASSN OF WA SPIRITS & WINE DISTRIBUTORS,6250.0,-331.81,5918.19,0.0,0.0,0.0,0.0,0.0,0.0,0.0,5918.19,18169.0,Direct,,,View report (https://accesshub.pdc.wa.gov/node/80954),Business and consumer affairs,various,various
100249,86235-49044,86235,FE,48956,Brooke Davies,Employer,49044,ASSN OF WA SPIRITS & WINE DISTRIBUTORS (CHRISTOPHERSEN INC*),21-Dec,1/8/2022,16172.0,ASSN OF WA SPIRITS & WINE DISTRIBUTORS,331.81,0.0,331.81,0.0,0.0,0.0,0.0,0.0,0.0,0.0,331.81,49044.0,Subcontract,17348.0,CHRISTOPHERSEN INC*,View report (https://accesshub.pdc.wa.gov/node/86235),,,
100250,84277-18890,84277,FE,17597,PIERCE CONSULTING SVCS LLC*,Employer,18890,BRISTOL-MYERS SQUIBB CO,21-Oct,1/8/2022,16208.0,BRISTOL-MYERS SQUIBB CO,2500.0,-317.66,2182.34,0.0,0.0,3000.0,0.0,0.0,0.0,3000.0,5182.34,18890.0,Direct,,,View report (https://accesshub.pdc.wa.gov/node/84277),Health Care,various,various
100251,85598-18890,85598,FE,17597,PIERCE CONSULTING SVCS LLC*,Employer,18890,BRISTOL-MYERS SQUIBB CO,21-Nov,1/8/2022,16208.0,BRISTOL-MYERS SQUIBB CO,2500.0,-317.66,2182.34,0.0,0.0,5500.0,0.0,0.0,0.0,5500.0,7682.34,18890.0,Direct,,,View report (https://accesshub.pdc.wa.gov/node/85598),Health Care,various,various
100252,86321-18890,86321,FE,17597,PIERCE CONSULTING SVCS LLC*,Employer,18890,BRISTOL-MYERS SQUIBB CO,21-Dec,1/8/2022,16208.0,BRISTOL-MYERS SQUIBB CO,2500.0,-317.66,2182.34,0.0,0.0,9500.0,0.0,0.0,0.0,9500.0,11682.34,18890.0,Direct,,,View report (https://accesshub.pdc.wa.gov/node/86321),Health Care,various,various
100253,80954-18172,80954,FE,17348,CHRISTOPHERSEN INC*,Employer,18172,THE COLLEGE BOARD,21-Jun,1/8/2022,16334.0,THE COLLEGE BOARD,5000.0,-331.81,4668.19,0.0,0.0,0.0,0.0,0.0,0.0,0.0,4668.19,18172.0,Direct,,,View report (https://accesshub.pdc.wa.gov/node/80954),Education,various,various
100254,86235-49107,86235,FE,48956,Brooke Davies,Employer,49107,THE COLLEGE BOARD (CHRISTOPHERSEN INC*),21-Dec,1/8/2022,16334.0,THE COLLEGE BOARD,331.81,0.0,331.81,0.0,0.0,0.0,0.0,0.0,0.0,0.0,331.81,49107.0,Subcontract,17348.0,CHRISTOPHERSEN INC*,View report (https://accesshub.pdc.wa.gov/node/86235),,,
100255,86439-26719,86439,FE,17771,MARIE SULLIVAN PUBLIC AFFAIRS CORP.,Employer,26719,CONFEDERATED TRIBES OF THE UMATILLA INDIAN RESERVATION,21-Dec,1/8/2022,16356.0,CONFEDERATED TRIBES OF THE UMATILLA INDIAN RESERVATION,4000.0,0.0,4000.0,567.0,0.0,0.0,0.0,0.0,0.0,567.0,4567.0,26719.0,Direct,,,View report (https://accesshub.pdc.wa.gov/node/86439),Environmental Affairs - natural resources - parks,"MMIW, GMA, follow up on issues from 2021 session, Gov proposals","Governor's office, AGO, 16th district, water legislators, Ecology"
100256,84277-59743,84277,FE,17597,PIERCE CONSULTING SVCS LLC*,Employer,59743,DELOITTE CONSULTING LLP,21-Oct,1/8/2022,16384.0,DELOITTE CONSULTING LLP,2500.0,0.0,2500.0,0.0,0.0,500.0,0.0,0.0,0.0,500.0,3000.0,59743.0,Direct,,,View report (https://accesshub.pdc.wa.gov/node/84277),Fiscal,various,various
100257,85598-59743,85598,FE,17597,PIERCE CONSULTING SVCS LLC*,Employer,59743,DELOITTE CONSULTING LLP,21-Nov,1/8/2022,16384.0,DELOITTE CONSULTING LLP,3750.0,0.0,3750.0,0.0,0.0,500.0,0.0,0.0,0.0,500.0,4250.0,59743.0,Direct,,,View report (https://accesshub.pdc.wa.gov/node/85598),Fiscal,various,various
100258,86321-59743,86321,FE,17597,PIERCE CONSULTING SVCS LLC*,Employer,59743,DELOITTE CONSULTING LLP,21-Dec,1/8/2022,16384.0,DELOITTE CONSULTING LLP,3750.0,0.0,3750.0,0.0,0.0,0.0,0.0,0.0,0.0,0.0,3750.0,59743.0,Direct,,,View report (https://accesshub.pdc.wa.gov/node/86321),Fiscal,various,various
100259,86439-19186,86439,FE,17771,MARIE SULLIVAN PUBLIC AFFAIRS CORP.,Employer,19186,EASTERN WA QUALITY SCHOOLS COALITION,21-Dec,1/8/2022,16400.0,EASTERN WA QUALITY SCHOOLS COALITION,5640.0,0.0,5640.0,0.0,0.0,0.0,0.0,0.0,0.0,0.0,5640.0,19186.0,Direct,,,View report (https://accesshub.pdc.wa.gov/node/86439),Education,"shortages in education system, coping with COVID","House and Senate budget, education committees, coalition member legislative district legislators"
100260,84277-18893,84277,FE,17597,PIERCE CONSULTING SVCS LLC*,Employer,18893,RUSSELL INVESTMENT GROUP,21-Oct,1/8/2022,16456.0,RUSSELL INVESTMENT GROUP,3000.0,-381.19,2618.81,0.0,0.0,0.0,0.0,0.0,0.0,0.0,2618.81,18893.0,Direct,,,View report (https://accesshub.pdc.wa.gov/node/84277),Financial institutions and insurance,various,various
100261,85598-18893,85598,FE,17597,PIERCE CONSULTING SVCS LLC*,Employer,18893,RUSSELL INVESTMENT GROUP,21-Nov,1/8/2022,16456.0,RUSSELL INVESTMENT GROUP,3000.0,-381.19,2618.81,53.38,70.06,0.0,0.0,0.0,0.0,123.44,2742.25,18893.0,Direct,,,View report (https://accesshub.pdc.wa.gov/node/85598),Financial institutions and insurance,various,various
100262,86321-18893,86321,FE,17597,PIERCE CONSULTING SVCS LLC*,Employer,18893,RUSSELL INVESTMENT GROUP,21-Dec,1/8/2022,16456.0,RUSSELL INVESTMENT GROUP,3000.0,-381.19,2618.81,0.0,0.0,0.0,0.0,0.0,0.0,0.0,2618.81,18893.0,Direct,,,View report (https://accesshub.pdc.wa.gov/node/86321),Financial institutions and insurance,various,various
100263,86231-19719,86231,FE,18003,ERIK STROM,Employer,19719,RUSSELL INVESTMENT GROUP,21-Dec,1/8/2022,16456.0,RUSSELL INVESTMENT GROUP,5000.0,0.0,5000.0,0.0,0.0,0.0,0.0,0.0,0.0,0.0,5000.0,19719.0,Direct,,,View report (https://accesshub.pdc.wa.gov/node/86231),State government,various,various
100264,86248-18285,86248,FE,17398,BOSWELL CONSULTING*,Employer,18285,GREATER SEATTLE CHAMBER OF COMMERCE,21-Dec,1/8/2022,16483.0,GREATER SEATTLE CHAMBER OF COMMERCE,6250.0,-521.43,5728.57,0.0,0.0,0.0,0.0,0.0,0.0,0.0,5728.57,18285.0,Direct,,,View report (https://accesshub.pdc.wa.gov/node/86248),Local government,various,various
100265,86235-48959,86235,FE,48956,Brooke Davies,Employer,48959,GREATER SEATTLE CHAMBER OF COMMERCE (BOSWELL CONSULTING*),21-Dec,1/8/2022,16483.0,GREATER SEATTLE CHAMBER OF COMMERCE,321.43,0.0,321.43,0.0,0.0,0.0,0.0,0.0,0.0,0.0,321.43,48959.0,Subcontract,17398.0,BOSWELL CONSULTING*,View report (https://accesshub.pdc.wa.gov/node/86235),,,
100266,80954-26030,80954,FE,17348,CHRISTOPHERSEN INC*,Employer,26030,HAMPTON TREE FARMS LLC,21-Jun,1/8/2022,16490.0,HAMPTON TREE FARMS LLC,4000.0,-331.81,3668.19,0.0,0.0,0.0,0.0,0.0,0.0,0.0,3668.19,26030.0,Direct,,,View report (https://accesshub.pdc.wa.gov/node/80954),Business and consumer affairs,various,various
100267,86235-49106,86235,FE,48956,Brooke Davies,Employer,49106,HAMPTON TREE FARMS LLC (CHRISTOPHERSEN INC*),21-Dec,1/8/2022,16490.0,HAMPTON TREE FARMS LLC,331.81,0.0,331.81,0.0,0.0,0.0,0.0,0.0,0.0,0.0,331.81,49106.0,Subcontract,17348.0,CHRISTOPHERSEN INC*,View report (https://accesshub.pdc.wa.gov/node/86235),,,
100268,84277-83326,84277,FE,17597,PIERCE CONSULTING SVCS LLC*,Employer,83326,HEALTHCARE DISTRIBUTION ALLIANCE c/o MultiState Associates Inc,21-Oct,1/8/2022,16496.0,HEALTHCARE DISTRIBUTION ALLIANCE c/o MultiState Associates Inc,2750.0,-349.43,2400.57,0.0,0.0,0.0,0.0,0.0,0.0,0.0,2400.57,83326.0,Direct,,,View report (https://accesshub.pdc.wa.gov/node/84277),Health Care,various,various
100269,85598-83326,85598,FE,17597,PIERCE CONSULTING SVCS LLC*,Employer,83326,HEALTHCARE DISTRIBUTION ALLIANCE c/o MultiState Associates Inc,21-Nov,1/8/2022,16496.0,HEALTHCARE DISTRIBUTION ALLIANCE c/o MultiState Associates Inc,2750.0,-349.43,2400.57,0.0,0.0,0.0,0.0,0.0,0.0,0.0,2400.57,83326.0,Direct,,,View report (https://accesshub.pdc.wa.gov/node/85598),Health Care,various,various
100270,86321-83326,86321,FE,17597,PIERCE CONSULTING SVCS LLC*,Employer,83326,HEALTHCARE DISTRIBUTION ALLIANCE c/o MultiState Associates Inc,21-Dec,1/8/2022,16496.0,HEALTHCARE DISTRIBUTION ALLIANCE c/o MultiState Associates Inc,2750.0,-349.43,2400.57,0.0,0.0,0.0,0.0,0.0,0.0,0.0,2400.57,83326.0,Direct,,,View report (https://accesshub.pdc.wa.gov/node/86321),Health Care,various,various
100271,80954-18174,80954,FE,17348,CHRISTOPHERSEN INC*,Employer,18174,MERCK SHARP & DOHME LLC & AFFILIATES,21-Jun,1/8/2022,16632.0,MERCK SHARP & DOHME LLC & AFFILIATES,4583.33,-331.81,4251.52,0.0,0.0,0.0,0.0,0.0,0.0,0.0,4251.52,18174.0,Direct,,,View report (https://accesshub.pdc.wa.gov/node/80954),Business and consumer affairs,various,various
100272,86235-49110,86235,FE,48956,Brooke Davies,Employer,49110,MERCK SHARP & DOHME LLC & AFFILIATES (CHRISTOPHERSEN INC*),21-Dec,1/8/2022,16632.0,MERCK SHARP & DOHME LLC & AFFILIATES,331.81,0.0,331.81,0.0,0.0,0.0,0.0,0.0,0.0,0.0,331.81,49110.0,Subcontract,17348.0,CHRISTOPHERSEN INC*,View report (https://accesshub.pdc.wa.gov/node/86235),,,
100273,84277-18894,84277,FE,17597,PIERCE CONSULTING SVCS LLC*,Employer,18894,MICROSOFT CORP,21-Oct,1/8/2022,16636.0,MICROSOFT CORP,8190.0,0.0,8190.0,270.0,0.0,0.0,0.0,0.0,0.0,270.0,8460.0,18894.0,Direct,,,View report (https://accesshub.pdc.wa.gov/node/84277),Technology,various,various
100274,85598-18894,85598,FE,17597,PIERCE CONSULTING SVCS LLC*,Employer,18894,MICROSOFT CORP,21-Nov,1/8/2022,16636.0,MICROSOFT CORP,8190.0,0.0,8190.0,270.0,70.06,0.0,0.0,0.0,0.0,340.06,8530.06,18894.0,Direct,,,View report (https://accesshub.pdc.wa.gov/node/85598),Technology,various,various
100275,86321-18894,86321,FE,17597,PIERCE CONSULTING SVCS LLC*,Employer,18894,MICROSOFT CORP,21-Dec,1/8/2022,16636.0,MICROSOFT CORP,8190.0,0.0,8190.0,0.0,0.0,0.0,0.0,0.0,0.0,0.0,8190.0,18894.0,Direct,,,View report (https://accesshub.pdc.wa.gov/node/86321),Technology,various,various
100276,86248-18287,86248,FE,17398,BOSWELL CONSULTING*,Employer,18287,NORTHWEST AUTOMATIC VENDING ASSN,21-Dec,1/8/2022,16699.0,NORTHWEST AUTOMATIC VENDING ASSN,1500.0,-521.43,978.57,0.0,0.0,0.0,0.0,0.0,0.0,0.0,978.57,18287.0,Direct,,,View report (https://accesshub.pdc.wa.gov/node/86248),Business and consumer affairs,various,various
100277,86235-48962,86235,FE,48956,Brooke Davies,Employer,48962,NORTHWEST AUTOMATIC VENDING ASSN (BOSWELL CONSULTING*),21-Dec,1/8/2022,16699.0,NORTHWEST AUTOMATIC VENDING ASSN,321.43,0.0,321.43,0.0,0.0,0.0,0.0,0.0,0.0,0.0,321.43,48962.0,Subcontract,17398.0,BOSWELL CONSULTING*,View report (https://accesshub.pdc.wa.gov/node/86235),,,
100278,80954-18175,80954,FE,17348,CHRISTOPHERSEN INC*,Employer,18175,NORTHWEST KIDNEY CENTERS,21-Jun,1/8/2022,16711.0,NORTHWEST KIDNEY CENTERS,2000.0,-331.81,1668.19,0.0,0.0,0.0,0.0,0.0,0.0,0.0,1668.19,18175.0,Direct,,,View report (https://accesshub.pdc.wa.gov/node/80954),Health Care,various,various
100279,86235-49111,86235,FE,48956,Brooke Davies,Employer,49111,NORTHWEST KIDNEY CENTERS (CHRISTOPHERSEN INC*),21-Dec,1/8/2022,16711.0,NORTHWEST KIDNEY CENTERS,331.81,0.0,331.81,0.0,0.0,0.0,0.0,0.0,0.0,0.0,331.81,49111.0,Subcontract,17348.0,CHRISTOPHERSEN INC*,View report (https://accesshub.pdc.wa.gov/node/86235),,,
100280,86248-18288,86248,FE,17398,BOSWELL CONSULTING*,Employer,18288,NUCOR STEEL SEATTLE INC,21-Dec,1/8/2022,16727.0,NUCOR STEEL SEATTLE INC,5000.0,-521.43,4478.57,0.0,0.0,0.0,0.0,0.0,0.0,0.0,4478.57,18288.0,Direct,,,View report (https://accesshub.pdc.wa.gov/node/86248),Business and consumer affairs,various,various
100281,86235-48961,86235,FE,48956,Brooke Davies,Employer,48961,NUCOR STEEL SEATTLE INC (BOSWELL CONSULTING*),21-Dec,1/8/2022,16727.0,NUCOR STEEL SEATTLE INC,321.43,0.0,321.43,0.0,0.0,0.0,0.0,0.0,0.0,0.0,321.43,48961.0,Subcontract,17398.0,BOSWELL CONSULTING*,View report (https://accesshub.pdc.wa.gov/node/86235),,,
100282,86439-19187,86439,FE,17771,MARIE SULLIVAN PUBLIC AFFAIRS CORP.,Employer,19187,PASCO SCHOOL DIST,21-Dec,1/8/2022,16766.0,PASCO SCHOOL DIST,3000.0,0.0,3000.0,0.0,0.0,0.0,0.0,0.0,0.0,0.0,3000.0,19187.0,Direct,,,View report (https://accesshub.pdc.wa.gov/node/86439),Education,K-12 funding and policy issues,"education, 16th district legislators"
100283,80954-18176,80954,FE,17348,CHRISTOPHERSEN INC*,Employer,18176,Pediatrix Medical Group,21-Jun,1/8/2022,16769.0,Pediatrix Medical Group,5750.0,-331.81,5418.19,0.0,0.0,0.0,0.0,0.0,0.0,0.0,5418.19,18176.0,Direct,,,View report (https://accesshub.pdc.wa.gov/node/80954),Health Care,various,various
100284,86235-49109,86235,FE,48956,Brooke Davies,Employer,49109,Pediatrix Medical Group (CHRISTOPHERSEN INC*),21-Dec,1/8/2022,16769.0,Pediatrix Medical Group,331.81,0.0,331.81,0.0,0.0,0.0,0.0,0.0,0.0,0.0,331.81,49109.0,Subcontract,17348.0,CHRISTOPHERSEN INC*,View report (https://accesshub.pdc.wa.gov/node/86235),,,
100285,86248-18289,86248,FE,17398,BOSWELL CONSULTING*,Employer,18289,MC Construction,21-Dec,1/8/2022,16790.0,MC Construction,3000.0,-521.43,2478.57,0.0,0.0,0.0,0.0,0.0,0.0,0.0,2478.57,18289.0,Direct,,,View report (https://accesshub.pdc.wa.gov/node/86248),Business and consumer affairs,various,various
100286,86235-48964,86235,FE,48956,Brooke Davies,Employer,48964,MC Construction (BOSWELL CONSULTING*),21-Dec,1/8/2022,16790.0,MC Construction,321.43,0.0,321.43,0.0,0.0,0.0,0.0,0.0,0.0,0.0,321.43,48964.0,Subcontract,17398.0,BOSWELL CONSULTING*,View report (https://accesshub.pdc.wa.gov/node/86235),,,
100287,86248-49202,86248,FE,17398,BOSWELL CONSULTING*,Employer,49202,PORT OF KALAMA,21-Dec,1/8/2022,16800.0,PORT OF KALAMA,2500.0,-521.43,1978.57,0.0,0.0,0.0,0.0,0.0,0.0,0.0,1978.57,49202.0,Direct,,,View report (https://accesshub.pdc.wa.gov/node/86248),Transportation,various,various
100288,86235-67266,86235,FE,48956,Brooke Davies,Employer,67266,PORT OF KALAMA (BOSWELL CONSULTING*),21-Dec,1/8/2022,16800.0,PORT OF KALAMA,321.43,0.0,321.43,0.0,0.0,0.0,0.0,0.0,0.0,0.0,321.43,67266.0,Subcontract,17398.0,BOSWELL CONSULTING*,View report (https://accesshub.pdc.wa.gov/node/86235),,,
100289,86439-19188,86439,FE,17771,MARIE SULLIVAN PUBLIC AFFAIRS CORP.,Employer,19188,QUINAULT INDIAN NATION,21-Dec,1/8/2022,16837.0,QUINAULT INDIAN NATION,9500.0,-4000.0,5500.0,0.0,0.0,0.0,0.0,0.0,0.0,0.0,5500.0,19188.0,Direct,,,View report (https://accesshub.pdc.wa.gov/node/86439),Fiscal,"capital and transportation budget requests, natural resource and consultation issues","Governor's office, WSDOT, transportation committee, capital budget,"
100290,86248-40845,86248,FE,17398,BOSWELL CONSULTING*,Employer,40845,PEACEHEALTH,21-Dec,1/8/2022,16934.0,PEACEHEALTH,10000.0,-521.43,9478.57,0.0,0.0,0.0,0.0,0.0,0.0,0.0,9478.57,40845.0,Direct,,,View report (https://accesshub.pdc.wa.gov/node/86248),Health Care,various,various
100291,86235-48963,86235,FE,48956,Brooke Davies,Employer,48963,PEACEHEALTH (BOSWELL CONSULTING*),21-Dec,1/8/2022,16934.0,PEACEHEALTH,321.43,0.0,321.43,0.0,0.0,0.0,0.0,0.0,0.0,0.0,321.43,48963.0,Subcontract,17398.0,BOSWELL CONSULTING*,View report (https://accesshub.pdc.wa.gov/node/86235),,,
100292,80954-18178,80954,FE,17348,CHRISTOPHERSEN INC*,Employer,18178,"STAND FOR CHILDREN, INC.",21-Jun,1/8/2022,16949.0,"STAND FOR CHILDREN, INC.",3750.0,-350.0,3400.0,0.0,0.0,0.0,0.0,0.0,0.0,0.0,3400.0,18178.0,Direct,,,View report (https://accesshub.pdc.wa.gov/node/80954),Education,various,various
100293,86235-49113,86235,FE,48956,Brooke Davies,Employer,49113,"STAND FOR CHILDREN, INC. (CHRISTOPHERSEN INC*)",21-Dec,1/8/2022,16949.0,"STAND FOR CHILDREN, INC.",350.0,0.0,350.0,0.0,0.0,0.0,0.0,0.0,0.0,0.0,350.0,49113.0,Subcontract,17348.0,CHRISTOPHERSEN INC*,View report (https://accesshub.pdc.wa.gov/node/86235),,,
100294,86248-18291,86248,FE,17398,BOSWELL CONSULTING*,Employer,18291,Uber Technologies Inc and Affiliates,21-Dec,1/8/2022,17001.0,Uber Technologies Inc and Affiliates,5000.0,-521.43,4478.57,0.0,0.0,0.0,0.0,0.0,0.0,0.0,4478.57,18291.0,Direct,,,View report (https://accesshub.pdc.wa.gov/node/86248),Transportation,various,various
100295,86235-48967,86235,FE,48956,Brooke Davies,Employer,48967,Uber Technologies Inc and Affiliates (BOSWELL CONSULTING*),21-Dec,1/8/2022,17001.0,Uber Technologies Inc and Affiliates,321.43,0.0,321.43,0.0,0.0,0.0,0.0,0.0,0.0,0.0,321.43,48967.0,Subcontract,17398.0,BOSWELL CONSULTING*,View report (https://accesshub.pdc.wa.gov/node/86235),,,
100296,86248-28159,86248,FE,17398,BOSWELL CONSULTING*,Employer,28159,VALLEY MEDICAL CENTER,21-Dec,1/8/2022,17027.0,VALLEY MEDICAL CENTER,7000.0,-521.43,6478.57,0.0,0.0,0.0,0.0,0.0,0.0,0.0,6478.57,28159.0,Direct,,,View report (https://accesshub.pdc.wa.gov/node/86248),Health Care,various,various
100297,86235-48968,86235,FE,48956,Brooke Davies,Employer,48968,VALLEY MEDICAL CENTER (BOSWELL CONSULTING*),21-Dec,1/8/2022,17027.0,VALLEY MEDICAL CENTER,321.43,0.0,321.43,0.0,0.0,0.0,0.0,0.0,0.0,0.0,321.43,48968.0,Subcontract,17398.0,BOSWELL CONSULTING*,View report (https://accesshub.pdc.wa.gov/node/86235),,,
100298,86248-18292,86248,FE,17398,BOSWELL CONSULTING*,Employer,18292,VIGOR INDUSTRIAL,21-Dec,1/8/2022,17035.0,VIGOR INDUSTRIAL,5500.0,-521.43,4978.57,0.0,0.0,0.0,0.0,0.0,0.0,0.0,4978.57,18292.0,Direct,,,View report (https://accesshub.pdc.wa.gov/node/86248),Business and consumer affairs,various,various
100299,86235-48969,86235,FE,48956,Brooke Davies,Employer,48969,VIGOR INDUSTRIAL (BOSWELL CONSULTING*),21-Dec,1/8/2022,17035.0,VIGOR INDUSTRIAL,321.43,0.0,321.43,0.0,0.0,0.0,0.0,0.0,0.0,0.0,321.43,48969.0,Subcontract,17398.0,BOSWELL CONSULTING*,View report (https://accesshub.pdc.wa.gov/node/86235),,,
100300,84277-29242,84277,FE,17597,PIERCE CONSULTING SVCS LLC*,Employer,29242,WA CHARTERS ACTION,21-Oct,1/8/2022,17071.0,WA CHARTERS ACTION,3750.0,0.0,3750.0,0.0,0.0,0.0,0.0,0.0,0.0,0.0,3750.0,29242.0,Direct,,,View report (https://accesshub.pdc.wa.gov/node/84277),Education,various,various
100301,85598-29242,85598,FE,17597,PIERCE CONSULTING SVCS LLC*,Employer,29242,WA CHARTERS ACTION,21-Nov,1/8/2022,17071.0,WA CHARTERS ACTION,3750.0,0.0,3750.0,109.13,68.06,0.0,0.0,0.0,0.0,177.19,3927.19,29242.0,Direct,,,View report (https://accesshub.pdc.wa.gov/node/85598),Education,various,various
100302,86321-29242,86321,FE,17597,PIERCE CONSULTING SVCS LLC*,Employer,29242,WA CHARTERS ACTION,21-Dec,1/8/2022,17071.0,WA CHARTERS ACTION,3750.0,0.0,3750.0,0.0,0.0,0.0,0.0,0.0,0.0,0.0,3750.0,29242.0,Direct,,,View report (https://accesshub.pdc.wa.gov/node/86321),Education,various,various
100303,80954-18180,80954,FE,17348,CHRISTOPHERSEN INC*,Employer,18180,WA CANNABUSINESS ASSN,21-Jun,1/8/2022,17073.0,WA CANNABUSINESS ASSN,6000.0,-331.9,5668.1,0.0,9425.35,0.0,0.0,0.0,0.0,9425.35,15093.45,18180.0,Direct,,,View report (https://accesshub.pdc.wa.gov/node/80954),Business and consumer affairs,various,various
100304,86235-49114,86235,FE,48956,Brooke Davies,Employer,49114,WA CANNABUSINESS ASSN (CHRISTOPHERSEN INC*),21-Dec,1/8/2022,17073.0,WA CANNABUSINESS ASSN,331.9,0.0,331.9,0.0,0.0,0.0,0.0,0.0,0.0,0.0,331.9,49114.0,Subcontract,17348.0,CHRISTOPHERSEN INC*,View report (https://accesshub.pdc.wa.gov/node/86235),,,
100305,86248-18293,86248,FE,17398,BOSWELL CONSULTING*,Employer,18293,CLEANTECH ALLIANCE,21-Dec,1/8/2022,17088.0,CLEANTECH ALLIANCE,4000.0,-521.43,3478.57,0.0,0.0,0.0,0.0,0.0,0.0,0.0,3478.57,18293.0,Direct,,,View report (https://accesshub.pdc.wa.gov/node/86248),Energy and utilities,various,various
100306,86235-48958,86235,FE,48956,Brooke Davies,Employer,48958,CLEANTECH ALLIANCE (BOSWELL CONSULTING*),21-Dec,1/8/2022,17088.0,CLEANTECH ALLIANCE,321.43,0.0,321.43,0.0,0.0,0.0,0.0,0.0,0.0,0.0,321.43,48958.0,Subcontract,17398.0,BOSWELL CONSULTING*,View report (https://accesshub.pdc.wa.gov/node/86235),,,
100307,84277-18897,84277,FE,17597,PIERCE CONSULTING SVCS LLC*,Employer,18897,Delta Dental of WA,21-Oct,1/8/2022,17096.0,Delta Dental of WA,3000.0,-381.19,2618.81,0.0,0.0,0.0,0.0,0.0,0.0,0.0,2618.81,18897.0,Direct,,,View report (https://accesshub.pdc.wa.gov/node/84277),Health Care,various,various
100308,85598-18897,85598,FE,17597,PIERCE CONSULTING SVCS LLC*,Employer,18897,Delta Dental of WA,21-Nov,1/8/2022,17096.0,Delta Dental of WA,3000.0,-381.19,2618.81,53.38,70.06,0.0,0.0,0.0,0.0,123.44,2742.25,18897.0,Direct,,,View report (https://accesshub.pdc.wa.gov/node/85598),Health Care,various,various
100309,86321-18897,86321,FE,17597,PIERCE CONSULTING SVCS LLC*,Employer,18897,Delta Dental of WA,21-Dec,1/8/2022,17096.0,Delta Dental of WA,3000.0,-381.19,2618.81,0.0,0.0,0.0,0.0,0.0,0.0,0.0,2618.81,18897.0,Direct,,,View report (https://accesshub.pdc.wa.gov/node/86321),Health Care,various,various
100310,84277-18899,84277,FE,17597,PIERCE CONSULTING SVCS LLC*,Employer,18899,WA FOREST PROTECTION ASSN,21-Oct,1/8/2022,17120.0,WA FOREST PROTECTION ASSN,2000.0,-254.13,1745.87,0.0,0.0,0.0,0.0,0.0,0.0,0.0,1745.87,18899.0,Direct,,,View report (https://accesshub.pdc.wa.gov/node/84277),Environmental Affairs - natural resources - parks,various,various
100311,85598-18899,85598,FE,17597,PIERCE CONSULTING SVCS LLC*,Employer,18899,WA FOREST PROTECTION ASSN,21-Nov,1/8/2022,17120.0,WA FOREST PROTECTION ASSN,2000.0,-254.13,1745.87,0.0,0.0,0.0,0.0,0.0,0.0,0.0,1745.87,18899.0,Direct,,,View report (https://accesshub.pdc.wa.gov/node/85598),Environmental Affairs - natural resources - parks,various,various
100312,86321-18899,86321,FE,17597,PIERCE CONSULTING SVCS LLC*,Employer,18899,WA FOREST PROTECTION ASSN,21-Dec,1/8/2022,17120.0,WA FOREST PROTECTION ASSN,2000.0,-254.13,1745.87,0.0,0.0,0.0,0.0,0.0,0.0,0.0,1745.87,18899.0,Direct,,,View report (https://accesshub.pdc.wa.gov/node/86321),Environmental Affairs - natural resources - parks,various,various
100313,86247-24909,86247,FE,24907,Jason Callahan,Employer,24909,WA FOREST PROTECTION ASSN,21-Dec,1/8/2022,17120.0,WA FOREST PROTECTION ASSN,710.0,0.0,710.0,394.94,0.0,0.0,0.0,0.0,0.0,394.94,1104.94,24909.0,Direct,,,View report (https://accesshub.pdc.wa.gov/node/86247),Environmental Affairs - natural resources - parks,various,various
100314,86320-18329,86320,FE,17416,BETTY BUCKLEY,Employer,18329,WA INDEPENDENT TELECOMMUNICATIONS ASSN,21-Dec,1/8/2022,17138.0,WA INDEPENDENT TELECOMMUNICATIONS ASSN,2500.0,0.0,2500.0,0.0,0.0,0.0,0.0,0.0,0.0,0.0,2500.0,18329.0,Direct,,,View report (https://accesshub.pdc.wa.gov/node/86320),Technology,various,various
100315,84277-18901,84277,FE,17597,PIERCE CONSULTING SVCS LLC*,Employer,18901,WA ROUNDTABLE,21-Oct,1/8/2022,17178.0,WA ROUNDTABLE,2175.0,-276.37,1898.63,0.0,0.0,0.0,0.0,0.0,0.0,0.0,1898.63,18901.0,Direct,,,View report (https://accesshub.pdc.wa.gov/node/84277),Business and consumer affairs,various,various
100316,85598-18901,85598,FE,17597,PIERCE CONSULTING SVCS LLC*,Employer,18901,WA ROUNDTABLE,21-Nov,1/8/2022,17178.0,WA ROUNDTABLE,2175.0,-276.37,1898.63,53.38,70.06,0.0,0.0,0.0,0.0,123.44,2022.07,18901.0,Direct,,,View report (https://accesshub.pdc.wa.gov/node/85598),Business and consumer affairs,various,various
100317,86321-18901,86321,FE,17597,PIERCE CONSULTING SVCS LLC*,Employer,18901,WA ROUNDTABLE,21-Dec,1/8/2022,17178.0,WA ROUNDTABLE,2175.0,-276.37,1898.63,0.0,0.0,0.0,0.0,0.0,0.0,0.0,1898.63,18901.0,Direct,,,View report (https://accesshub.pdc.wa.gov/node/86321),Business and consumer affairs,various,various
100318,80954-18181,80954,FE,17348,CHRISTOPHERSEN INC*,Employer,18181,WA REFUSE & RECYCLING ASSN,21-Jun,1/8/2022,17185.0,WA REFUSE & RECYCLING ASSN,6000.0,0.0,6000.0,0.0,0.0,0.0,0.0,0.0,0.0,0.0,6000.0,18181.0,Direct,,,View report (https://accesshub.pdc.wa.gov/node/80954),Business and consumer affairs,various,various
100319,86248-18294,86248,FE,17398,BOSWELL CONSULTING*,Employer,18294,WA BEVERAGE ASSN,21-Dec,1/8/2022,17190.0,WA BEVERAGE ASSN,5500.0,-200.0,5300.0,325.0,0.0,0.0,0.0,0.0,3000.0,3325.0,8625.0,18294.0,Direct,,,View report (https://accesshub.pdc.wa.gov/node/86248),Business and consumer affairs,various,various
100320,86235-61518,86235,FE,48956,Brooke Davies,Employer,61518,WA BEVERAGE ASSN,21-Dec,1/8/2022,17190.0,WA BEVERAGE ASSN,2000.0,0.0,2000.0,0.0,0.0,0.0,0.0,0.0,0.0,0.0,2000.0,61518.0,Direct,,,View report (https://accesshub.pdc.wa.gov/node/86235),Business and consumer affairs,various,various
100321,86248-28160,86248,FE,17398,BOSWELL CONSULTING*,Employer,28160,"WASTE MANAGEMENT OF WASHINGTON, INC.",21-Dec,1/8/2022,17260.0,"WASTE MANAGEMENT OF WASHINGTON, INC.",5265.0,-2021.43,3243.57,0.0,0.0,0.0,0.0,0.0,0.0,0.0,3243.57,28160.0,Direct,,,View report (https://accesshub.pdc.wa.gov/node/86248),Energy and utilities,various,various
100322,86235-48970,86235,FE,48956,Brooke Davies,Employer,48970,"WASTE MANAGEMENT OF WASHINGTON, INC. (BOSWELL CONSULTING*)",21-Dec,1/8/2022,17260.0,"WASTE MANAGEMENT OF WASHINGTON, INC.",321.43,0.0,321.43,0.0,0.0,0.0,0.0,0.0,0.0,0.0,321.43,48970.0,Subcontract,17398.0,BOSWELL CONSULTING*,View report (https://accesshub.pdc.wa.gov/node/86235),,,
100323,86424-25598,86424,FE,25597,Jennifer Muhm,Employer,25598,WA ST NURSES ASSN,21-Dec,1/8/2022,17265.0,WA ST NURSES ASSN,700.92,0.0,700.92,0.0,0.0,0.0,0.0,0.0,0.0,0.0,700.92,25598.0,Direct,,,View report (https://accesshub.pdc.wa.gov/node/86424),Health Care,"Workforce development, Staffing, Breaks, Mandatory Overtime, SANEs","Governors Office, DOH, L&I, Nursing Commission, Sullivan, Holy, Graham, Saldana, Cody, Slatter"
100324,86422-58534,86422,FE,29054,Katharine Weiss,Employer,58534,WA ST NURSES ASSN,21-Dec,1/8/2022,17265.0,WA ST NURSES ASSN,205.83,0.0,205.83,0.0,0.0,0.0,0.0,0.0,0.0,0.0,205.83,58534.0,Direct,,,View report (https://accesshub.pdc.wa.gov/node/86422),Health Care,"Workforce development, Staffing, Breaks, Mandatory Overtime, SANEs","Senator Holy, Senator Cleveland, Speaker Jinkins"
100325,86439-19190,86439,FE,17771,MARIE SULLIVAN PUBLIC AFFAIRS CORP.,Employer,19190,WA ST PTA,21-Dec,1/8/2022,17277.0,WA ST PTA,4250.0,0.0,4250.0,0.0,0.0,0.0,0.0,0.0,0.0,0.0,4250.0,19190.0,Direct,,,View report (https://accesshub.pdc.wa.gov/node/86439),Education,"issues related to 2021-22 WSPTA platform, resolutions, engagement on work groups","OSPI, SBE, education and budget legislators"
100326,86439-83316,86439,FE,17771,MARIE SULLIVAN PUBLIC AFFAIRS CORP.,Employer,83316,Public Works  Board,21-Dec,1/8/2022,25309.0,Public Works  Board,4600.0,0.0,4600.0,0.0,0.0,0.0,0.0,0.0,0.0,0.0,4600.0,83316.0,Direct,,,View report (https://accesshub.pdc.wa.gov/node/86439),,,
100327,84277-30933,84277,FE,17597,PIERCE CONSULTING SVCS LLC*,Employer,30933,Washington State Opportunity Scholarship,21-Oct,1/8/2022,30931.0,Washington State Opportunity Scholarship,2000.0,-254.13,1745.87,0.0,0.0,0.0,0.0,0.0,0.0,0.0,1745.87,30933.0,Direct,,,View report (https://accesshub.pdc.wa.gov/node/84277),Higher education,various,various
100328,85598-30933,85598,FE,17597,PIERCE CONSULTING SVCS LLC*,Employer,30933,Washington State Opportunity Scholarship,21-Nov,1/8/2022,30931.0,Washington State Opportunity Scholarship,2000.0,-254.13,1745.87,0.0,0.0,0.0,0.0,0.0,0.0,0.0,1745.87,30933.0,Direct,,,View report (https://accesshub.pdc.wa.gov/node/85598),Higher education,various,various
100329,86321-30933,86321,FE,17597,PIERCE CONSULTING SVCS LLC*,Employer,30933,Washington State Opportunity Scholarship,21-Dec,1/8/2022,30931.0,Washington State Opportunity Scholarship,2000.0,-254.13,1745.87,0.0,0.0,0.0,0.0,0.0,0.0,0.0,1745.87,30933.0,Direct,,,View report (https://accesshub.pdc.wa.gov/node/86321),Higher education,various,various
100330,80954-48674,80954,FE,17348,CHRISTOPHERSEN INC*,Employer,48674,Internet Association,21-Jun,1/8/2022,31991.0,Internet Association,4000.0,-331.81,3668.19,0.0,0.0,0.0,0.0,0.0,0.0,0.0,3668.19,48674.0,Direct,,,View report (https://accesshub.pdc.wa.gov/node/80954),Technology,various,various
100331,86235-49047,86235,FE,48956,Brooke Davies,Employer,49047,Internet Association (CHRISTOPHERSEN INC*),21-Dec,1/8/2022,31991.0,Internet Association,331.81,0.0,331.81,0.0,0.0,0.0,0.0,0.0,0.0,0.0,331.81,49047.0,Subcontract,17348.0,CHRISTOPHERSEN INC*,View report (https://accesshub.pdc.wa.gov/node/86235),,,
