,id,report_number,origin,filer_id,filer_name,type,funding_source_id,funding_source_name,filing_period,receipt_date,employer_id,employer_name,compensation,sub_lobbyist_compensation,net_compensation,personal_expenses,entertainment,contributions,advertising,political_ads,other,total_expenses,net_total,employment_registration_id,employment_type,contractor_id,contractor_name,url,legislation_subject_matter,issue_bill_number,committee_lobbied
5000,104478-29470,104478,FE,29469,Ramona Hattendorf,Employer,29470,The Arc of King County,23-Jan,4/23/2023,16134,The Arc of King County,790.0,0.0,790.0,0.0,0.0,0.0,0.0,0.0,0.0,0.0,790.0,29470,Direct,,,View report (https://accesshub.pdc.wa.gov/node/104478),Fiscal,"5187 and 1140, operating budgets","Ways and Means, Appropriations"
5001,104480-18277,104480,FE,17397,PATRICK S BOSS (Cascade Consulting Group),Employer,18277,COLUMBIA BASIN RAILROAD(CBR)/CENTRAL WA RAILROAD (CWR),23-Mar,4/23/2023,16336,COLUMBIA BASIN RAILROAD(CBR)/CENTRAL WA RAILROAD (CWR),2000.0,0.0,2000.0,0.0,0.0,0.0,0.0,0.0,0.0,0.0,2000.0,18277,Direct,,,View report (https://accesshub.pdc.wa.gov/node/104480),Transportation,Rail Transportation,"WSDOT, Department of Ecology, Senate and House Transportation Committees"
5002,104480-18281,104480,FE,17397,PATRICK S BOSS (Cascade Consulting Group),Employer,18281,PORT OF GRANT CO DIST 01 - Quincy,23-Mar,4/23/2023,16803,PORT OF GRANT CO DIST 01 - Quincy,2500.0,0.0,2500.0,0.0,0.0,0.0,0.0,0.0,0.0,0.0,2500.0,18281,Direct,,,View report (https://accesshub.pdc.wa.gov/node/104480),Fiscal,"Freight Mobility, Economic Development","WSDOT, Dept. of Commerce, Senate Ways & Means Committee, House Capital Budget Committee"
5003,103786-97594,103786,FE,18010,Brewer Public Affairs,Employer,97594,AMERICAN COUNCIL OF LIFE INSURERS,23-Mar,4/24/2023,16098,AMERICAN COUNCIL OF LIFE INSURERS,3750.0,0.0,3750.0,0.0,0.0,0.0,0.0,0.0,0.0,0.0,3750.0,97594,Direct,,,View report (https://accesshub.pdc.wa.gov/node/103786),Financial institutions and insurance,Life Insurance,"OIC, Insurance, Judiciary and Fiscal Committees"
5004,103786-96321,103786,FE,18010,Brewer Public Affairs,Employer,96321,AMERICAN FAMILY MUTUAL INSURANCE,23-Mar,4/24/2023,16103,AMERICAN FAMILY MUTUAL INSURANCE,4333.33,0.0,4333.33,64.6,0.0,0.0,0.0,0.0,0.0,64.6,4397.93,96321,Direct,,,View report (https://accesshub.pdc.wa.gov/node/103786),Financial institutions and insurance,Property & Casualty Insurance,"OIC, Insurance, Judiciary and Fiscal Committees"
5005,103786-99216,103786,FE,18010,Brewer Public Affairs,Employer,99216,Architects and Engineers Legislative Council,23-Mar,4/24/2023,16138,Architects and Engineers Legislative Council,6963.0,0.0,6963.0,64.6,0.0,0.0,0.0,0.0,0.0,64.6,7027.6,99216,Direct,,,View report (https://accesshub.pdc.wa.gov/node/103786),Business and consumer affairs,"Contracting, Design, Construction","DOT, LNI, DOE, CPARB, Transportation, Fiscal, Labor, Contracting, Environment, Capital Budget Committees"
5006,103786-19726,103786,FE,18010,Brewer Public Affairs,Employer,19726,ASSOCIATED GENERAL CONTRACTORS OF WA,23-Mar,4/24/2023,16154,ASSOCIATED GENERAL CONTRACTORS OF WA,5500.0,0.0,5500.0,64.6,0.0,0.0,0.0,0.0,0.0,64.6,5564.6,19726,Direct,,,View report (https://accesshub.pdc.wa.gov/node/103786),Business and consumer affairs,Construction,"DOT, LNI, All legislative committees"
5007,102505-18169,102505,FE,17348,CHRISTOPHERSEN INC*,Employer,18169,ASSN OF WA SPIRITS & WINE DISTRIBUTORS,23-Feb,4/24/2023,16172,ASSN OF WA SPIRITS & WINE DISTRIBUTORS,6250.0,-900.0,5350.0,0.0,0.0,0.0,0.0,0.0,0.0,0.0,5350.0,18169,Direct,,,View report (https://accesshub.pdc.wa.gov/node/102505),Business and consumer affairs,various,various
5008,103319-19359,103319,FE,17848,THE NEXUS GROUP LLC*,Employer,19359,ASSN OF WA SCHOOL PRINCIPALS,23-Mar,4/24/2023,16173,ASSN OF WA SCHOOL PRINCIPALS,1500.0,0.0,1500.0,0.0,0.0,0.0,0.0,0.0,0.0,0.0,1500.0,19359,Direct,,,View report (https://accesshub.pdc.wa.gov/node/103319),Fiscal,Health Care Pensions Benefits,SCPP PFC SAO APPS SEBB PEBB HCA
5009,104483-19359,104483,FE,17848,THE NEXUS GROUP LLC*,Employer,19359,ASSN OF WA SCHOOL PRINCIPALS,23-Apr,4/24/2023,16173,ASSN OF WA SCHOOL PRINCIPALS,1500.0,0.0,1500.0,0.0,0.0,0.0,0.0,0.0,0.0,0.0,1500.0,19359,Direct,,,View report (https://accesshub.pdc.wa.gov/node/104483),Fiscal,Health Care Pensions Benefits,SCPP PFC SAO APPS SEBB PEBB HCA
5010,103786-19727,103786,FE,18010,Brewer Public Affairs,Employer,19727,AVISTA CORP,23-Mar,4/24/2023,16180,AVISTA CORP,8333.33,0.0,8333.33,64.6,0.0,0.0,0.0,0.0,0.0,64.6,8397.93,19727,Direct,,,View report (https://accesshub.pdc.wa.gov/node/103786),Energy and utilities,Energy,"UTC, LNI, DOE, DNR, OIC, Commerce, Environment & Energy, Labor and Fiscal Committees"
5011,102505-95841,102505,FE,17348,CHRISTOPHERSEN INC*,Employer,95841,FORTERRA,23-Feb,4/24/2023,16234,FORTERRA,5000.0,-300.0,4700.0,180.65,0.0,0.0,0.0,0.0,0.0,180.65,4880.65,95841,Direct,,,View report (https://accesshub.pdc.wa.gov/node/102505),Environmental Affairs - natural resources - parks,various,various
5012,102505-18172,102505,FE,17348,CHRISTOPHERSEN INC*,Employer,18172,THE COLLEGE BOARD,23-Feb,4/24/2023,16334,THE COLLEGE BOARD,5000.0,-900.0,4100.0,0.0,0.0,0.0,0.0,0.0,0.0,0.0,4100.0,18172,Direct,,,View report (https://accesshub.pdc.wa.gov/node/102505),Education,various,various
5013,104493-38874,104493,FE,38873,Aaron Czyzewski,Employer,38874,FOOD LIFELINE,23-Apr,4/24/2023,16448,FOOD LIFELINE,6575.0,0.0,6575.0,0.0,0.0,0.0,0.0,0.0,0.0,0.0,6575.0,38874,Direct,,,View report (https://accesshub.pdc.wa.gov/node/104493),Human services,"SB 5187, HB 1045, SB 5200, SB 5256, SB 5566, HB 1559, HB 1784, HB 1499","Ways & Means, Appropriations"
5015,102505-26030,102505,FE,17348,CHRISTOPHERSEN INC*,Employer,26030,HAMPTON TREE FARMS LLC,23-Feb,4/24/2023,16490,HAMPTON TREE FARMS LLC,5000.0,-300.0,4700.0,0.0,0.0,0.0,0.0,0.0,0.0,0.0,4700.0,26030,Direct,,,View report (https://accesshub.pdc.wa.gov/node/102505),Business and consumer affairs,various,various
5016,104490-47755,104490,FE,18081,SHAUNIE J WHEELER JAMES,Employer,47755,JOINT COUNCIL OF TEAMSTERS #28,23-Mar,4/24/2023,16564,JOINT COUNCIL OF TEAMSTERS #28,2784.0,0.0,2784.0,0.0,300.0,0.0,0.0,0.0,0.0,300.0,3084.0,47755,Direct,,,View report (https://accesshub.pdc.wa.gov/node/104490),Labor,Worker's Rights,Labor
5017,103786-96904,103786,FE,18010,Brewer Public Affairs,Employer,96904,LIABILITY REFORM COALITION,23-Mar,4/24/2023,16603,LIABILITY REFORM COALITION,4166.67,0.0,4166.67,0.0,0.0,0.0,0.0,0.0,0.0,0.0,4166.67,96904,Direct,,,View report (https://accesshub.pdc.wa.gov/node/103786),Business and consumer affairs,"Liability, Consumer Affairs, Data Privacy and Insurance","Law & Justice, Judiciary and Fiscal Committees"
5018,102505-18174,102505,FE,17348,CHRISTOPHERSEN INC*,Employer,18174,MERCK SHARP & DOHME LLC & AFFILIATES,23-Feb,4/24/2023,16632,MERCK SHARP & DOHME LLC & AFFILIATES,4583.33,-300.0,4283.33,0.0,0.0,0.0,0.0,0.0,0.0,0.0,4283.33,18174,Direct,,,View report (https://accesshub.pdc.wa.gov/node/102505),Business and consumer affairs,various,various
5019,103786-95475,103786,FE,18010,Brewer Public Affairs,Employer,95475,AMERICAN PROPERTY CASUALTY INSURANCE ASSOCIATION,23-Mar,4/24/2023,16668,AMERICAN PROPERTY CASUALTY INSURANCE ASSOCIATION,8333.33,0.0,8333.33,64.6,0.0,0.0,0.0,0.0,0.0,64.6,8397.93,95475,Direct,,,View report (https://accesshub.pdc.wa.gov/node/103786),Financial institutions and insurance,Property & Casualty Insurance,"OIC, Insurance, Judiciary and Fiscal Committees"
5020,102505-18175,102505,FE,17348,CHRISTOPHERSEN INC*,Employer,18175,NORTHWEST KIDNEY CENTERS,23-Feb,4/24/2023,16711,NORTHWEST KIDNEY CENTERS,2500.0,-300.0,2200.0,0.0,0.0,0.0,0.0,0.0,0.0,0.0,2200.0,18175,Direct,,,View report (https://accesshub.pdc.wa.gov/node/102505),Health Care,various,various
5021,102505-18176,102505,FE,17348,CHRISTOPHERSEN INC*,Employer,18176,Pediatrix Medical Group,23-Feb,4/24/2023,16769,Pediatrix Medical Group,7500.0,-900.0,6600.0,0.0,0.0,0.0,0.0,0.0,0.0,0.0,6600.0,18176,Direct,,,View report (https://accesshub.pdc.wa.gov/node/102505),Health Care,various,various
5022,103786-70509,103786,FE,18010,Brewer Public Affairs,Employer,70509,PREMERA BLUE CROSS,23-Mar,4/24/2023,16812,PREMERA BLUE CROSS,10417.0,0.0,10417.0,364.6,0.0,0.0,0.0,0.0,0.0,364.6,10781.6,70509,Direct,,,View report (https://accesshub.pdc.wa.gov/node/103786),Health Care,"Health Care, Taxes","OIC, Health and Fiscal Committees"
5023,103786-95519,103786,FE,18010,Brewer Public Affairs,Employer,95519,PROFESSIONAL INSURANCE AGENTS ASSN,23-Mar,4/24/2023,16815,PROFESSIONAL INSURANCE AGENTS ASSN,1500.0,0.0,1500.0,0.0,0.0,0.0,0.0,0.0,0.0,0.0,1500.0,95519,Direct,,,View report (https://accesshub.pdc.wa.gov/node/103786),Financial institutions and insurance,"insurance, taxation","Insurance and Fiscal Committee, OIC"
5024,103786-19728,103786,FE,18010,Brewer Public Affairs,Employer,19728,SCHINDLER ELEVATOR CORP,23-Mar,4/24/2023,16877,SCHINDLER ELEVATOR CORP,3200.0,0.0,3200.0,0.0,0.0,0.0,0.0,0.0,0.0,0.0,3200.0,19728,Direct,,,View report (https://accesshub.pdc.wa.gov/node/103786),Business and consumer affairs,Elevator Policy,"LNI, Labor and Fiscal Committees"
5025,101648-84916,101648,FE,67155,FMS Global Strategies,Employer,84916,UNITED WAY OF KING CO,23-Feb,4/24/2023,17018,UNITED WAY OF KING CO,2000.0,0.0,2000.0,0.0,0.0,0.0,0.0,0.0,0.0,0.0,2000.0,84916,Direct,,,View report (https://accesshub.pdc.wa.gov/node/101648),,,
5026,102505-18180,102505,FE,17348,CHRISTOPHERSEN INC*,Employer,18180,WA CANNABUSINESS ASSN,23-Feb,4/24/2023,17073,WA CANNABUSINESS ASSN,6000.0,-300.0,5700.0,0.0,0.0,0.0,0.0,0.0,0.0,0.0,5700.0,18180,Direct,,,View report (https://accesshub.pdc.wa.gov/node/102505),Business and consumer affairs,various,various
5027,103786-97593,103786,FE,18010,Brewer Public Affairs,Employer,97593,WA DEFENSE TRIAL LAWYERS,23-Mar,4/24/2023,17097,WA DEFENSE TRIAL LAWYERS,2916.66,0.0,2916.66,0.0,0.0,0.0,0.0,0.0,0.0,0.0,2916.66,97593,Direct,,,View report (https://accesshub.pdc.wa.gov/node/103786),Law and justice,"Tort, Taxation","Law & Justice, Judiciary and Fiscal Committees"
5028,100040-53097,100040,FE,53096,Kimberly Mosolf,Employer,53097,DISABILITY RIGHTS WA,22-Dec,4/24/2023,17163,DISABILITY RIGHTS WA,1064.58,0.0,1064.58,0.0,0.0,0.0,0.0,0.0,0.0,0.0,1064.58,53097,Direct,,,View report (https://accesshub.pdc.wa.gov/node/100040),Law and justice,"NGRI legal rep, SB 5415",Rep Leavitt
5029,101765-53097,101765,FE,53096,Kimberly Mosolf,Employer,53097,DISABILITY RIGHTS WA,23-Jan,4/24/2023,17163,DISABILITY RIGHTS WA,1854.95,0.0,1854.95,0.0,0.0,0.0,0.0,0.0,0.0,0.0,1854.95,53097,Direct,,,View report (https://accesshub.pdc.wa.gov/node/101765),Law and justice,"NGRI legal rep, SB 5415",Senate Law and Justice Committee; Sen. Trudeau
5030,104491-53097,104491,FE,53096,Kimberly Mosolf,Employer,53097,DISABILITY RIGHTS WA,23-Feb,4/24/2023,17163,DISABILITY RIGHTS WA,1250.1,0.0,1250.1,0.0,0.0,0.0,0.0,0.0,0.0,0.0,1250.1,53097,Direct,,,View report (https://accesshub.pdc.wa.gov/node/104491),Law and justice,SB 5615,Senate Law and Justice Committee; Senate Ways and Means; Sen. Trudeau; Sen. Rolfes
5031,104492-53097,104492,FE,53096,Kimberly Mosolf,Employer,53097,DISABILITY RIGHTS WA,23-Mar,4/24/2023,17163,DISABILITY RIGHTS WA,1516.22,0.0,1516.22,0.0,0.0,0.0,0.0,0.0,0.0,0.0,1516.22,53097,Direct,,,View report (https://accesshub.pdc.wa.gov/node/104492),Law and justice,SB 5415,House Civ Rts and Judiciary
5032,104488-19326,104488,FE,17827,STEPHEN F MULLIN,Employer,19326,WA ROUNDTABLE,23-Feb,4/24/2023,17178,WA ROUNDTABLE,1750.0,0.0,1750.0,0.0,0.0,0.0,0.0,0.0,0.0,0.0,1750.0,19326,Direct,,,View report (https://accesshub.pdc.wa.gov/node/104488),Education,Various,Various
5033,104489-19326,104489,FE,17827,STEPHEN F MULLIN,Employer,19326,WA ROUNDTABLE,23-Mar,4/24/2023,17178,WA ROUNDTABLE,1750.0,0.0,1750.0,0.0,0.0,0.0,0.0,0.0,0.0,0.0,1750.0,19326,Direct,,,View report (https://accesshub.pdc.wa.gov/node/104489),Education,Various,Various
5034,104485-19716,104485,FE,18000,NEIL STREGE,Employer,19716,WA ROUNDTABLE,23-Feb,4/24/2023,17178,WA ROUNDTABLE,3098.35,0.0,3098.35,0.0,0.0,0.0,0.0,0.0,0.0,0.0,3098.35,19716,Direct,,,View report (https://accesshub.pdc.wa.gov/node/104485),Education,Various,Various
5035,104487-19716,104487,FE,18000,NEIL STREGE,Employer,19716,WA ROUNDTABLE,23-Mar,4/24/2023,17178,WA ROUNDTABLE,3098.35,0.0,3098.35,0.0,0.0,0.0,0.0,0.0,0.0,0.0,3098.35,19716,Direct,,,View report (https://accesshub.pdc.wa.gov/node/104487),Education,Various,Various
5036,102864-51599,102864,FE,51597,Luis Moscoso,Employer,51599,ALL ABOARD WASHINGTON,23-Mar,4/24/2023,17184,ALL ABOARD WASHINGTON,2032.0,0.0,2032.0,0.0,0.0,0.0,0.0,0.0,0.0,0.0,2032.0,51599,Direct,,,View report (https://accesshub.pdc.wa.gov/node/102864),Transportation,Transportation Budget,Transportation Committees & Legislative Rail Caucus
5037,102505-18181,102505,FE,17348,CHRISTOPHERSEN INC*,Employer,18181,WA REFUSE & RECYCLING ASSN,23-Feb,4/24/2023,17185,WA REFUSE & RECYCLING ASSN,6600.0,-300.0,6300.0,829.0,8388.13,0.0,0.0,0.0,49000.0,58217.13,64517.13,18181,Direct,,,View report (https://accesshub.pdc.wa.gov/node/102505),Business and consumer affairs,various,various
5038,103319-19362,103319,FE,17848,THE NEXUS GROUP LLC*,Employer,19362,WA ASSN OF SCHOOL ADMINISTRATORS,23-Mar,4/24/2023,17186,WA ASSN OF SCHOOL ADMINISTRATORS,3000.0,0.0,3000.0,0.0,0.0,0.0,0.0,0.0,0.0,0.0,3000.0,19362,Direct,,,View report (https://accesshub.pdc.wa.gov/node/103319),Fiscal,Health Care Pensions Benefits,SCPP PFC SAO APPS SEBB PEBB HCA
5039,104483-19362,104483,FE,17848,THE NEXUS GROUP LLC*,Employer,19362,WA ASSN OF SCHOOL ADMINISTRATORS,23-Apr,4/24/2023,17186,WA ASSN OF SCHOOL ADMINISTRATORS,3000.0,0.0,3000.0,0.0,0.0,0.0,0.0,0.0,0.0,0.0,3000.0,19362,Direct,,,View report (https://accesshub.pdc.wa.gov/node/104483),Fiscal,Health Care Pensions Benefits,SCPP PFC SAO APPS SEBB PEBB HCA
5040,103786-19729,103786,FE,18010,Brewer Public Affairs,Employer,19729,WSIA,23-Mar,4/24/2023,17194,WSIA,3000.0,0.0,3000.0,64.0,0.0,0.0,0.0,0.0,0.0,64.0,3064.0,19729,Direct,,,View report (https://accesshub.pdc.wa.gov/node/103786),Business and consumer affairs,Workers Comp. Insurance,"LNI, Labor and Fiscal Committees"
5041,103786-99217,103786,FE,18010,Brewer Public Affairs,Employer,99217,WA ST FINANCIAL SERVICES ASSN,23-Mar,4/24/2023,17249,WA ST FINANCIAL SERVICES ASSN,4166.66,0.0,4166.66,64.6,0.0,0.0,0.0,0.0,0.0,64.6,4231.26,99217,Direct,,,View report (https://accesshub.pdc.wa.gov/node/103786),Financial institutions and insurance,"Finance, Banking, Taxes, Privacy","Finance, Consumer Protection Committees"
5042,103319-19363,103319,FE,17848,THE NEXUS GROUP LLC*,Employer,19363,WA ST SCHOOL RETIREES ASSN,23-Mar,4/24/2023,17286,WA ST SCHOOL RETIREES ASSN,5956.0,0.0,5956.0,0.0,0.0,0.0,0.0,0.0,0.0,0.0,5956.0,19363,Direct,,,View report (https://accesshub.pdc.wa.gov/node/103319),Fiscal,Health Care Pensions Benefits,SCPP PFC SAO APPS SEBB PEBB HCA
5043,104483-19363,104483,FE,17848,THE NEXUS GROUP LLC*,Employer,19363,WA ST SCHOOL RETIREES ASSN,23-Apr,4/24/2023,17286,WA ST SCHOOL RETIREES ASSN,5956.0,0.0,5956.0,0.0,0.0,0.0,0.0,0.0,0.0,0.0,5956.0,19363,Direct,,,View report (https://accesshub.pdc.wa.gov/node/104483),Fiscal,Health Care Pensions Benefits,SCPP PFC SAO APPS SEBB PEBB HCA
5044,102505-44208,102505,FE,17348,CHRISTOPHERSEN INC*,Employer,44208,"Assurant, Inc.",23-Feb,4/24/2023,44206,"Assurant, Inc.",2000.0,-300.0,1700.0,0.0,0.0,0.0,0.0,0.0,0.0,0.0,1700.0,44208,Direct,,,View report (https://accesshub.pdc.wa.gov/node/102505),Financial institutions and insurance,various,various
5045,103786-48933,103786,FE,18010,Brewer Public Affairs,Employer,48933,"A Place for Rover, Inc.",23-Mar,4/24/2023,48763,"A Place for Rover, Inc.",6500.0,0.0,6500.0,0.0,0.0,0.0,0.0,0.0,0.0,0.0,6500.0,48933,Direct,,,View report (https://accesshub.pdc.wa.gov/node/103786),Business and consumer affairs,"Technology, Taxes, Employment Law, Data","LNI, Labor, Fiscal, Judiciary Committees"
5046,104014-51023,104014,FE,51020,Mike Pugsley,Employer,51023,Ashley House,23-Mar,4/24/2023,51022,Ashley House,1500.0,0.0,1500.0,0.0,0.0,0.0,0.0,0.0,0.0,0.0,1500.0,51023,Direct,,,View report (https://accesshub.pdc.wa.gov/node/104014),Health Care,Capital Budget Request,Capital Budget committee Senate and House of Representatives
5047,102505-59220,102505,FE,17348,CHRISTOPHERSEN INC*,Employer,59220,Maverick Gaming LLC (Coaxis Public Affairs ),23-Feb,4/24/2023,58487,Maverick Gaming LLC,10125.0,0.0,10125.0,0.0,0.0,0.0,0.0,0.0,0.0,0.0,10125.0,59220,Subcontract,58479.0,Coaxis Public Affairs,View report (https://accesshub.pdc.wa.gov/node/102505),,,
5048,102505-62427,102505,FE,17348,CHRISTOPHERSEN INC*,Employer,62427,Justice Action Network,23-Feb,4/24/2023,62015,Justice Action Network,10000.0,-1200.0,8800.0,113.69,0.0,0.0,0.0,0.0,0.0,113.69,8913.69,62427,Direct,,,View report (https://accesshub.pdc.wa.gov/node/102505),Law and justice,various,various
5049,103786-96465,103786,FE,18010,Brewer Public Affairs,Employer,96465,"Medical Evaluation Specialists, LLC",23-Mar,4/24/2023,63475,"Medical Evaluation Specialists, LLC",5454.0,0.0,5454.0,0.0,0.0,0.0,0.0,0.0,0.0,0.0,5454.0,96465,Direct,,,View report (https://accesshub.pdc.wa.gov/node/103786),Business and consumer affairs,Workers Compensation,"LNI, Labor & Fiscal Committees"
5050,103786-93989,103786,FE,18010,Brewer Public Affairs,Employer,93989,MAPLEBEAR INC. D/B/A INSTACART,23-Mar,4/24/2023,66576,MAPLEBEAR INC. D/B/A INSTACART,7500.0,0.0,7500.0,64.6,0.0,0.0,0.0,0.0,0.0,64.6,7564.6,93989,Direct,,,View report (https://accesshub.pdc.wa.gov/node/103786),Business and consumer affairs,"Technology, Liquor, LNI, Food Access","LCB, LNI, Fiscal, Labor and Liquor Committees"
5051,101648-73019,101648,FE,67155,FMS Global Strategies,Employer,73019,Doxiedor LLC,23-Feb,4/24/2023,72662,Doxiedor LLC,10000.0,0.0,10000.0,0.0,0.0,0.0,0.0,0.0,0.0,0.0,10000.0,73019,Direct,,,View report (https://accesshub.pdc.wa.gov/node/101648),Business and consumer affairs,1424,Rep Walen
5052,101648-73796,101648,FE,67155,FMS Global Strategies,Employer,73796,WA Build Back Black Alliance,23-Feb,4/24/2023,73022,WA Build Back Black Alliance,12000.0,0.0,12000.0,0.0,0.0,0.0,0.0,0.0,0.0,0.0,12000.0,73796,Direct,,,View report (https://accesshub.pdc.wa.gov/node/101648),Labor,5080,Sen Saldana
5053,104494-76632,104494,FE,75849,Christopher Carney,Employer,76632,"Carney Gillespie PLLP, on behalf of plaintiffs in Trueblood v. DSHS, 14-CV-1178MJP WD-WA",23-Feb,4/24/2023,76470,"Carney Gillespie PLLP, on behalf of plaintiffs in Trueblood v. DSHS, 14-CV-1178MJP WD-WA",930.0,0.0,930.0,0.0,0.0,0.0,0.0,0.0,0.0,0.0,930.0,76632,Direct,,,View report (https://accesshub.pdc.wa.gov/node/104494),Law and justice,SB 5440,Senate law and justice
5054,104495-76632,104495,FE,75849,Christopher Carney,Employer,76632,"Carney Gillespie PLLP, on behalf of plaintiffs in Trueblood v. DSHS, 14-CV-1178MJP WD-WA",23-Mar,4/24/2023,76470,"Carney Gillespie PLLP, on behalf of plaintiffs in Trueblood v. DSHS, 14-CV-1178MJP WD-WA",465.0,0.0,465.0,0.0,0.0,0.0,0.0,0.0,0.0,0.0,465.0,76632,Direct,,,View report (https://accesshub.pdc.wa.gov/node/104495),Law and justice,SB5440,Senate Rules/House Civil Rights & Judiciary
5055,102505-101253,102505,FE,17348,CHRISTOPHERSEN INC*,Employer,101253,NIPPC - Northwest & Intermountain Power Producers Coalition,23-Feb,4/24/2023,77458,NIPPC - Northwest & Intermountain Power Producers Coalition,10000.0,-300.0,9700.0,0.0,0.0,0.0,0.0,0.0,0.0,0.0,9700.0,101253,Direct,,,View report (https://accesshub.pdc.wa.gov/node/102505),Energy and utilities,various,variou
5056,104482-78253,104482,FE,18028,THOMPSON CONSULTING GROUP*,Employer,78253,Gorst Coalition,23-Mar,4/24/2023,78244,Gorst Coalition,7000.0,0.0,7000.0,0.0,0.0,0.0,0.0,0.0,0.0,0.0,7000.0,78253,Direct,,,View report (https://accesshub.pdc.wa.gov/node/104482),Transportation,transportation,Transportation committee
5057,103786-79152,103786,FE,18010,Brewer Public Affairs,Employer,79152,The Clorox Company,23-Mar,4/24/2023,79151,The Clorox Company,5000.0,0.0,5000.0,0.0,0.0,0.0,0.0,0.0,0.0,0.0,5000.0,79152,Direct,,,View report (https://accesshub.pdc.wa.gov/node/103786),Business and consumer affairs,Environmental Policy,Environmental and Fiscal Committees
5058,102505-86123,102505,FE,17348,CHRISTOPHERSEN INC*,Employer,86123,Northwest Center,23-Feb,4/24/2023,86117,Northwest Center,3500.0,-300.0,3200.0,497.53,0.0,0.0,0.0,0.0,0.0,497.53,3697.53,86123,Direct,,,View report (https://accesshub.pdc.wa.gov/node/102505),Health Care,various,various
5059,101648-91396,101648,FE,67155,FMS Global Strategies,Employer,91396,BTA Holdings LLC,23-Feb,4/24/2023,91395,BTA Holdings LLC,4166.0,0.0,4166.0,0.0,0.0,0.0,0.0,0.0,0.0,0.0,4166.0,91396,Direct,,,View report (https://accesshub.pdc.wa.gov/node/101648),,,
5060,102505-99333,102505,FE,17348,CHRISTOPHERSEN INC*,Employer,99333,African Community Housing & Development,23-Feb,4/24/2023,99329,African Community Housing & Development,2500.0,0.0,2500.0,0.0,0.0,0.0,0.0,0.0,0.0,0.0,2500.0,99333,Direct,,,View report (https://accesshub.pdc.wa.gov/node/102505),Business and consumer affairs,various,various
5062,102505-101028,102505,FE,17348,CHRISTOPHERSEN INC*,Employer,101028,Washington Independent Physicians Practice Association (Desimone Consulting Group),23-Feb,4/24/2023,101018,Washington Independent Physicians Practice Association,2500.0,-900.0,1600.0,0.0,0.0,0.0,0.0,0.0,0.0,0.0,1600.0,101028,Subcontract,60449.0,Desimone Consulting Group,View report (https://accesshub.pdc.wa.gov/node/102505),,,
5063,101287-74601,101287,FE,17825,CAREY L MORRIS,Employer,74601,BUILDING CHANGES,23-Jan,4/25/2023,16214,BUILDING CHANGES,2760.0,0.0,2760.0,0.0,0.0,0.0,0.0,0.0,0.0,0.0,2760.0,74601,Direct,,,View report (https://accesshub.pdc.wa.gov/node/101287),Education,Students Experiencing Homelessness,"OSPI, DCYF, Commerce, fiscal committees, housing issues, health care"
5064,102923-74601,102923,FE,17825,CAREY L MORRIS,Employer,74601,BUILDING CHANGES,23-Feb,4/25/2023,16214,BUILDING CHANGES,2760.0,0.0,2760.0,0.0,0.0,0.0,0.0,0.0,0.0,0.0,2760.0,74601,Direct,,,View report (https://accesshub.pdc.wa.gov/node/102923),Education,Students Experiencing Homelessness,"OSPI, DCYF, Commerce, fiscal committees, housing issues, health care"
5065,104497-74601,104497,FE,17825,CAREY L MORRIS,Employer,74601,BUILDING CHANGES,23-Mar,4/25/2023,16214,BUILDING CHANGES,2760.0,0.0,2760.0,0.0,0.0,0.0,0.0,0.0,0.0,0.0,2760.0,74601,Direct,,,View report (https://accesshub.pdc.wa.gov/node/104497),Education,Students Experiencing Homelessness,"OSPI, DCYF, Commerce, fiscal committees, housing issues, health care"
5066,104501-70293,104501,FE,17587,JON GOULD,Employer,70293,CHILDHAVEN,23-Apr,4/25/2023,16257,CHILDHAVEN,2000.0,0.0,2000.0,0.0,0.0,0.0,0.0,0.0,0.0,0.0,2000.0,70293,Direct,,,View report (https://accesshub.pdc.wa.gov/node/104501),Human services,multiple health and human service,"mulitiple members of the Leg, house and senate committees and Dept of Children, Youth, Families"
5067,101287-19320,101287,FE,17825,CAREY L MORRIS,Employer,19320,HUMANE SOCIETY OF THE UNITED STATES,23-Jan,4/25/2023,16514,HUMANE SOCIETY OF THE UNITED STATES,3500.0,0.0,3500.0,0.0,0.0,0.0,0.0,0.0,0.0,0.0,3500.0,19320,Direct,,,View report (https://accesshub.pdc.wa.gov/node/101287),Environmental Affairs - natural resources - parks,Animal Conservation,"Agriculture, Natural Resources, Commerce, Fiscal"
5068,102923-19320,102923,FE,17825,CAREY L MORRIS,Employer,19320,HUMANE SOCIETY OF THE UNITED STATES,23-Feb,4/25/2023,16514,HUMANE SOCIETY OF THE UNITED STATES,3500.0,0.0,3500.0,0.0,0.0,0.0,0.0,0.0,0.0,0.0,3500.0,19320,Direct,,,View report (https://accesshub.pdc.wa.gov/node/102923),Environmental Affairs - natural resources - parks,Animal Conservation,"Agriculture, Natural Resources, Commerce, Fiscal"
5069,104497-19320,104497,FE,17825,CAREY L MORRIS,Employer,19320,HUMANE SOCIETY OF THE UNITED STATES,23-Mar,4/25/2023,16514,HUMANE SOCIETY OF THE UNITED STATES,3500.0,0.0,3500.0,0.0,0.0,0.0,0.0,0.0,0.0,0.0,3500.0,19320,Direct,,,View report (https://accesshub.pdc.wa.gov/node/104497),Environmental Affairs - natural resources - parks,Animal Conservation,"Agriculture, Natural Resources, Commerce, Fiscal"
5070,101287-100981,101287,FE,17825,CAREY L MORRIS,Employer,100981,RETIRED PUBLIC EMPLOYEES COUNCIL OF WA,23-Jan,4/25/2023,16859,RETIRED PUBLIC EMPLOYEES COUNCIL OF WA,2000.0,0.0,2000.0,0.0,0.0,0.0,0.0,0.0,0.0,0.0,2000.0,100981,Direct,,,View report (https://accesshub.pdc.wa.gov/node/101287),Fiscal,"Pension, COLA, 5169","Fiscal, HCA"
5071,102923-100981,102923,FE,17825,CAREY L MORRIS,Employer,100981,RETIRED PUBLIC EMPLOYEES COUNCIL OF WA,23-Feb,4/25/2023,16859,RETIRED PUBLIC EMPLOYEES COUNCIL OF WA,2000.0,0.0,2000.0,0.0,0.0,0.0,0.0,0.0,0.0,0.0,2000.0,100981,Direct,,,View report (https://accesshub.pdc.wa.gov/node/102923),Fiscal,"Pension, COLA, 5169","Fiscal, HCA"
5072,104497-100981,104497,FE,17825,CAREY L MORRIS,Employer,100981,RETIRED PUBLIC EMPLOYEES COUNCIL OF WA,23-Mar,4/25/2023,16859,RETIRED PUBLIC EMPLOYEES COUNCIL OF WA,2000.0,0.0,2000.0,0.0,0.0,0.0,0.0,0.0,0.0,0.0,2000.0,100981,Direct,,,View report (https://accesshub.pdc.wa.gov/node/104497),Fiscal,"Pension, COLA, 5169","Fiscal, HCA"
5073,101287-83346,101287,FE,17825,CAREY L MORRIS,Employer,83346,WA ASSN OF NATUROPATHIC PHYSICIANS,23-Jan,4/25/2023,17154,WA ASSN OF NATUROPATHIC PHYSICIANS,3500.0,0.0,3500.0,0.0,0.0,0.0,0.0,0.0,0.0,0.0,3500.0,83346,Direct,,,View report (https://accesshub.pdc.wa.gov/node/101287),Health Care,5088,"Healthcare, Workforce"
5074,102923-83346,102923,FE,17825,CAREY L MORRIS,Employer,83346,WA ASSN OF NATUROPATHIC PHYSICIANS,23-Feb,4/25/2023,17154,WA ASSN OF NATUROPATHIC PHYSICIANS,3500.0,0.0,3500.0,0.0,0.0,0.0,0.0,0.0,0.0,0.0,3500.0,83346,Direct,,,View report (https://accesshub.pdc.wa.gov/node/102923),Health Care,5088,"Healthcare, Workforce"
5075,104497-83346,104497,FE,17825,CAREY L MORRIS,Employer,83346,WA ASSN OF NATUROPATHIC PHYSICIANS,23-Mar,4/25/2023,17154,WA ASSN OF NATUROPATHIC PHYSICIANS,3500.0,0.0,3500.0,0.0,0.0,0.0,0.0,0.0,0.0,0.0,3500.0,83346,Direct,,,View report (https://accesshub.pdc.wa.gov/node/104497),Health Care,5088,"Healthcare, Workforce"
5076,101287-19324,101287,FE,17825,CAREY L MORRIS,Employer,19324,WA ST COALITION  AGAINST DOMESTIC VIOLENCE,23-Jan,4/25/2023,17227,WA ST COALITION  AGAINST DOMESTIC VIOLENCE,3859.0,0.0,3859.0,0.0,0.0,0.0,0.0,0.0,0.0,0.0,3859.0,19324,Direct,,,View report (https://accesshub.pdc.wa.gov/node/101287),,,
5077,102923-19324,102923,FE,17825,CAREY L MORRIS,Employer,19324,WA ST COALITION  AGAINST DOMESTIC VIOLENCE,23-Feb,4/25/2023,17227,WA ST COALITION  AGAINST DOMESTIC VIOLENCE,3859.0,0.0,3859.0,0.0,0.0,0.0,0.0,0.0,0.0,0.0,3859.0,19324,Direct,,,View report (https://accesshub.pdc.wa.gov/node/102923),,,
5078,104497-19324,104497,FE,17825,CAREY L MORRIS,Employer,19324,WA ST COALITION  AGAINST DOMESTIC VIOLENCE,23-Mar,4/25/2023,17227,WA ST COALITION  AGAINST DOMESTIC VIOLENCE,3859.0,0.0,3859.0,0.0,0.0,0.0,0.0,0.0,0.0,0.0,3859.0,19324,Direct,,,View report (https://accesshub.pdc.wa.gov/node/104497),,,
5079,101287-95720,101287,FE,17825,CAREY L MORRIS,Employer,95720,Washington State Charter School Commission,23-Jan,4/25/2023,60009,Washington State Charter School Commission,4000.0,0.0,4000.0,0.0,0.0,0.0,0.0,0.0,0.0,0.0,4000.0,95720,Direct,,,View report (https://accesshub.pdc.wa.gov/node/101287),Education,Charter Public Schools,"Education, Fiscal, OSPI, DCYF"
5080,102923-95720,102923,FE,17825,CAREY L MORRIS,Employer,95720,Washington State Charter School Commission,23-Feb,4/25/2023,60009,Washington State Charter School Commission,4000.0,0.0,4000.0,0.0,0.0,0.0,0.0,0.0,0.0,0.0,4000.0,95720,Direct,,,View report (https://accesshub.pdc.wa.gov/node/102923),Education,Charter Public Schools,"Education, Fiscal, OSPI, DCYF"
5081,104497-95720,104497,FE,17825,CAREY L MORRIS,Employer,95720,Washington State Charter School Commission,23-Mar,4/25/2023,60009,Washington State Charter School Commission,4000.0,0.0,4000.0,0.0,0.0,0.0,0.0,0.0,0.0,0.0,4000.0,95720,Direct,,,View report (https://accesshub.pdc.wa.gov/node/104497),Education,Charter Public Schools,"Education, Fiscal, OSPI, DCYF"
5082,101287-62845,101287,FE,17825,CAREY L MORRIS,Employer,62845,Start Early,23-Jan,4/25/2023,61435,Start Early,3500.0,0.0,3500.0,0.0,0.0,0.0,0.0,0.0,0.0,0.0,3500.0,62845,Direct,,,View report (https://accesshub.pdc.wa.gov/node/101287),Education,"Early Learning - Home Visiting, Childcare","Early Learning, Fiscal, Human Services, Education, Health Care"
5083,102923-62845,102923,FE,17825,CAREY L MORRIS,Employer,62845,Start Early,23-Feb,4/25/2023,61435,Start Early,3500.0,0.0,3500.0,0.0,0.0,0.0,0.0,0.0,0.0,0.0,3500.0,62845,Direct,,,View report (https://accesshub.pdc.wa.gov/node/102923),Education,"Early Learning - Home Visiting, Childcare","Early Learning, Fiscal, Human Services, Education, Health Care"
5084,104497-62845,104497,FE,17825,CAREY L MORRIS,Employer,62845,Start Early,23-Mar,4/25/2023,61435,Start Early,3500.0,0.0,3500.0,0.0,0.0,0.0,0.0,0.0,0.0,0.0,3500.0,62845,Direct,,,View report (https://accesshub.pdc.wa.gov/node/104497),Education,"Early Learning - Home Visiting, Childcare","Early Learning, Fiscal, Human Services, Education, Health Care"
5085,101287-99941,101287,FE,17825,CAREY L MORRIS,Employer,99941,Washington Wildlife First,23-Jan,4/25/2023,86592,Washington Wildlife First,2000.0,0.0,2000.0,0.0,0.0,0.0,0.0,0.0,0.0,0.0,2000.0,99941,Direct,,,View report (https://accesshub.pdc.wa.gov/node/101287),Environmental Affairs - natural resources - parks,Conservation,"Fiscal, Natural Resources, Fish and Wildlife, Agriculture"
5086,102923-99941,102923,FE,17825,CAREY L MORRIS,Employer,99941,Washington Wildlife First,23-Feb,4/25/2023,86592,Washington Wildlife First,2000.0,0.0,2000.0,0.0,0.0,0.0,0.0,0.0,0.0,0.0,2000.0,99941,Direct,,,View report (https://accesshub.pdc.wa.gov/node/102923),Environmental Affairs - natural resources - parks,Conservation,"Fiscal, Natural Resources, Fish and Wildlife, Agriculture"
5087,104497-99941,104497,FE,17825,CAREY L MORRIS,Employer,99941,Washington Wildlife First,23-Mar,4/25/2023,86592,Washington Wildlife First,2000.0,0.0,2000.0,0.0,0.0,0.0,0.0,0.0,0.0,0.0,2000.0,99941,Direct,,,View report (https://accesshub.pdc.wa.gov/node/104497),Environmental Affairs - natural resources - parks,Conservation,"Fiscal, Natural Resources, Fish and Wildlife, Agriculture"
5088,101287-99942,101287,FE,17825,CAREY L MORRIS,Employer,99942,LEAGUE OF EDUCATION VOTERS,23-Jan,4/25/2023,99457,LEAGUE OF EDUCATION VOTERS,5000.0,0.0,5000.0,0.0,0.0,0.0,0.0,0.0,0.0,0.0,5000.0,99942,Direct,,,View report (https://accesshub.pdc.wa.gov/node/101287),Education,"Education, Equity","Education, Fiscal, Early Learning, Higher Education"
5089,102923-99942,102923,FE,17825,CAREY L MORRIS,Employer,99942,LEAGUE OF EDUCATION VOTERS,23-Feb,4/25/2023,99457,LEAGUE OF EDUCATION VOTERS,5000.0,0.0,5000.0,0.0,0.0,0.0,0.0,0.0,0.0,0.0,5000.0,99942,Direct,,,View report (https://accesshub.pdc.wa.gov/node/102923),Education,"Education, Equity","Education, Fiscal, Early Learning, Higher Education"
5090,104497-99942,104497,FE,17825,CAREY L MORRIS,Employer,99942,LEAGUE OF EDUCATION VOTERS,23-Mar,4/25/2023,99457,LEAGUE OF EDUCATION VOTERS,5000.0,0.0,5000.0,0.0,0.0,0.0,0.0,0.0,0.0,0.0,5000.0,99942,Direct,,,View report (https://accesshub.pdc.wa.gov/node/104497),Education,"Education, Equity","Education, Fiscal, Early Learning, Higher Education"
5092,104507-93434,104507,FE,93410,Clowers Consulting,Employer,93434,Sno-King Water District Coalition,23-Apr,4/26/2023,16925,Sno-King Water District Coalition,2320.0,0.0,2320.0,0.0,0.0,0.0,0.0,0.0,0.0,0.0,2320.0,93434,Direct,,,View report (https://accesshub.pdc.wa.gov/node/104507),,,
5093,104507-93442,104507,FE,93410,Clowers Consulting,Employer,93442,WA ASSN OF SEWER & WATER DISTRICTS (CIVIC GROUP*),23-Apr,4/26/2023,17198,WA ASSN OF SEWER & WATER DISTRICTS,1000.0,0.0,1000.0,0.0,0.0,0.0,0.0,0.0,0.0,0.0,1000.0,93442,Subcontract,17450.0,CIVIC GROUP*,View report (https://accesshub.pdc.wa.gov/node/104507),,,
5094,90661-87156,90661,FE,86846,Anna Fahey,Employer,87156,Sightline Institute,22-Feb,4/26/2023,37788,Sightline Institute,730.78,0.0,730.78,0.0,0.0,0.0,0.0,0.0,0.0,0.0,730.78,87156,Direct,,,View report (https://accesshub.pdc.wa.gov/node/90661),Environmental Affairs - natural resources - parks,HB1660,"Senate Housing and Local Govt, Senate Rules committees"
5095,90669-87156,90669,FE,86846,Anna Fahey,Employer,87156,Sightline Institute,22-Mar,4/26/2023,37788,Sightline Institute,292.31,0.0,292.31,0.0,0.0,0.0,0.0,0.0,0.0,0.0,292.31,87156,Direct,,,View report (https://accesshub.pdc.wa.gov/node/90669),Environmental Affairs - natural resources - parks,HB1660,"Senate Housing and Local Govt, Senate Rules committees"
5096,95362-87156,95362,FE,86846,Anna Fahey,Employer,87156,Sightline Institute,22-Aug,4/26/2023,37788,Sightline Institute,365.39,0.0,365.39,0.0,0.0,0.0,0.0,0.0,0.0,0.0,365.39,87156,Direct,,,View report (https://accesshub.pdc.wa.gov/node/95362),Environmental Affairs - natural resources - parks,Budget - refinery study,"Senator Liz Lovelett, Rep. Alex Ramel"
5097,96103-87156,96103,FE,86846,Anna Fahey,Employer,87156,Sightline Institute,22-Sep,4/26/2023,37788,Sightline Institute,219.23,0.0,219.23,0.0,0.0,0.0,0.0,0.0,0.0,0.0,219.23,87156,Direct,,,View report (https://accesshub.pdc.wa.gov/node/96103),State government,Housing affordability and landuse,"Rep Jessica Bateman, Rep. Nicole Macri"
5098,97802-87156,97802,FE,86846,Anna Fahey,Employer,87156,Sightline Institute,22-Nov,4/26/2023,37788,Sightline Institute,365.39,0.0,365.39,0.0,0.0,0.0,0.0,0.0,0.0,0.0,365.39,87156,Direct,,,View report (https://accesshub.pdc.wa.gov/node/97802),Energy and utilities,oil refinery study budget proviso,Rep. Mia Gregerson
5099,100123-87156,100123,FE,86846,Anna Fahey,Employer,87156,Sightline Institute,22-Dec,4/26/2023,37788,Sightline Institute,511.55,0.0,511.55,0.0,0.0,0.0,0.0,0.0,0.0,0.0,511.55,87156,Direct,,,View report (https://accesshub.pdc.wa.gov/node/100123),Energy and utilities,oil refinery study budget proviso,Rep. Mia Gregerson
5100,100639-87156,100639,FE,86846,Anna Fahey,Employer,87156,Sightline Institute,23-Jan,4/26/2023,37788,Sightline Institute,496.0,0.0,496.0,0.0,0.0,0.0,0.0,0.0,0.0,0.0,496.0,87156,Direct,,,View report (https://accesshub.pdc.wa.gov/node/100639),Energy and utilities,oil refinery study budget proviso,"Rep. Mia Gregerson, Rep. Debra Lekanoff, Sen. Keiser"
5101,100642-87156,100642,FE,86846,Anna Fahey,Employer,87156,Sightline Institute,23-Feb,4/26/2023,37788,Sightline Institute,396.8,0.0,396.8,0.0,0.0,0.0,0.0,0.0,0.0,0.0,396.8,87156,Direct,,,View report (https://accesshub.pdc.wa.gov/node/100642),Local government,HB 1110,"House Housing Cmt; House Appropriations Cmt, Rules Cmt, House members"
5102,104009-87156,104009,FE,86846,Anna Fahey,Employer,87156,Sightline Institute,23-Mar,4/26/2023,37788,Sightline Institute,3075.2,0.0,3075.2,0.0,0.0,0.0,276.21,0.0,0.0,276.21,3351.41,87156,Direct,,,View report (https://accesshub.pdc.wa.gov/node/104009),Local government,Housing/zoning including HB 1110; HB 1337,"Ways and Means Committee, Senate; House and Senate members"
5103,104507-93441,104507,FE,93410,Clowers Consulting,Employer,93441,Associated Day Spas of Washington (CIVIC GROUP*),23-Apr,4/26/2023,70279,Associated Day Spas of Washington,1000.0,0.0,1000.0,0.0,0.0,0.0,0.0,0.0,0.0,0.0,1000.0,93441,Subcontract,17450.0,CIVIC GROUP*,View report (https://accesshub.pdc.wa.gov/node/104507),,,
5104,104510-76462,104510,FE,72202,Cascade AIDS Project,Employer,76462,Cascade AIDS Project,23-Apr,4/26/2023,76460,Cascade AIDS Project,3432.0,0.0,3432.0,0.0,0.0,0.0,0.0,0.0,0.0,0.0,3432.0,76462,Direct,,,View report (https://accesshub.pdc.wa.gov/node/104510),Health Care,SB 5599,Gov. Inslee
5105,104507-99891,104507,FE,93410,Clowers Consulting,Employer,99891,College Possible Washington,23-Apr,4/26/2023,94586,College Possible Washington,1500.0,0.0,1500.0,0.0,0.0,0.0,0.0,0.0,0.0,0.0,1500.0,99891,Direct,,,View report (https://accesshub.pdc.wa.gov/node/104507),Fiscal,Budget Request,Legislators
5106,104507-102363,104507,FE,93410,Clowers Consulting,Employer,102363,White Salmon Valley Pool Metropolitan Park District,23-Apr,4/26/2023,102358,White Salmon Valley Pool Metropolitan Park District,2500.0,0.0,2500.0,0.0,0.0,0.0,0.0,0.0,0.0,0.0,2500.0,102363,Direct,,,View report (https://accesshub.pdc.wa.gov/node/104507),Fiscal,Budget Request,Legislators
5107,104511-19341,104511,FE,17840,GRANT NELSON,Employer,19341,AMERICAN CHEMISTRY COUNCIL,23-Mar,4/27/2023,16094,AMERICAN CHEMISTRY COUNCIL,10000.0,0.0,10000.0,0.0,0.0,0.0,0.0,0.0,0.0,0.0,10000.0,19341,Direct,,,View report (https://accesshub.pdc.wa.gov/node/104511),Environmental Affairs - natural resources - parks,"HFOs, alternative recycling","E&E, EET Committee Members,"
5108,104511-19342,104511,FE,17840,GRANT NELSON,Employer,19342,"UNIVERSITY OF PHOENIX, INC.",23-Mar,4/27/2023,16130,"UNIVERSITY OF PHOENIX, INC.",4000.0,0.0,4000.0,0.0,0.0,0.0,0.0,0.0,0.0,0.0,4000.0,19342,Direct,,,View report (https://accesshub.pdc.wa.gov/node/104511),,,
5109,104511-19343,104511,FE,17840,GRANT NELSON,Employer,19343,"Ash Grove Cement Co., a CRH Company",23-Mar,4/27/2023,16143,"Ash Grove Cement Co., a CRH Company",6000.0,0.0,6000.0,0.0,0.0,0.0,0.0,0.0,0.0,0.0,6000.0,19343,Direct,,,View report (https://accesshub.pdc.wa.gov/node/104511),Environmental Affairs - natural resources - parks,"buy clean, build clean",House & Senate members
5110,85545-49849,85545,FE,17448,"DONNA CHRISTENSEN, PACIFIC GOVERNMENT AFFAIRS",Employer,49849,Catholic Community Services of Western WA,21-Nov,4/27/2023,16239,Catholic Community Services of Western WA,5000.0,0.0,5000.0,0.0,0.0,0.0,0.0,0.0,0.0,0.0,5000.0,49849,Direct,,,View report (https://accesshub.pdc.wa.gov/node/85545),Human services,poverty,"Human services, budget committees, Commerce, DSHS, DCYF"
5111,86477-49849,86477,FE,17448,"DONNA CHRISTENSEN, PACIFIC GOVERNMENT AFFAIRS",Employer,49849,Catholic Community Services of Western WA,21-Dec,4/27/2023,16239,Catholic Community Services of Western WA,5000.0,0.0,5000.0,0.0,0.0,0.0,0.0,0.0,0.0,0.0,5000.0,49849,Direct,,,View report (https://accesshub.pdc.wa.gov/node/86477),Human services,poverty,"Human services, budget committees, Commerce, DSHS, DCYF"
5112,87562-49849,87562,FE,17448,"DONNA CHRISTENSEN, PACIFIC GOVERNMENT AFFAIRS",Employer,49849,Catholic Community Services of Western WA,22-Jan,4/27/2023,16239,Catholic Community Services of Western WA,5000.0,0.0,5000.0,0.0,0.0,0.0,0.0,0.0,0.0,0.0,5000.0,49849,Direct,,,View report (https://accesshub.pdc.wa.gov/node/87562),Human services,poverty,"Human services, budget committees, Commerce, DSHS, DCYF"
5113,89177-49849,89177,FE,17448,"DONNA CHRISTENSEN, PACIFIC GOVERNMENT AFFAIRS",Employer,49849,Catholic Community Services of Western WA,22-Feb,4/27/2023,16239,Catholic Community Services of Western WA,5000.0,0.0,5000.0,0.0,0.0,0.0,0.0,0.0,0.0,0.0,5000.0,49849,Direct,,,View report (https://accesshub.pdc.wa.gov/node/89177),Human services,poverty,"Human services, budget committees, Commerce, DSHS, DCYF"
5114,90801-49849,90801,FE,17448,"DONNA CHRISTENSEN, PACIFIC GOVERNMENT AFFAIRS",Employer,49849,Catholic Community Services of Western WA,22-Mar,4/27/2023,16239,Catholic Community Services of Western WA,5000.0,0.0,5000.0,0.0,0.0,0.0,0.0,0.0,0.0,0.0,5000.0,49849,Direct,,,View report (https://accesshub.pdc.wa.gov/node/90801),Human services,poverty,"Human services, budget committees, Commerce, DSHS, DCYF"
5115,91598-49849,91598,FE,17448,"DONNA CHRISTENSEN, PACIFIC GOVERNMENT AFFAIRS",Employer,49849,Catholic Community Services of Western WA,22-Apr,4/27/2023,16239,Catholic Community Services of Western WA,5000.0,0.0,5000.0,0.0,0.0,0.0,0.0,0.0,0.0,0.0,5000.0,49849,Direct,,,View report (https://accesshub.pdc.wa.gov/node/91598),Human services,poverty,"Human services, budget committees, Commerce, DSHS, DCYF"
5116,93126-49849,93126,FE,17448,"DONNA CHRISTENSEN, PACIFIC GOVERNMENT AFFAIRS",Employer,49849,Catholic Community Services of Western WA,22-May,4/27/2023,16239,Catholic Community Services of Western WA,5000.0,0.0,5000.0,0.0,0.0,0.0,0.0,0.0,0.0,0.0,5000.0,49849,Direct,,,View report (https://accesshub.pdc.wa.gov/node/93126),Human services,poverty,"Human services, budget committees, Commerce, DSHS, DCYF"
5117,93543-49849,93543,FE,17448,"DONNA CHRISTENSEN, PACIFIC GOVERNMENT AFFAIRS",Employer,49849,Catholic Community Services of Western WA,22-Jun,4/27/2023,16239,Catholic Community Services of Western WA,5000.0,0.0,5000.0,0.0,0.0,0.0,0.0,0.0,0.0,0.0,5000.0,49849,Direct,,,View report (https://accesshub.pdc.wa.gov/node/93543),Human services,poverty,"Human services, budget committees, Commerce, DSHS, DCYF"
5118,94419-49849,94419,FE,17448,"DONNA CHRISTENSEN, PACIFIC GOVERNMENT AFFAIRS",Employer,49849,Catholic Community Services of Western WA,22-Jul,4/27/2023,16239,Catholic Community Services of Western WA,5000.0,0.0,5000.0,0.0,0.0,0.0,0.0,0.0,0.0,0.0,5000.0,49849,Direct,,,View report (https://accesshub.pdc.wa.gov/node/94419),Human services,poverty,"Human services, budget committees, Commerce, DSHS, DCYF"
5119,95133-49849,95133,FE,17448,"DONNA CHRISTENSEN, PACIFIC GOVERNMENT AFFAIRS",Employer,49849,Catholic Community Services of Western WA,22-Aug,4/27/2023,16239,Catholic Community Services of Western WA,5000.0,0.0,5000.0,0.0,0.0,0.0,0.0,0.0,0.0,0.0,5000.0,49849,Direct,,,View report (https://accesshub.pdc.wa.gov/node/95133),Human services,poverty,"Human services, budget committees, Commerce, DSHS, DCYF"
5120,95953-49849,95953,FE,17448,"DONNA CHRISTENSEN, PACIFIC GOVERNMENT AFFAIRS",Employer,49849,Catholic Community Services of Western WA,22-Sep,4/27/2023,16239,Catholic Community Services of Western WA,5000.0,0.0,5000.0,0.0,0.0,0.0,0.0,0.0,0.0,0.0,5000.0,49849,Direct,,,View report (https://accesshub.pdc.wa.gov/node/95953),Human services,poverty,"Human services, budget committees, Commerce, DSHS, DCYF"
5121,96788-49849,96788,FE,17448,"DONNA CHRISTENSEN, PACIFIC GOVERNMENT AFFAIRS",Employer,49849,Catholic Community Services of Western WA,22-Oct,4/27/2023,16239,Catholic Community Services of Western WA,5000.0,0.0,5000.0,0.0,0.0,0.0,0.0,0.0,0.0,0.0,5000.0,49849,Direct,,,View report (https://accesshub.pdc.wa.gov/node/96788),Human services,poverty,"Human services, budget committees, Commerce, DSHS, DCYF"
5122,98253-49849,98253,FE,17448,"DONNA CHRISTENSEN, PACIFIC GOVERNMENT AFFAIRS",Employer,49849,Catholic Community Services of Western WA,22-Nov,4/27/2023,16239,Catholic Community Services of Western WA,5000.0,0.0,5000.0,0.0,0.0,0.0,0.0,0.0,0.0,0.0,5000.0,49849,Direct,,,View report (https://accesshub.pdc.wa.gov/node/98253),Human services,poverty,"Human services, budget committees, Commerce, DSHS, DCYF"
5123,99762-49849,99762,FE,17448,"DONNA CHRISTENSEN, PACIFIC GOVERNMENT AFFAIRS",Employer,49849,Catholic Community Services of Western WA,22-Dec,4/27/2023,16239,Catholic Community Services of Western WA,5000.0,0.0,5000.0,0.0,0.0,0.0,0.0,0.0,0.0,0.0,5000.0,49849,Direct,,,View report (https://accesshub.pdc.wa.gov/node/99762),Human services,poverty,"Human services, budget committees, Commerce, DSHS, DCYF"
5124,104512-37347,104512,FE,25302,Northwest Solutions,Employer,37347,CITY OF WALLA WALLA,23-Feb,4/27/2023,16271,CITY OF WALLA WALLA,1750.0,0.0,1750.0,0.0,0.0,0.0,0.0,0.0,0.0,0.0,1750.0,37347,Direct,,,View report (https://accesshub.pdc.wa.gov/node/104512),State government,HB 1523,various
5125,104513-37347,104513,FE,25302,Northwest Solutions,Employer,37347,CITY OF WALLA WALLA,23-Mar,4/27/2023,16271,CITY OF WALLA WALLA,1750.0,0.0,1750.0,0.0,0.0,0.0,0.0,0.0,0.0,0.0,1750.0,37347,Direct,,,View report (https://accesshub.pdc.wa.gov/node/104513),State government,HB 1523,various
5126,104512-80882,104512,FE,25302,Northwest Solutions,Employer,80882,CITY OF OMAK,23-Feb,4/27/2023,16301,CITY OF OMAK,1750.0,0.0,1750.0,0.0,0.0,0.0,0.0,0.0,0.0,0.0,1750.0,80882,Direct,,,View report (https://accesshub.pdc.wa.gov/node/104512),,,
5127,104513-80882,104513,FE,25302,Northwest Solutions,Employer,80882,CITY OF OMAK,23-Mar,4/27/2023,16301,CITY OF OMAK,1750.0,0.0,1750.0,0.0,0.0,0.0,0.0,0.0,0.0,0.0,1750.0,80882,Direct,,,View report (https://accesshub.pdc.wa.gov/node/104513),,,
5128,104511-28412,104511,FE,17840,GRANT NELSON,Employer,28412,INVENERGY,23-Mar,4/27/2023,16546,INVENERGY,5000.0,0.0,5000.0,0.0,0.0,0.0,0.0,0.0,0.0,0.0,5000.0,28412,Direct,,,View report (https://accesshub.pdc.wa.gov/node/104511),,,
5129,104512-60682,104512,FE,25302,Northwest Solutions,Employer,60682,NoaNet,23-Feb,4/27/2023,16690,NoaNet,6500.0,0.0,6500.0,0.0,0.0,0.0,0.0,0.0,0.0,0.0,6500.0,60682,Direct,,,View report (https://accesshub.pdc.wa.gov/node/104512),,,
5130,104513-60682,104513,FE,25302,Northwest Solutions,Employer,60682,NoaNet,23-Mar,4/27/2023,16690,NoaNet,6500.0,0.0,6500.0,0.0,0.0,0.0,0.0,0.0,0.0,0.0,6500.0,60682,Direct,,,View report (https://accesshub.pdc.wa.gov/node/104513),,,
5131,104514-86338,104514,FE,27426,Peggen & Mara Political Consulting LLP,Employer,86338,SQUAXIN ISLAND TRIBE,23-Feb,4/27/2023,16945,SQUAXIN ISLAND TRIBE,4750.0,0.0,4750.0,0.0,0.0,0.0,0.0,0.0,0.0,0.0,4750.0,86338,Direct,,,View report (https://accesshub.pdc.wa.gov/node/104514),,,
5132,104515-86338,104515,FE,27426,Peggen & Mara Political Consulting LLP,Employer,86338,SQUAXIN ISLAND TRIBE,23-Mar,4/27/2023,16945,SQUAXIN ISLAND TRIBE,4750.0,0.0,4750.0,0.0,0.0,0.0,0.0,0.0,0.0,0.0,4750.0,86338,Direct,,,View report (https://accesshub.pdc.wa.gov/node/104515),,,
5133,104514-45763,104514,FE,27426,Peggen & Mara Political Consulting LLP,Employer,45763,STILLAGUAMISH TRIBE OF INDIANS,23-Feb,4/27/2023,16955,STILLAGUAMISH TRIBE OF INDIANS,7500.0,0.0,7500.0,0.0,0.0,0.0,0.0,0.0,0.0,0.0,7500.0,45763,Direct,,,View report (https://accesshub.pdc.wa.gov/node/104514),Fiscal,Capital Budget,3/10/21 Rep Goodman re: SB 5051 3/16/21 Sen Pedersen re: SB 5051 3/16/21 Rep Lekanoff re: SB 5051 3/25/21 Rep Steele re: capital budget 3/29/21 Rep Tharinger re: SB 5051 3/29/21 Rep Calider re: SB 5051
5134,104515-45763,104515,FE,27426,Peggen & Mara Political Consulting LLP,Employer,45763,STILLAGUAMISH TRIBE OF INDIANS,23-Mar,4/27/2023,16955,STILLAGUAMISH TRIBE OF INDIANS,7500.0,0.0,7500.0,0.0,0.0,0.0,0.0,0.0,0.0,0.0,7500.0,45763,Direct,,,View report (https://accesshub.pdc.wa.gov/node/104515),Fiscal,Capital Budget,3/10/21 Rep Goodman re: SB 5051 3/16/21 Sen Pedersen re: SB 5051 3/16/21 Rep Lekanoff re: SB 5051 3/25/21 Rep Steele re: capital budget 3/29/21 Rep Tharinger re: SB 5051 3/29/21 Rep Calider re: SB 5051
5135,104511-19348,104511,FE,17840,GRANT NELSON,Employer,19348,Toy Association,23-Mar,4/27/2023,16988,Toy Association,4000.0,0.0,4000.0,0.0,0.0,0.0,0.0,0.0,0.0,0.0,4000.0,19348,Direct,,,View report (https://accesshub.pdc.wa.gov/node/104511),Technology,battery EPR,House& Senate Members
5136,85545-18438,85545,FE,17448,"DONNA CHRISTENSEN, PACIFIC GOVERNMENT AFFAIRS",Employer,18438,WA COALITION FOR GIFTED EDUCATION,21-Nov,4/27/2023,17079,WA COALITION FOR GIFTED EDUCATION,850.0,0.0,850.0,0.0,0.0,0.0,0.0,0.0,0.0,0.0,850.0,18438,Direct,,,View report (https://accesshub.pdc.wa.gov/node/85545),Education,HCP,"Education,Early Learning & K-12, Appropriations, Ways & Means, OSPI"
5137,86477-18438,86477,FE,17448,"DONNA CHRISTENSEN, PACIFIC GOVERNMENT AFFAIRS",Employer,18438,WA COALITION FOR GIFTED EDUCATION,21-Dec,4/27/2023,17079,WA COALITION FOR GIFTED EDUCATION,850.0,0.0,850.0,0.0,0.0,0.0,0.0,0.0,0.0,0.0,850.0,18438,Direct,,,View report (https://accesshub.pdc.wa.gov/node/86477),Education,HCP,"Education,Early Learning & K-12, Appropriations, Ways & Means, OSPI"
5138,87562-18438,87562,FE,17448,"DONNA CHRISTENSEN, PACIFIC GOVERNMENT AFFAIRS",Employer,18438,WA COALITION FOR GIFTED EDUCATION,22-Jan,4/27/2023,17079,WA COALITION FOR GIFTED EDUCATION,850.0,0.0,850.0,0.0,0.0,0.0,0.0,0.0,0.0,0.0,850.0,18438,Direct,,,View report (https://accesshub.pdc.wa.gov/node/87562),Education,HCP,"Education,Early Learning & K-12, Appropriations, Ways & Means, OSPI"
5139,89177-18438,89177,FE,17448,"DONNA CHRISTENSEN, PACIFIC GOVERNMENT AFFAIRS",Employer,18438,WA COALITION FOR GIFTED EDUCATION,22-Feb,4/27/2023,17079,WA COALITION FOR GIFTED EDUCATION,850.0,0.0,850.0,0.0,0.0,0.0,0.0,0.0,0.0,0.0,850.0,18438,Direct,,,View report (https://accesshub.pdc.wa.gov/node/89177),Education,HCP,"Education,Early Learning & K-12, Appropriations, Ways & Means, OSPI"
5140,90801-18438,90801,FE,17448,"DONNA CHRISTENSEN, PACIFIC GOVERNMENT AFFAIRS",Employer,18438,WA COALITION FOR GIFTED EDUCATION,22-Mar,4/27/2023,17079,WA COALITION FOR GIFTED EDUCATION,850.0,0.0,850.0,0.0,0.0,0.0,0.0,0.0,0.0,0.0,850.0,18438,Direct,,,View report (https://accesshub.pdc.wa.gov/node/90801),Education,HCP,"Education,Early Learning & K-12, Appropriations, Ways & Means, OSPI"
5141,91598-18438,91598,FE,17448,"DONNA CHRISTENSEN, PACIFIC GOVERNMENT AFFAIRS",Employer,18438,WA COALITION FOR GIFTED EDUCATION,22-Apr,4/27/2023,17079,WA COALITION FOR GIFTED EDUCATION,850.0,0.0,850.0,0.0,0.0,0.0,0.0,0.0,0.0,0.0,850.0,18438,Direct,,,View report (https://accesshub.pdc.wa.gov/node/91598),Education,HCP,"Education,Early Learning & K-12, Appropriations, Ways & Means, OSPI"
5142,93126-18438,93126,FE,17448,"DONNA CHRISTENSEN, PACIFIC GOVERNMENT AFFAIRS",Employer,18438,WA COALITION FOR GIFTED EDUCATION,22-May,4/27/2023,17079,WA COALITION FOR GIFTED EDUCATION,850.0,0.0,850.0,0.0,0.0,0.0,0.0,0.0,0.0,0.0,850.0,18438,Direct,,,View report (https://accesshub.pdc.wa.gov/node/93126),Education,HCP,"Education,Early Learning & K-12, Appropriations, Ways & Means, OSPI"
5143,93543-18438,93543,FE,17448,"DONNA CHRISTENSEN, PACIFIC GOVERNMENT AFFAIRS",Employer,18438,WA COALITION FOR GIFTED EDUCATION,22-Jun,4/27/2023,17079,WA COALITION FOR GIFTED EDUCATION,850.0,0.0,850.0,0.0,0.0,0.0,0.0,0.0,0.0,0.0,850.0,18438,Direct,,,View report (https://accesshub.pdc.wa.gov/node/93543),Education,HCP,"Education,Early Learning & K-12, Appropriations, Ways & Means, OSPI"
5144,94419-18438,94419,FE,17448,"DONNA CHRISTENSEN, PACIFIC GOVERNMENT AFFAIRS",Employer,18438,WA COALITION FOR GIFTED EDUCATION,22-Jul,4/27/2023,17079,WA COALITION FOR GIFTED EDUCATION,850.0,0.0,850.0,0.0,0.0,0.0,0.0,0.0,0.0,0.0,850.0,18438,Direct,,,View report (https://accesshub.pdc.wa.gov/node/94419),Education,HCP,"Education,Early Learning & K-12, Appropriations, Ways & Means, OSPI"
5145,95133-18438,95133,FE,17448,"DONNA CHRISTENSEN, PACIFIC GOVERNMENT AFFAIRS",Employer,18438,WA COALITION FOR GIFTED EDUCATION,22-Aug,4/27/2023,17079,WA COALITION FOR GIFTED EDUCATION,850.0,0.0,850.0,0.0,0.0,0.0,0.0,0.0,0.0,0.0,850.0,18438,Direct,,,View report (https://accesshub.pdc.wa.gov/node/95133),Education,HCP,"Education,Early Learning & K-12, Appropriations, Ways & Means, OSPI"
5146,95953-18438,95953,FE,17448,"DONNA CHRISTENSEN, PACIFIC GOVERNMENT AFFAIRS",Employer,18438,WA COALITION FOR GIFTED EDUCATION,22-Sep,4/27/2023,17079,WA COALITION FOR GIFTED EDUCATION,850.0,0.0,850.0,0.0,0.0,0.0,0.0,0.0,0.0,0.0,850.0,18438,Direct,,,View report (https://accesshub.pdc.wa.gov/node/95953),Education,HCP,"Education,Early Learning & K-12, Appropriations, Ways & Means, OSPI"
5147,96788-18438,96788,FE,17448,"DONNA CHRISTENSEN, PACIFIC GOVERNMENT AFFAIRS",Employer,18438,WA COALITION FOR GIFTED EDUCATION,22-Oct,4/27/2023,17079,WA COALITION FOR GIFTED EDUCATION,850.0,0.0,850.0,0.0,0.0,0.0,0.0,0.0,0.0,0.0,850.0,18438,Direct,,,View report (https://accesshub.pdc.wa.gov/node/96788),Education,HCP,"Education,Early Learning & K-12, Appropriations, Ways & Means, OSPI"
5148,98253-18438,98253,FE,17448,"DONNA CHRISTENSEN, PACIFIC GOVERNMENT AFFAIRS",Employer,18438,WA COALITION FOR GIFTED EDUCATION,22-Nov,4/27/2023,17079,WA COALITION FOR GIFTED EDUCATION,850.0,0.0,850.0,0.0,0.0,0.0,0.0,0.0,0.0,0.0,850.0,18438,Direct,,,View report (https://accesshub.pdc.wa.gov/node/98253),Education,HCP,"Education,Early Learning & K-12, Appropriations, Ways & Means, OSPI"
5149,99762-18438,99762,FE,17448,"DONNA CHRISTENSEN, PACIFIC GOVERNMENT AFFAIRS",Employer,18438,WA COALITION FOR GIFTED EDUCATION,22-Dec,4/27/2023,17079,WA COALITION FOR GIFTED EDUCATION,850.0,0.0,850.0,0.0,0.0,0.0,0.0,0.0,0.0,0.0,850.0,18438,Direct,,,View report (https://accesshub.pdc.wa.gov/node/99762),Education,HCP,"Education,Early Learning & K-12, Appropriations, Ways & Means, OSPI"
5150,104511-39806,104511,FE,17840,GRANT NELSON,Employer,39806,WA PUBLIC UTILITIES DISTS ASSN,23-Mar,4/27/2023,17176,WA PUBLIC UTILITIES DISTS ASSN,4750.0,0.0,4750.0,0.0,0.0,0.0,0.0,0.0,0.0,0.0,4750.0,39806,Direct,,,View report (https://accesshub.pdc.wa.gov/node/104511),Environmental Affairs - natural resources - parks,"net metering, wildfires, heat moritorium","AGO, House & Senate members"
5151,104511-19350,104511,FE,17840,GRANT NELSON,Employer,19350,WA RURAL ELECTRIC CO-OP ASSN,23-Mar,4/27/2023,17181,WA RURAL ELECTRIC CO-OP ASSN,9000.0,0.0,9000.0,0.0,0.0,0.0,0.0,0.0,0.0,0.0,9000.0,19350,Direct,,,View report (https://accesshub.pdc.wa.gov/node/104511),Environmental Affairs - natural resources - parks,"net metering, wildfires, heat moritorium, B&O Tax Deduction","AGO, House & Senate members"
5152,85545-18439,85545,FE,17448,"DONNA CHRISTENSEN, PACIFIC GOVERNMENT AFFAIRS",Employer,18439,WA ST CATHOLIC CONFERENCE,21-Nov,4/27/2023,17228,WA ST CATHOLIC CONFERENCE,3000.0,0.0,3000.0,0.0,0.0,0.0,0.0,0.0,0.0,0.0,3000.0,18439,Direct,,,View report (https://accesshub.pdc.wa.gov/node/85545),Human services,Budget,"Budget committees, Human Services and Early Learning, Commerce, DSHS, DCYF"
5153,86477-18439,86477,FE,17448,"DONNA CHRISTENSEN, PACIFIC GOVERNMENT AFFAIRS",Employer,18439,WA ST CATHOLIC CONFERENCE,21-Dec,4/27/2023,17228,WA ST CATHOLIC CONFERENCE,3000.0,0.0,3000.0,0.0,0.0,0.0,0.0,0.0,0.0,0.0,3000.0,18439,Direct,,,View report (https://accesshub.pdc.wa.gov/node/86477),Human services,Budget,"Budget committees, Human Services and Early Learning, Commerce, DSHS, DCYF"
5154,87562-18439,87562,FE,17448,"DONNA CHRISTENSEN, PACIFIC GOVERNMENT AFFAIRS",Employer,18439,WA ST CATHOLIC CONFERENCE,22-Jan,4/27/2023,17228,WA ST CATHOLIC CONFERENCE,3000.0,0.0,3000.0,0.0,0.0,0.0,0.0,0.0,0.0,0.0,3000.0,18439,Direct,,,View report (https://accesshub.pdc.wa.gov/node/87562),Human services,Budget,"Budget committees, Human Services and Early Learning, Commerce, DSHS, DCYF"
5155,89177-18439,89177,FE,17448,"DONNA CHRISTENSEN, PACIFIC GOVERNMENT AFFAIRS",Employer,18439,WA ST CATHOLIC CONFERENCE,22-Feb,4/27/2023,17228,WA ST CATHOLIC CONFERENCE,3000.0,0.0,3000.0,0.0,0.0,0.0,0.0,0.0,0.0,0.0,3000.0,18439,Direct,,,View report (https://accesshub.pdc.wa.gov/node/89177),Human services,Budget,"Budget committees, Human Services and Early Learning, Commerce, DSHS, DCYF"
5156,90801-18439,90801,FE,17448,"DONNA CHRISTENSEN, PACIFIC GOVERNMENT AFFAIRS",Employer,18439,WA ST CATHOLIC CONFERENCE,22-Mar,4/27/2023,17228,WA ST CATHOLIC CONFERENCE,3000.0,0.0,3000.0,0.0,0.0,0.0,0.0,0.0,0.0,0.0,3000.0,18439,Direct,,,View report (https://accesshub.pdc.wa.gov/node/90801),Human services,Budget,"Budget committees, Human Services and Early Learning, Commerce, DSHS, DCYF"
5157,91598-18439,91598,FE,17448,"DONNA CHRISTENSEN, PACIFIC GOVERNMENT AFFAIRS",Employer,18439,WA ST CATHOLIC CONFERENCE,22-Apr,4/27/2023,17228,WA ST CATHOLIC CONFERENCE,3000.0,0.0,3000.0,0.0,0.0,0.0,0.0,0.0,0.0,0.0,3000.0,18439,Direct,,,View report (https://accesshub.pdc.wa.gov/node/91598),Human services,Budget,"Budget committees, Human Services and Early Learning, Commerce, DSHS, DCYF"
5158,93126-18439,93126,FE,17448,"DONNA CHRISTENSEN, PACIFIC GOVERNMENT AFFAIRS",Employer,18439,WA ST CATHOLIC CONFERENCE,22-May,4/27/2023,17228,WA ST CATHOLIC CONFERENCE,3000.0,0.0,3000.0,0.0,0.0,0.0,0.0,0.0,0.0,0.0,3000.0,18439,Direct,,,View report (https://accesshub.pdc.wa.gov/node/93126),Human services,Budget,"Budget committees, Human Services and Early Learning, Commerce, DSHS, DCYF"
5159,93543-18439,93543,FE,17448,"DONNA CHRISTENSEN, PACIFIC GOVERNMENT AFFAIRS",Employer,18439,WA ST CATHOLIC CONFERENCE,22-Jun,4/27/2023,17228,WA ST CATHOLIC CONFERENCE,3000.0,0.0,3000.0,0.0,0.0,0.0,0.0,0.0,0.0,0.0,3000.0,18439,Direct,,,View report (https://accesshub.pdc.wa.gov/node/93543),Human services,Budget,"Budget committees, Human Services and Early Learning, Commerce, DSHS, DCYF"
5160,94419-18439,94419,FE,17448,"DONNA CHRISTENSEN, PACIFIC GOVERNMENT AFFAIRS",Employer,18439,WA ST CATHOLIC CONFERENCE,22-Jul,4/27/2023,17228,WA ST CATHOLIC CONFERENCE,3000.0,0.0,3000.0,0.0,0.0,0.0,0.0,0.0,0.0,0.0,3000.0,18439,Direct,,,View report (https://accesshub.pdc.wa.gov/node/94419),Human services,Budget,"Budget committees, Human Services and Early Learning, Commerce, DSHS, DCYF"
5161,95133-18439,95133,FE,17448,"DONNA CHRISTENSEN, PACIFIC GOVERNMENT AFFAIRS",Employer,18439,WA ST CATHOLIC CONFERENCE,22-Aug,4/27/2023,17228,WA ST CATHOLIC CONFERENCE,3000.0,0.0,3000.0,0.0,0.0,0.0,0.0,0.0,0.0,0.0,3000.0,18439,Direct,,,View report (https://accesshub.pdc.wa.gov/node/95133),Human services,Budget,"Budget committees, Human Services and Early Learning, Commerce, DSHS, DCYF"
5162,95953-18439,95953,FE,17448,"DONNA CHRISTENSEN, PACIFIC GOVERNMENT AFFAIRS",Employer,18439,WA ST CATHOLIC CONFERENCE,22-Sep,4/27/2023,17228,WA ST CATHOLIC CONFERENCE,3000.0,0.0,3000.0,0.0,0.0,0.0,0.0,0.0,0.0,0.0,3000.0,18439,Direct,,,View report (https://accesshub.pdc.wa.gov/node/95953),Human services,Budget,"Budget committees, Human Services and Early Learning, Commerce, DSHS, DCYF"
5163,96788-18439,96788,FE,17448,"DONNA CHRISTENSEN, PACIFIC GOVERNMENT AFFAIRS",Employer,18439,WA ST CATHOLIC CONFERENCE,22-Oct,4/27/2023,17228,WA ST CATHOLIC CONFERENCE,3000.0,0.0,3000.0,0.0,0.0,0.0,0.0,0.0,0.0,0.0,3000.0,18439,Direct,,,View report (https://accesshub.pdc.wa.gov/node/96788),Human services,Budget,"Budget committees, Human Services and Early Learning, Commerce, DSHS, DCYF"
5164,98253-18439,98253,FE,17448,"DONNA CHRISTENSEN, PACIFIC GOVERNMENT AFFAIRS",Employer,18439,WA ST CATHOLIC CONFERENCE,22-Nov,4/27/2023,17228,WA ST CATHOLIC CONFERENCE,3000.0,0.0,3000.0,0.0,0.0,0.0,0.0,0.0,0.0,0.0,3000.0,18439,Direct,,,View report (https://accesshub.pdc.wa.gov/node/98253),Human services,Budget,"Budget committees, Human Services and Early Learning, Commerce, DSHS, DCYF"
5165,99762-18439,99762,FE,17448,"DONNA CHRISTENSEN, PACIFIC GOVERNMENT AFFAIRS",Employer,18439,WA ST CATHOLIC CONFERENCE,22-Dec,4/27/2023,17228,WA ST CATHOLIC CONFERENCE,3000.0,0.0,3000.0,0.0,0.0,0.0,0.0,0.0,0.0,0.0,3000.0,18439,Direct,,,View report (https://accesshub.pdc.wa.gov/node/99762),Human services,Budget,"Budget committees, Human Services and Early Learning, Commerce, DSHS, DCYF"
5166,104511-19351,104511,FE,17840,GRANT NELSON,Employer,19351,WA ST MOTORSPORT DEALERS ASSN,23-Mar,4/27/2023,17262,WA ST MOTORSPORT DEALERS ASSN,1000.0,0.0,1000.0,0.0,0.0,0.0,0.0,0.0,0.0,0.0,1000.0,19351,Direct,,,View report (https://accesshub.pdc.wa.gov/node/104511),,,
5167,85545-18440,85545,FE,17448,"DONNA CHRISTENSEN, PACIFIC GOVERNMENT AFFAIRS",Employer,18440,Washington State Alliance of YMCAs,21-Nov,4/27/2023,17323,Washington State Alliance of YMCAs,3300.0,0.0,3300.0,0.0,0.0,0.0,0.0,0.0,0.0,0.0,3300.0,18440,Direct,,,View report (https://accesshub.pdc.wa.gov/node/85545),Human services,Budget,"Ways and Means, Appropriations, Early Learning, DCYF"
5168,86477-18440,86477,FE,17448,"DONNA CHRISTENSEN, PACIFIC GOVERNMENT AFFAIRS",Employer,18440,Washington State Alliance of YMCAs,21-Dec,4/27/2023,17323,Washington State Alliance of YMCAs,3300.0,0.0,3300.0,0.0,0.0,0.0,0.0,0.0,0.0,0.0,3300.0,18440,Direct,,,View report (https://accesshub.pdc.wa.gov/node/86477),Human services,Budget,"Ways and Means, Appropriations, Early Learning, DCYF"
5169,87562-18440,87562,FE,17448,"DONNA CHRISTENSEN, PACIFIC GOVERNMENT AFFAIRS",Employer,18440,Washington State Alliance of YMCAs,22-Jan,4/27/2023,17323,Washington State Alliance of YMCAs,3300.0,0.0,3300.0,0.0,0.0,0.0,0.0,0.0,0.0,0.0,3300.0,18440,Direct,,,View report (https://accesshub.pdc.wa.gov/node/87562),Human services,Budget,"Ways and Means, Appropriations, Early Learning, DCYF"
5170,89177-18440,89177,FE,17448,"DONNA CHRISTENSEN, PACIFIC GOVERNMENT AFFAIRS",Employer,18440,Washington State Alliance of YMCAs,22-Feb,4/27/2023,17323,Washington State Alliance of YMCAs,3300.0,0.0,3300.0,0.0,0.0,0.0,0.0,0.0,0.0,0.0,3300.0,18440,Direct,,,View report (https://accesshub.pdc.wa.gov/node/89177),Human services,Budget,"Ways and Means, Appropriations, Early Learning, DCYF"
5171,90801-18440,90801,FE,17448,"DONNA CHRISTENSEN, PACIFIC GOVERNMENT AFFAIRS",Employer,18440,Washington State Alliance of YMCAs,22-Mar,4/27/2023,17323,Washington State Alliance of YMCAs,3300.0,0.0,3300.0,0.0,0.0,0.0,0.0,0.0,0.0,0.0,3300.0,18440,Direct,,,View report (https://accesshub.pdc.wa.gov/node/90801),Human services,Budget,"Ways and Means, Appropriations, Early Learning, DCYF"
5172,91598-18440,91598,FE,17448,"DONNA CHRISTENSEN, PACIFIC GOVERNMENT AFFAIRS",Employer,18440,Washington State Alliance of YMCAs,22-Apr,4/27/2023,17323,Washington State Alliance of YMCAs,3300.0,0.0,3300.0,0.0,0.0,0.0,0.0,0.0,0.0,0.0,3300.0,18440,Direct,,,View report (https://accesshub.pdc.wa.gov/node/91598),Human services,Budget,"Ways and Means, Appropriations, Early Learning, DCYF"
5173,93126-18440,93126,FE,17448,"DONNA CHRISTENSEN, PACIFIC GOVERNMENT AFFAIRS",Employer,18440,Washington State Alliance of YMCAs,22-May,4/27/2023,17323,Washington State Alliance of YMCAs,3300.0,0.0,3300.0,0.0,0.0,0.0,0.0,0.0,0.0,0.0,3300.0,18440,Direct,,,View report (https://accesshub.pdc.wa.gov/node/93126),Human services,Budget,"Ways and Means, Appropriations, Early Learning, DCYF"
5174,93543-18440,93543,FE,17448,"DONNA CHRISTENSEN, PACIFIC GOVERNMENT AFFAIRS",Employer,18440,Washington State Alliance of YMCAs,22-Jun,4/27/2023,17323,Washington State Alliance of YMCAs,3300.0,0.0,3300.0,0.0,0.0,0.0,0.0,0.0,0.0,0.0,3300.0,18440,Direct,,,View report (https://accesshub.pdc.wa.gov/node/93543),Human services,Budget,"Ways and Means, Appropriations, Early Learning, DCYF"
5175,94419-18440,94419,FE,17448,"DONNA CHRISTENSEN, PACIFIC GOVERNMENT AFFAIRS",Employer,18440,Washington State Alliance of YMCAs,22-Jul,4/27/2023,17323,Washington State Alliance of YMCAs,3300.0,0.0,3300.0,0.0,0.0,0.0,0.0,0.0,0.0,0.0,3300.0,18440,Direct,,,View report (https://accesshub.pdc.wa.gov/node/94419),Human services,Budget,"Ways and Means, Appropriations, Early Learning, DCYF"
5176,95133-18440,95133,FE,17448,"DONNA CHRISTENSEN, PACIFIC GOVERNMENT AFFAIRS",Employer,18440,Washington State Alliance of YMCAs,22-Aug,4/27/2023,17323,Washington State Alliance of YMCAs,3300.0,0.0,3300.0,0.0,0.0,0.0,0.0,0.0,0.0,0.0,3300.0,18440,Direct,,,View report (https://accesshub.pdc.wa.gov/node/95133),Human services,Budget,"Ways and Means, Appropriations, Early Learning, DCYF"
5177,95953-18440,95953,FE,17448,"DONNA CHRISTENSEN, PACIFIC GOVERNMENT AFFAIRS",Employer,18440,Washington State Alliance of YMCAs,22-Sep,4/27/2023,17323,Washington State Alliance of YMCAs,3300.0,0.0,3300.0,0.0,0.0,0.0,0.0,0.0,0.0,0.0,3300.0,18440,Direct,,,View report (https://accesshub.pdc.wa.gov/node/95953),Human services,Budget,"Ways and Means, Appropriations, Early Learning, DCYF"
5178,96788-18440,96788,FE,17448,"DONNA CHRISTENSEN, PACIFIC GOVERNMENT AFFAIRS",Employer,18440,Washington State Alliance of YMCAs,22-Oct,4/27/2023,17323,Washington State Alliance of YMCAs,3300.0,0.0,3300.0,0.0,0.0,0.0,0.0,0.0,0.0,0.0,3300.0,18440,Direct,,,View report (https://accesshub.pdc.wa.gov/node/96788),Human services,Budget,"Ways and Means, Appropriations, Early Learning, DCYF"
5179,98253-18440,98253,FE,17448,"DONNA CHRISTENSEN, PACIFIC GOVERNMENT AFFAIRS",Employer,18440,Washington State Alliance of YMCAs,22-Nov,4/27/2023,17323,Washington State Alliance of YMCAs,3300.0,0.0,3300.0,0.0,0.0,0.0,0.0,0.0,0.0,0.0,3300.0,18440,Direct,,,View report (https://accesshub.pdc.wa.gov/node/98253),Human services,Budget,"Ways and Means, Appropriations, Early Learning, DCYF"
5180,99762-18440,99762,FE,17448,"DONNA CHRISTENSEN, PACIFIC GOVERNMENT AFFAIRS",Employer,18440,Washington State Alliance of YMCAs,22-Dec,4/27/2023,17323,Washington State Alliance of YMCAs,3300.0,0.0,3300.0,0.0,0.0,0.0,0.0,0.0,0.0,0.0,3300.0,18440,Direct,,,View report (https://accesshub.pdc.wa.gov/node/99762),Human services,Budget,"Ways and Means, Appropriations, Early Learning, DCYF"
5181,85545-28248,85545,FE,17448,"DONNA CHRISTENSEN, PACIFIC GOVERNMENT AFFAIRS",Employer,28248,Washington Continuing Care Residents Association,21-Nov,4/27/2023,27296,Washington Continuing Care Residents Association,1250.0,0.0,1250.0,0.0,0.0,0.0,0.0,0.0,0.0,0.0,1250.0,28248,Direct,,,View report (https://accesshub.pdc.wa.gov/node/85545),Health Care,aging,"Health Care, Appropriations, DSHS, OIC"
5182,86477-28248,86477,FE,17448,"DONNA CHRISTENSEN, PACIFIC GOVERNMENT AFFAIRS",Employer,28248,Washington Continuing Care Residents Association,21-Dec,4/27/2023,27296,Washington Continuing Care Residents Association,1250.0,0.0,1250.0,0.0,0.0,0.0,0.0,0.0,0.0,0.0,1250.0,28248,Direct,,,View report (https://accesshub.pdc.wa.gov/node/86477),Health Care,aging,"Health Care, Appropriations, DSHS, OIC"
5183,87562-28248,87562,FE,17448,"DONNA CHRISTENSEN, PACIFIC GOVERNMENT AFFAIRS",Employer,28248,Washington Continuing Care Residents Association,22-Jan,4/27/2023,27296,Washington Continuing Care Residents Association,1250.0,0.0,1250.0,0.0,0.0,0.0,0.0,0.0,0.0,0.0,1250.0,28248,Direct,,,View report (https://accesshub.pdc.wa.gov/node/87562),Health Care,aging,"Health Care, Appropriations, DSHS, OIC"
5184,89177-28248,89177,FE,17448,"DONNA CHRISTENSEN, PACIFIC GOVERNMENT AFFAIRS",Employer,28248,Washington Continuing Care Residents Association,22-Feb,4/27/2023,27296,Washington Continuing Care Residents Association,1250.0,0.0,1250.0,0.0,0.0,0.0,0.0,0.0,0.0,0.0,1250.0,28248,Direct,,,View report (https://accesshub.pdc.wa.gov/node/89177),Health Care,aging,"Health Care, Appropriations, DSHS, OIC"
5185,90801-28248,90801,FE,17448,"DONNA CHRISTENSEN, PACIFIC GOVERNMENT AFFAIRS",Employer,28248,Washington Continuing Care Residents Association,22-Mar,4/27/2023,27296,Washington Continuing Care Residents Association,1250.0,0.0,1250.0,0.0,0.0,0.0,0.0,0.0,0.0,0.0,1250.0,28248,Direct,,,View report (https://accesshub.pdc.wa.gov/node/90801),Health Care,"health care, housing","Health Care, Appropriations, DSHS, OIC"
5186,91598-28248,91598,FE,17448,"DONNA CHRISTENSEN, PACIFIC GOVERNMENT AFFAIRS",Employer,28248,Washington Continuing Care Residents Association,22-Apr,4/27/2023,27296,Washington Continuing Care Residents Association,1250.0,0.0,1250.0,0.0,0.0,0.0,0.0,0.0,0.0,0.0,1250.0,28248,Direct,,,View report (https://accesshub.pdc.wa.gov/node/91598),Health Care,"health care, housing","Health Care, Appropriations, DSHS, OIC"
5187,93126-28248,93126,FE,17448,"DONNA CHRISTENSEN, PACIFIC GOVERNMENT AFFAIRS",Employer,28248,Washington Continuing Care Residents Association,22-May,4/27/2023,27296,Washington Continuing Care Residents Association,1250.0,0.0,1250.0,0.0,0.0,0.0,0.0,0.0,0.0,0.0,1250.0,28248,Direct,,,View report (https://accesshub.pdc.wa.gov/node/93126),Health Care,"health care, housing","Health Care, Appropriations, DSHS, OIC"
5188,93543-28248,93543,FE,17448,"DONNA CHRISTENSEN, PACIFIC GOVERNMENT AFFAIRS",Employer,28248,Washington Continuing Care Residents Association,22-Jun,4/27/2023,27296,Washington Continuing Care Residents Association,1250.0,0.0,1250.0,0.0,0.0,0.0,0.0,0.0,0.0,0.0,1250.0,28248,Direct,,,View report (https://accesshub.pdc.wa.gov/node/93543),Health Care,"health care, housing","Health Care, Appropriations, DSHS, OIC"
5189,94419-28248,94419,FE,17448,"DONNA CHRISTENSEN, PACIFIC GOVERNMENT AFFAIRS",Employer,28248,Washington Continuing Care Residents Association,22-Jul,4/27/2023,27296,Washington Continuing Care Residents Association,1250.0,0.0,1250.0,0.0,0.0,0.0,0.0,0.0,0.0,0.0,1250.0,28248,Direct,,,View report (https://accesshub.pdc.wa.gov/node/94419),Health Care,"health care, housing","Health Care, Appropriations, DSHS, OIC"
5190,95133-28248,95133,FE,17448,"DONNA CHRISTENSEN, PACIFIC GOVERNMENT AFFAIRS",Employer,28248,Washington Continuing Care Residents Association,22-Aug,4/27/2023,27296,Washington Continuing Care Residents Association,1250.0,0.0,1250.0,0.0,0.0,0.0,0.0,0.0,0.0,0.0,1250.0,28248,Direct,,,View report (https://accesshub.pdc.wa.gov/node/95133),Health Care,"health care, housing","Health Care, Appropriations, DSHS, OIC"
5191,95953-28248,95953,FE,17448,"DONNA CHRISTENSEN, PACIFIC GOVERNMENT AFFAIRS",Employer,28248,Washington Continuing Care Residents Association,22-Sep,4/27/2023,27296,Washington Continuing Care Residents Association,1250.0,0.0,1250.0,0.0,0.0,0.0,0.0,0.0,0.0,0.0,1250.0,28248,Direct,,,View report (https://accesshub.pdc.wa.gov/node/95953),Health Care,"health care, housing","Health Care, Appropriations, DSHS, OIC"
5192,96788-28248,96788,FE,17448,"DONNA CHRISTENSEN, PACIFIC GOVERNMENT AFFAIRS",Employer,28248,Washington Continuing Care Residents Association,22-Oct,4/27/2023,27296,Washington Continuing Care Residents Association,1250.0,0.0,1250.0,0.0,0.0,0.0,0.0,0.0,0.0,0.0,1250.0,28248,Direct,,,View report (https://accesshub.pdc.wa.gov/node/96788),Health Care,"health care, housing","Health Care, Appropriations, DSHS, OIC"
5193,98253-28248,98253,FE,17448,"DONNA CHRISTENSEN, PACIFIC GOVERNMENT AFFAIRS",Employer,28248,Washington Continuing Care Residents Association,22-Nov,4/27/2023,27296,Washington Continuing Care Residents Association,1250.0,0.0,1250.0,0.0,0.0,0.0,0.0,0.0,0.0,0.0,1250.0,28248,Direct,,,View report (https://accesshub.pdc.wa.gov/node/98253),Health Care,"health care, housing","Health Care, Appropriations, DSHS, OIC"
5194,99762-28248,99762,FE,17448,"DONNA CHRISTENSEN, PACIFIC GOVERNMENT AFFAIRS",Employer,28248,Washington Continuing Care Residents Association,22-Dec,4/27/2023,27296,Washington Continuing Care Residents Association,1250.0,0.0,1250.0,0.0,0.0,0.0,0.0,0.0,0.0,0.0,1250.0,28248,Direct,,,View report (https://accesshub.pdc.wa.gov/node/99762),Health Care,"health care, housing","Health Care, Appropriations, DSHS, OIC"
5195,104511-59621,104511,FE,17840,GRANT NELSON,Employer,59621,Recreation Vehicle Industry Association,23-Mar,4/27/2023,30397,Recreation Vehicle Industry Association,5000.0,0.0,5000.0,0.0,0.0,0.0,0.0,0.0,0.0,0.0,5000.0,59621,Direct,,,View report (https://accesshub.pdc.wa.gov/node/104511),Labor,RV insignias,House & Senate Labor cmte members
5196,85545-58689,85545,FE,17448,"DONNA CHRISTENSEN, PACIFIC GOVERNMENT AFFAIRS",Employer,58689,Washington Childcare Centers Association,21-Nov,4/27/2023,39172,Washington Childcare Centers Association,2000.0,0.0,2000.0,0.0,0.0,0.0,0.0,0.0,0.0,0.0,2000.0,58689,Direct,,,View report (https://accesshub.pdc.wa.gov/node/85545),Human services,child care,"DCYF, K-12 and Eatly Learning, Human Services"
5197,86477-58689,86477,FE,17448,"DONNA CHRISTENSEN, PACIFIC GOVERNMENT AFFAIRS",Employer,58689,Washington Childcare Centers Association,21-Dec,4/27/2023,39172,Washington Childcare Centers Association,2000.0,0.0,2000.0,0.0,0.0,0.0,0.0,0.0,0.0,0.0,2000.0,58689,Direct,,,View report (https://accesshub.pdc.wa.gov/node/86477),Human services,child care,"DCYF, K-12 and Eatly Learning, Human Services"
5198,87562-58689,87562,FE,17448,"DONNA CHRISTENSEN, PACIFIC GOVERNMENT AFFAIRS",Employer,58689,Washington Childcare Centers Association,22-Jan,4/27/2023,39172,Washington Childcare Centers Association,2000.0,0.0,2000.0,0.0,0.0,0.0,0.0,0.0,0.0,0.0,2000.0,58689,Direct,,,View report (https://accesshub.pdc.wa.gov/node/87562),Human services,child care,"DCYF, K-12 and Eatly Learning, Human Services"
5199,89177-58689,89177,FE,17448,"DONNA CHRISTENSEN, PACIFIC GOVERNMENT AFFAIRS",Employer,58689,Washington Childcare Centers Association,22-Feb,4/27/2023,39172,Washington Childcare Centers Association,2000.0,0.0,2000.0,0.0,0.0,0.0,0.0,0.0,0.0,0.0,2000.0,58689,Direct,,,View report (https://accesshub.pdc.wa.gov/node/89177),Human services,child care,"DCYF, K-12 and Eatly Learning, Human Services"
5200,90801-58689,90801,FE,17448,"DONNA CHRISTENSEN, PACIFIC GOVERNMENT AFFAIRS",Employer,58689,Washington Childcare Centers Association,22-Mar,4/27/2023,39172,Washington Childcare Centers Association,2000.0,0.0,2000.0,0.0,0.0,0.0,0.0,0.0,0.0,0.0,2000.0,58689,Direct,,,View report (https://accesshub.pdc.wa.gov/node/90801),Human services,child care,"DCYF, K-12 and Eatly Learning, Human Services"
5201,91598-58689,91598,FE,17448,"DONNA CHRISTENSEN, PACIFIC GOVERNMENT AFFAIRS",Employer,58689,Washington Childcare Centers Association,22-Apr,4/27/2023,39172,Washington Childcare Centers Association,2000.0,0.0,2000.0,0.0,0.0,0.0,0.0,0.0,0.0,0.0,2000.0,58689,Direct,,,View report (https://accesshub.pdc.wa.gov/node/91598),Human services,child care,"DCYF, K-12 and Eatly Learning, Human Services"
5202,93126-58689,93126,FE,17448,"DONNA CHRISTENSEN, PACIFIC GOVERNMENT AFFAIRS",Employer,58689,Washington Childcare Centers Association,22-May,4/27/2023,39172,Washington Childcare Centers Association,2000.0,0.0,2000.0,0.0,0.0,0.0,0.0,0.0,0.0,0.0,2000.0,58689,Direct,,,View report (https://accesshub.pdc.wa.gov/node/93126),Human services,child care,"DCYF, K-12 and Eatly Learning, Human Services"
5203,93543-58689,93543,FE,17448,"DONNA CHRISTENSEN, PACIFIC GOVERNMENT AFFAIRS",Employer,58689,Washington Childcare Centers Association,22-Jun,4/27/2023,39172,Washington Childcare Centers Association,2000.0,0.0,2000.0,0.0,0.0,0.0,0.0,0.0,0.0,0.0,2000.0,58689,Direct,,,View report (https://accesshub.pdc.wa.gov/node/93543),Human services,child care,"DCYF, K-12 and Eatly Learning, Human Services"
5204,94419-58689,94419,FE,17448,"DONNA CHRISTENSEN, PACIFIC GOVERNMENT AFFAIRS",Employer,58689,Washington Childcare Centers Association,22-Jul,4/27/2023,39172,Washington Childcare Centers Association,2000.0,0.0,2000.0,0.0,0.0,0.0,0.0,0.0,0.0,0.0,2000.0,58689,Direct,,,View report (https://accesshub.pdc.wa.gov/node/94419),Human services,child care,"DCYF, K-12 and Eatly Learning, Human Services"
5205,95133-58689,95133,FE,17448,"DONNA CHRISTENSEN, PACIFIC GOVERNMENT AFFAIRS",Employer,58689,Washington Childcare Centers Association,22-Aug,4/27/2023,39172,Washington Childcare Centers Association,2000.0,0.0,2000.0,0.0,0.0,0.0,0.0,0.0,0.0,0.0,2000.0,58689,Direct,,,View report (https://accesshub.pdc.wa.gov/node/95133),Human services,child care,"DCYF, K-12 and Eatly Learning, Human Services"
5206,95953-58689,95953,FE,17448,"DONNA CHRISTENSEN, PACIFIC GOVERNMENT AFFAIRS",Employer,58689,Washington Childcare Centers Association,22-Sep,4/27/2023,39172,Washington Childcare Centers Association,2000.0,0.0,2000.0,0.0,0.0,0.0,0.0,0.0,0.0,0.0,2000.0,58689,Direct,,,View report (https://accesshub.pdc.wa.gov/node/95953),Human services,child care,"DCYF, K-12 and Eatly Learning, Human Services"
5207,96788-58689,96788,FE,17448,"DONNA CHRISTENSEN, PACIFIC GOVERNMENT AFFAIRS",Employer,58689,Washington Childcare Centers Association,22-Oct,4/27/2023,39172,Washington Childcare Centers Association,2000.0,0.0,2000.0,0.0,0.0,0.0,0.0,0.0,0.0,0.0,2000.0,58689,Direct,,,View report (https://accesshub.pdc.wa.gov/node/96788),Human services,child care,"DCYF, K-12 and Eatly Learning, Human Services"
5208,104514-48623,104514,FE,27426,Peggen & Mara Political Consulting LLP,Employer,48623,EDELSON PC,23-Feb,4/27/2023,48622,EDELSON PC,5833.0,0.0,5833.0,0.0,0.0,0.0,0.0,0.0,0.0,0.0,5833.0,48623,Direct,,,View report (https://accesshub.pdc.wa.gov/node/104514),State government,3/11/21 Rep Kloba re: operating budget 3/12/21 Sen Stanford re: operating budget,3/11/21 Rep Kloba re: operating budget 3/12/21 Sen Stanford re: operating budget
5209,104515-48623,104515,FE,27426,Peggen & Mara Political Consulting LLP,Employer,48623,EDELSON PC,23-Mar,4/27/2023,48622,EDELSON PC,5833.0,0.0,5833.0,0.0,0.0,0.0,0.0,0.0,0.0,0.0,5833.0,48623,Direct,,,View report (https://accesshub.pdc.wa.gov/node/104515),State government,3/11/21 Rep Kloba re: operating budget 3/12/21 Sen Stanford re: operating budget,3/11/21 Rep Kloba re: operating budget 3/12/21 Sen Stanford re: operating budget
5210,104511-96503,104511,FE,17840,GRANT NELSON,Employer,96503,West Coast Seafood Processors Association,23-Mar,4/27/2023,50935,West Coast Seafood Processors Association,5000.0,0.0,5000.0,0.0,0.0,0.0,0.0,0.0,0.0,0.0,5000.0,96503,Direct,,,View report (https://accesshub.pdc.wa.gov/node/104511),Environmental Affairs - natural resources - parks,gillnets,House & Senate Members
5211,104514-63574,104514,FE,27426,Peggen & Mara Political Consulting LLP,Employer,63574,Nez Perce Tribe,23-Feb,4/27/2023,63272,Nez Perce Tribe,3500.0,0.0,3500.0,0.0,0.0,0.0,0.0,0.0,0.0,0.0,3500.0,63574,Direct,,,View report (https://accesshub.pdc.wa.gov/node/104514),,,
5212,104515-63574,104515,FE,27426,Peggen & Mara Political Consulting LLP,Employer,63574,Nez Perce Tribe,23-Mar,4/27/2023,63272,Nez Perce Tribe,3500.0,0.0,3500.0,0.0,0.0,0.0,0.0,0.0,0.0,0.0,3500.0,63574,Direct,,,View report (https://accesshub.pdc.wa.gov/node/104515),,,
5213,85545-74362,85545,FE,17448,"DONNA CHRISTENSEN, PACIFIC GOVERNMENT AFFAIRS",Employer,74362,Asia Pacific Cultural Center,21-Nov,4/27/2023,74361,Asia Pacific Cultural Center,2000.0,0.0,2000.0,0.0,0.0,0.0,0.0,0.0,0.0,0.0,2000.0,74362,Direct,,,View report (https://accesshub.pdc.wa.gov/node/85545),Fiscal,Capital,"Capital budget, Ways and Means"
5214,86477-74362,86477,FE,17448,"DONNA CHRISTENSEN, PACIFIC GOVERNMENT AFFAIRS",Employer,74362,Asia Pacific Cultural Center,21-Dec,4/27/2023,74361,Asia Pacific Cultural Center,2000.0,0.0,2000.0,0.0,0.0,0.0,0.0,0.0,0.0,0.0,2000.0,74362,Direct,,,View report (https://accesshub.pdc.wa.gov/node/86477),Fiscal,Capital,"Capital budget, Ways and Means"
5215,87562-74362,87562,FE,17448,"DONNA CHRISTENSEN, PACIFIC GOVERNMENT AFFAIRS",Employer,74362,Asia Pacific Cultural Center,22-Jan,4/27/2023,74361,Asia Pacific Cultural Center,2000.0,0.0,2000.0,0.0,0.0,0.0,0.0,0.0,0.0,0.0,2000.0,74362,Direct,,,View report (https://accesshub.pdc.wa.gov/node/87562),Fiscal,Capital,"Capital budget, Ways and Means"
5216,89177-74362,89177,FE,17448,"DONNA CHRISTENSEN, PACIFIC GOVERNMENT AFFAIRS",Employer,74362,Asia Pacific Cultural Center,22-Feb,4/27/2023,74361,Asia Pacific Cultural Center,2000.0,0.0,2000.0,0.0,0.0,0.0,0.0,0.0,0.0,0.0,2000.0,74362,Direct,,,View report (https://accesshub.pdc.wa.gov/node/89177),Fiscal,"Capital, human services","Capital budget, Ways and Means"
5217,90801-74362,90801,FE,17448,"DONNA CHRISTENSEN, PACIFIC GOVERNMENT AFFAIRS",Employer,74362,Asia Pacific Cultural Center,22-Mar,4/27/2023,74361,Asia Pacific Cultural Center,2000.0,0.0,2000.0,0.0,0.0,0.0,0.0,0.0,0.0,0.0,2000.0,74362,Direct,,,View report (https://accesshub.pdc.wa.gov/node/90801),Fiscal,"Capital, human services","Capital budget, Ways and Means"
5218,91598-74362,91598,FE,17448,"DONNA CHRISTENSEN, PACIFIC GOVERNMENT AFFAIRS",Employer,74362,Asia Pacific Cultural Center,22-Apr,4/27/2023,74361,Asia Pacific Cultural Center,2000.0,0.0,2000.0,0.0,0.0,0.0,0.0,0.0,0.0,0.0,2000.0,74362,Direct,,,View report (https://accesshub.pdc.wa.gov/node/91598),Fiscal,"Capital, human services","Capital budget, Ways and Means"
5219,93126-74362,93126,FE,17448,"DONNA CHRISTENSEN, PACIFIC GOVERNMENT AFFAIRS",Employer,74362,Asia Pacific Cultural Center,22-May,4/27/2023,74361,Asia Pacific Cultural Center,2000.0,0.0,2000.0,0.0,0.0,0.0,0.0,0.0,0.0,0.0,2000.0,74362,Direct,,,View report (https://accesshub.pdc.wa.gov/node/93126),Fiscal,"Capital, human services","Capital budget, Ways and Means"
5220,93543-74362,93543,FE,17448,"DONNA CHRISTENSEN, PACIFIC GOVERNMENT AFFAIRS",Employer,74362,Asia Pacific Cultural Center,22-Jun,4/27/2023,74361,Asia Pacific Cultural Center,2000.0,0.0,2000.0,0.0,0.0,0.0,0.0,0.0,0.0,0.0,2000.0,74362,Direct,,,View report (https://accesshub.pdc.wa.gov/node/93543),Fiscal,"Capital, human services","Capital budget, Ways and Means"
5221,94419-74362,94419,FE,17448,"DONNA CHRISTENSEN, PACIFIC GOVERNMENT AFFAIRS",Employer,74362,Asia Pacific Cultural Center,22-Jul,4/27/2023,74361,Asia Pacific Cultural Center,2000.0,0.0,2000.0,0.0,0.0,0.0,0.0,0.0,0.0,0.0,2000.0,74362,Direct,,,View report (https://accesshub.pdc.wa.gov/node/94419),Fiscal,"Capital, human services","Capital budget, Ways and Means"
5222,95133-74362,95133,FE,17448,"DONNA CHRISTENSEN, PACIFIC GOVERNMENT AFFAIRS",Employer,74362,Asia Pacific Cultural Center,22-Aug,4/27/2023,74361,Asia Pacific Cultural Center,2000.0,0.0,2000.0,0.0,0.0,0.0,0.0,0.0,0.0,0.0,2000.0,74362,Direct,,,View report (https://accesshub.pdc.wa.gov/node/95133),Fiscal,"Capital, human services","Capital budget, Ways and Means"
5223,95953-74362,95953,FE,17448,"DONNA CHRISTENSEN, PACIFIC GOVERNMENT AFFAIRS",Employer,74362,Asia Pacific Cultural Center,22-Sep,4/27/2023,74361,Asia Pacific Cultural Center,2000.0,0.0,2000.0,0.0,0.0,0.0,0.0,0.0,0.0,0.0,2000.0,74362,Direct,,,View report (https://accesshub.pdc.wa.gov/node/95953),Fiscal,"Capital, human services","Capital budget, Ways and Means"
5224,96788-74362,96788,FE,17448,"DONNA CHRISTENSEN, PACIFIC GOVERNMENT AFFAIRS",Employer,74362,Asia Pacific Cultural Center,22-Oct,4/27/2023,74361,Asia Pacific Cultural Center,2000.0,0.0,2000.0,0.0,0.0,0.0,0.0,0.0,0.0,0.0,2000.0,74362,Direct,,,View report (https://accesshub.pdc.wa.gov/node/96788),Fiscal,"Capital, human services","Capital budget, Ways and Means"
5225,98253-74362,98253,FE,17448,"DONNA CHRISTENSEN, PACIFIC GOVERNMENT AFFAIRS",Employer,74362,Asia Pacific Cultural Center,22-Nov,4/27/2023,74361,Asia Pacific Cultural Center,2000.0,0.0,2000.0,0.0,0.0,0.0,0.0,0.0,0.0,0.0,2000.0,74362,Direct,,,View report (https://accesshub.pdc.wa.gov/node/98253),Fiscal,"Capital, human services","Capital budget, Ways and Means"
5226,99762-74362,99762,FE,17448,"DONNA CHRISTENSEN, PACIFIC GOVERNMENT AFFAIRS",Employer,74362,Asia Pacific Cultural Center,22-Dec,4/27/2023,74361,Asia Pacific Cultural Center,2000.0,0.0,2000.0,0.0,0.0,0.0,0.0,0.0,0.0,0.0,2000.0,74362,Direct,,,View report (https://accesshub.pdc.wa.gov/node/99762),Fiscal,"Capital, human services","Capital budget, Ways and Means"
5228,91598-93127,91598,FE,17448,"DONNA CHRISTENSEN, PACIFIC GOVERNMENT AFFAIRS",Employer,93127,Burien Actors Theatre,22-Apr,4/27/2023,91887,Burien Actors Theatre,2000.0,0.0,2000.0,0.0,0.0,0.0,0.0,0.0,0.0,0.0,2000.0,93127,Direct,,,View report (https://accesshub.pdc.wa.gov/node/91598),Business and consumer affairs,Arts & Culture,Business
5229,93126-93127,93126,FE,17448,"DONNA CHRISTENSEN, PACIFIC GOVERNMENT AFFAIRS",Employer,93127,Burien Actors Theatre,22-May,4/27/2023,91887,Burien Actors Theatre,2000.0,0.0,2000.0,0.0,0.0,0.0,0.0,0.0,0.0,0.0,2000.0,93127,Direct,,,View report (https://accesshub.pdc.wa.gov/node/93126),Business and consumer affairs,Arts & Culture,Business
5230,93543-93127,93543,FE,17448,"DONNA CHRISTENSEN, PACIFIC GOVERNMENT AFFAIRS",Employer,93127,Burien Actors Theatre,22-Jun,4/27/2023,91887,Burien Actors Theatre,2000.0,0.0,2000.0,0.0,0.0,0.0,0.0,0.0,0.0,0.0,2000.0,93127,Direct,,,View report (https://accesshub.pdc.wa.gov/node/93543),Fiscal,arts,"Budget committees, Department of Commerce"
5231,94419-93127,94419,FE,17448,"DONNA CHRISTENSEN, PACIFIC GOVERNMENT AFFAIRS",Employer,93127,Burien Actors Theatre,22-Jul,4/27/2023,91887,Burien Actors Theatre,2000.0,0.0,2000.0,0.0,0.0,0.0,0.0,0.0,0.0,0.0,2000.0,93127,Direct,,,View report (https://accesshub.pdc.wa.gov/node/94419),Fiscal,arts,"Budget committees, Department of Commerce"
5232,95133-93127,95133,FE,17448,"DONNA CHRISTENSEN, PACIFIC GOVERNMENT AFFAIRS",Employer,93127,Burien Actors Theatre,22-Aug,4/27/2023,91887,Burien Actors Theatre,500.0,0.0,500.0,0.0,0.0,0.0,0.0,0.0,0.0,0.0,500.0,93127,Direct,,,View report (https://accesshub.pdc.wa.gov/node/95133),Fiscal,arts,"Budget committees, Department of Commerce"
5233,95953-93127,95953,FE,17448,"DONNA CHRISTENSEN, PACIFIC GOVERNMENT AFFAIRS",Employer,93127,Burien Actors Theatre,22-Sep,4/27/2023,91887,Burien Actors Theatre,500.0,0.0,500.0,0.0,0.0,0.0,0.0,0.0,0.0,0.0,500.0,93127,Direct,,,View report (https://accesshub.pdc.wa.gov/node/95953),Fiscal,arts,"Budget committees, Department of Commerce"
5234,96788-93127,96788,FE,17448,"DONNA CHRISTENSEN, PACIFIC GOVERNMENT AFFAIRS",Employer,93127,Burien Actors Theatre,22-Oct,4/27/2023,91887,Burien Actors Theatre,500.0,0.0,500.0,0.0,0.0,0.0,0.0,0.0,0.0,0.0,500.0,93127,Direct,,,View report (https://accesshub.pdc.wa.gov/node/96788),Fiscal,arts,"Budget committees, Department of Commerce"
5235,98253-93127,98253,FE,17448,"DONNA CHRISTENSEN, PACIFIC GOVERNMENT AFFAIRS",Employer,93127,Burien Actors Theatre,22-Nov,4/27/2023,91887,Burien Actors Theatre,500.0,0.0,500.0,0.0,0.0,0.0,0.0,0.0,0.0,0.0,500.0,93127,Direct,,,View report (https://accesshub.pdc.wa.gov/node/98253),Fiscal,arts,"Budget committees, Department of Commerce"
5236,99762-93127,99762,FE,17448,"DONNA CHRISTENSEN, PACIFIC GOVERNMENT AFFAIRS",Employer,93127,Burien Actors Theatre,22-Dec,4/27/2023,91887,Burien Actors Theatre,500.0,0.0,500.0,0.0,0.0,0.0,0.0,0.0,0.0,0.0,500.0,93127,Direct,,,View report (https://accesshub.pdc.wa.gov/node/99762),Fiscal,arts,"Budget committees, Department of Commerce"
5237,104514-100227,104514,FE,27426,Peggen & Mara Political Consulting LLP,Employer,100227,Willapa Bay Gillnetters Association,23-Feb,4/27/2023,100211,Willapa Bay Gillnetters Association,5000.0,0.0,5000.0,0.0,0.0,0.0,0.0,0.0,0.0,0.0,5000.0,100227,Direct,,,View report (https://accesshub.pdc.wa.gov/node/104514),,,
5238,104515-100227,104515,FE,27426,Peggen & Mara Political Consulting LLP,Employer,100227,Willapa Bay Gillnetters Association,23-Mar,4/27/2023,100211,Willapa Bay Gillnetters Association,5000.0,0.0,5000.0,0.0,0.0,0.0,0.0,0.0,0.0,0.0,5000.0,100227,Direct,,,View report (https://accesshub.pdc.wa.gov/node/104515),,,
5239,104522-29470,104522,FE,29469,Ramona Hattendorf,Employer,29470,The Arc of King County,23-Feb,4/28/2023,16134,The Arc of King County,645.0,0.0,645.0,0.0,0.0,0.0,0.0,0.0,0.0,0.0,645.0,29470,Direct,,,View report (https://accesshub.pdc.wa.gov/node/104522),Fiscal,"1473, 1506, 1628, 5302, 5734","House Finance, House Capital Budget, House Local Government Senate Human Services, Senate Ways and Means"
5240,104529-50400,104529,FE,50398,Sarah Nagy,Employer,50400,COLUMBIA LEGAL SERVICES,23-Mar,4/28/2023,16338,COLUMBIA LEGAL SERVICES,1237.29,0.0,1237.29,0.0,0.0,0.0,0.0,0.0,0.0,0.0,1237.29,50400,Direct,,,View report (https://accesshub.pdc.wa.gov/node/104529),Business and consumer affairs,SHB 1074,Rep. Thai; Senate Housing Committee
5241,104527-18236,104527,FE,17379,ERICA D HALLOCK,Employer,18236,EMPIRE HEALTH FOUNDATION,23-Apr,4/28/2023,16413,EMPIRE HEALTH FOUNDATION,1000.0,0.0,1000.0,0.0,0.0,0.0,0.0,0.0,0.0,0.0,1000.0,18236,Direct,,,View report (https://accesshub.pdc.wa.gov/node/104527),Human services,Housing,"Senate Ways and Means, House Appropriations, Senate and House members"
5242,104532-95916,104532,FE,18007,JOHN STUHLMILLER,Employer,95916,SYNGENTA,23-Apr,4/28/2023,16964,SYNGENTA,2000.0,0.0,2000.0,0.0,0.0,0.0,0.0,0.0,0.0,0.0,2000.0,95916,Direct,,,View report (https://accesshub.pdc.wa.gov/node/104532),Environmental Affairs - natural resources - parks,Regulatory and environmental issues,"Various agencies including Ecology, Agriculture, and Health"
5243,104533-19764,104533,FE,18026,Michele Thomas,Employer,19764,WA LOW-INCOME HOUSING ALLIANCE,23-Apr,4/28/2023,17143,WA LOW-INCOME HOUSING ALLIANCE,1352.73,0.0,1352.73,0.0,0.0,0.0,0.0,0.0,0.0,0.0,1352.73,19764,Direct,,,View report (https://accesshub.pdc.wa.gov/node/104533),Human services,Various affordable housing and homelessness issues,"Various lawmakers, Dept of Commerce, Governor's office"
5244,104532-98557,104532,FE,18007,JOHN STUHLMILLER,Employer,98557,Washington Public Ports Association,23-Apr,4/28/2023,17174,Washington Public Ports Association,5000.0,0.0,5000.0,0.0,0.0,0.0,0.0,0.0,0.0,0.0,5000.0,98557,Direct,,,View report (https://accesshub.pdc.wa.gov/node/104532),Environmental Affairs - natural resources - parks,various environmental issues,"Various legislative committees and agencies, including Ecology"
5245,104525-96651,104525,FE,55690,Kelly Fukai,Employer,96651,WA TECHNOLOGY INDUSTRY ASSN,23-Mar,4/28/2023,17203,WA TECHNOLOGY INDUSTRY ASSN,210.0,0.0,210.0,0.0,0.0,0.0,0.0,0.0,0.0,0.0,210.0,96651,Direct,,,View report (https://accesshub.pdc.wa.gov/node/104525),Technology,"ESHB 1155, consumer health data privacy",Senator Kevin Van de Wege
5246,104527-86140,104527,FE,17379,ERICA D HALLOCK,Employer,86140,WA ST NURSES ASSN,23-Apr,4/28/2023,17265,WA ST NURSES ASSN,1000.0,0.0,1000.0,0.0,0.0,0.0,0.0,0.0,0.0,0.0,1000.0,86140,Direct,,,View report (https://accesshub.pdc.wa.gov/node/104527),Health Care,"school nurses, nursing issues","House Appropriations, Senate Ways and Means, Senate and House"
5247,104532-95915,104532,FE,18007,JOHN STUHLMILLER,Employer,95915,WA ST WATER RESOURCES ASSN,23-Apr,4/28/2023,17292,WA ST WATER RESOURCES ASSN,1000.0,0.0,1000.0,0.0,0.0,0.0,0.0,0.0,0.0,0.0,1000.0,95915,Direct,,,View report (https://accesshub.pdc.wa.gov/node/104532),Agriculture,Various water resource issues,"Various state agencies including Ecology, Fish and Wildlife, and Agriculture"
5248,104527-49952,104527,FE,17379,ERICA D HALLOCK,Employer,49952,Spokane Guilds' School & Neuromuscular Center DBA Joya,23-Apr,4/28/2023,49902,Spokane Guilds' School & Neuromuscular Center DBA Joya,500.0,0.0,500.0,0.0,0.0,0.0,0.0,0.0,0.0,0.0,500.0,49952,Direct,,,View report (https://accesshub.pdc.wa.gov/node/104527),Human services,Early Support for Infants and Toddlers,"DCYF, House Appropriations, Senate Ways and Means, Senate and House members"
5249,104527-61436,104527,FE,17379,ERICA D HALLOCK,Employer,61436,Start Early,23-Apr,4/28/2023,61435,Start Early,2000.0,0.0,2000.0,0.0,0.0,0.0,0.0,0.0,0.0,0.0,2000.0,61436,Direct,,,View report (https://accesshub.pdc.wa.gov/node/104527),Human services,"HB 1550, early learning, home visiting","Senate Ways and Means, House Appropriations, Senate, House"
5250,104527-86047,104527,FE,17379,ERICA D HALLOCK,Employer,86047,Better Health Togehter,23-Apr,4/28/2023,86046,Better Health Togehter,1000.0,0.0,1000.0,0.0,0.0,0.0,0.0,0.0,0.0,0.0,1000.0,86047,Direct,,,View report (https://accesshub.pdc.wa.gov/node/104527),Health Care,"HB 1812, Accountable Communities of Health","Senate Ways and Means, House Appropriations, Dept of Commerce, Senate and House Members"
5251,104527-97053,104527,FE,17379,ERICA D HALLOCK,Employer,97053,Family Impact Network,23-Apr,4/28/2023,97048,Family Impact Network,500.0,0.0,500.0,0.0,0.0,0.0,0.0,0.0,0.0,0.0,500.0,97053,Direct,,,View report (https://accesshub.pdc.wa.gov/node/104527),Human services,"Family Time, child welfare","House Appropriations, Senate Ways and Means, DCYF"
5252,104534-29470,104534,FE,29469,Ramona Hattendorf,Employer,29470,The Arc of King County,23-Mar,4/30/2023,16134,The Arc of King County,967.5,0.0,967.5,0.0,0.0,0.0,0.0,0.0,0.0,0.0,967.5,29470,Direct,,,View report (https://accesshub.pdc.wa.gov/node/104534),Fiscal,"1140, 5187, 5200","Ways and Means, Appropriations"
5253,104546-71723,104546,FE,17469,JOSIE CUMMINGS,Employer,71723,BUILDING INDUSTRY ASSN OF WA,23-Apr,5/1/2023,16215,BUILDING INDUSTRY ASSN OF WA,500.0,0.0,500.0,0.0,120.47,0.0,0.0,5000.0,0.0,5120.47,5620.47,71723,Direct,,,View report (https://accesshub.pdc.wa.gov/node/104546),Local government,"Housing, Middle Housing, SEPA",Legislature House and Senate
5254,104555-19135,104555,FE,17741,JEAN M LEONARD*,Employer,19135,WA INSURERS,23-Apr,5/1/2023,17130,WA INSURERS,9008.67,-2550.0,6458.67,0.0,0.0,0.0,0.0,0.0,0.0,0.0,6458.67,19135,Direct,,,View report (https://accesshub.pdc.wa.gov/node/104555),Financial institutions and insurance,Insurance,Legislative Committees
5255,104562-99947,104562,FE,97726,Veronica Vanslyke,Employer,99947,AMERICAN FAMILY MUTUAL INSURANCE,23-Apr,5/1/2023,16103,AMERICAN FAMILY MUTUAL INSURANCE,12500.0,0.0,12500.0,0.0,0.0,0.0,0.0,0.0,0.0,0.0,12500.0,99947,Direct,,,View report (https://accesshub.pdc.wa.gov/node/104562),Business and consumer affairs,Insurance,"House & Senate Committees on Insurance, Office of the Insurance Commissioner"
5256,104561-97728,104561,FE,17359,CHRISTOPHER BANDOLI,Employer,97728,AMERICAS HEALTH INSURANCE PLANS,23-Apr,5/1/2023,16110,AMERICAS HEALTH INSURANCE PLANS,7283.33,0.0,7283.33,0.0,0.0,0.0,0.0,0.0,0.0,0.0,7283.33,97728,Direct,,,View report (https://accesshub.pdc.wa.gov/node/104561),Health Care,Health care financing issues,Health Care Committees and other legislators
5257,104555-19129,104555,FE,17741,JEAN M LEONARD*,Employer,19129,AMERICAN INTERNATIONAL GROUP INC,23-Apr,5/1/2023,16112,AMERICAN INTERNATIONAL GROUP INC,3500.0,-1050.0,2450.0,0.0,0.0,0.0,0.0,0.0,0.0,0.0,2450.0,19129,Direct,,,View report (https://accesshub.pdc.wa.gov/node/104555),Financial institutions and insurance,Insurance,"Legislative Committees, Office of the Insurance Commissioner"
5258,104556-58824,104556,FE,17712,KATHRYN KOLAN,Employer,58824,AMERICAN INTERNATIONAL GROUP INC  (JEAN M LEONARD*),23-Apr,5/1/2023,16112,AMERICAN INTERNATIONAL GROUP INC,1050.0,0.0,1050.0,0.0,0.0,0.0,0.0,0.0,0.0,0.0,1050.0,58824,Subcontract,17741.0,JEAN M LEONARD*,View report (https://accesshub.pdc.wa.gov/node/104556),,,
5259,104575-98539,104575,FE,98532,Paragon Strategic Partners LLC,Employer,98539,ASSN OF ALCOHOLISM & ADDICTIONS PROGRAMS,23-Apr,5/1/2023,16146,ASSN OF ALCOHOLISM & ADDICTIONS PROGRAMS,8640.0,0.0,8640.0,0.0,0.0,0.0,0.0,0.0,0.0,0.0,8640.0,98539,Direct,,,View report (https://accesshub.pdc.wa.gov/node/104575),Human services,1104 deferred prosecution,House Senate All
5260,103816-18970,103816,FE,17642,JAN HIMEBAUGH,Employer,18970,BUILDING INDUSTRY ASSN OF WA,23-Mar,5/1/2023,16215,BUILDING INDUSTRY ASSN OF WA,500.0,0.0,500.0,0.0,500.0,0.0,0.0,0.0,0.0,500.0,1000.0,18970,Direct,,,View report (https://accesshub.pdc.wa.gov/node/103816),Fiscal,REET 1628,house and senate
5262,103813-71723,103813,FE,17469,JOSIE CUMMINGS,Employer,71723,BUILDING INDUSTRY ASSN OF WA,23-Mar,5/1/2023,16215,BUILDING INDUSTRY ASSN OF WA,500.0,0.0,500.0,0.0,12347.53,0.0,0.0,0.0,0.0,12347.53,12847.53,71723,Direct,,,View report (https://accesshub.pdc.wa.gov/node/103813),Energy and utilities,1589,House and Senate
5263,104551-101661,104551,FE,101659,Tricia Gullion,Employer,101661,BUILDING INDUSTRY ASSN OF WA,23-Apr,5/1/2023,16215,BUILDING INDUSTRY ASSN OF WA,500.0,0.0,500.0,0.0,0.0,0.0,0.0,0.0,0.0,0.0,500.0,101661,Direct,,,View report (https://accesshub.pdc.wa.gov/node/104551),State government,Middle Housing - HB 1110,Senate
5264,104570-73925,104570,FE,17496,DOTY & ASSOC INC*,Employer,73925,CENTURYLINK,23-Apr,5/1/2023,16244,CENTURYLINK,6500.0,-3000.0,3500.0,0.0,0.0,0.0,0.0,0.0,0.0,0.0,3500.0,73925,Direct,,,View report (https://accesshub.pdc.wa.gov/node/104570),State government,,
5265,104571-73930,104571,FE,26001,BMcConsulting,Employer,73930,CENTURYLINK (DOTY & ASSOC INC*),23-Apr,5/1/2023,16244,CENTURYLINK,3000.0,0.0,3000.0,0.0,0.0,0.0,0.0,0.0,0.0,0.0,3000.0,73930,Subcontract,17496.0,DOTY & ASSOC INC*,View report (https://accesshub.pdc.wa.gov/node/104571),,,
5266,104561-96807,104561,FE,17359,CHRISTOPHER BANDOLI,Employer,96807,CIGNA CORPORATE SERVICES,23-Apr,5/1/2023,16263,CIGNA CORPORATE SERVICES,6333.33,0.0,6333.33,0.0,0.0,0.0,0.0,0.0,0.0,0.0,6333.33,96807,Direct,,,View report (https://accesshub.pdc.wa.gov/node/104561),Health Care,Health care financing issues,Health Care Committee members and other legislators
5267,104571-96846,104571,FE,26001,BMcConsulting,Employer,96846,CITY OF KIRKLAND,23-Apr,5/1/2023,16289,CITY OF KIRKLAND,6000.0,-3000.0,3000.0,0.0,0.0,0.0,0.0,0.0,0.0,0.0,3000.0,96846,Direct,,,View report (https://accesshub.pdc.wa.gov/node/104571),State government,,
5268,104570-39336,104570,FE,17496,DOTY & ASSOC INC*,Employer,39336,LAMAR ADVERTISING,23-Apr,5/1/2023,16325,LAMAR ADVERTISING,3500.0,0.0,3500.0,0.0,0.0,0.0,0.0,0.0,0.0,0.0,3500.0,39336,Direct,,,View report (https://accesshub.pdc.wa.gov/node/104570),State government,,
5269,104567-50912,104567,FE,50911,Leah Missik,Employer,50912,CLIMATE SOLUTIONS,23-Apr,5/1/2023,16327,CLIMATE SOLUTIONS,867.73,0.0,867.73,72.84,0.0,0.0,0.0,0.0,0.0,72.84,940.57,50912,Direct,,,View report (https://accesshub.pdc.wa.gov/node/104567),Energy and utilities,HB 1589,Senate
5270,100253-49819,100253,FE,36433,Sermonti Public Affairs,Employer,49819,COMCAST CABLE COMMUNICATIONS,23-Jan,5/1/2023,16344,COMCAST CABLE COMMUNICATIONS,5000.0,0.0,5000.0,0.0,0.0,0.0,0.0,0.0,0.0,0.0,5000.0,49819,Direct,,,View report (https://accesshub.pdc.wa.gov/node/100253),Business and consumer affairs,Telecom consumer affairs,WA State Legislature
5271,101778-49819,101778,FE,36433,Sermonti Public Affairs,Employer,49819,COMCAST CABLE COMMUNICATIONS,23-Feb,5/1/2023,16344,COMCAST CABLE COMMUNICATIONS,5000.0,0.0,5000.0,0.0,0.0,0.0,0.0,0.0,0.0,0.0,5000.0,49819,Direct,,,View report (https://accesshub.pdc.wa.gov/node/101778),Business and consumer affairs,Telecom consumer affairs,WA State Legislature
5272,104570-18566,104570,FE,17496,DOTY & ASSOC INC*,Employer,18566,ENTERPRISE HOLDINGS LLC,23-Apr,5/1/2023,16396,ENTERPRISE HOLDINGS LLC,2500.0,0.0,2500.0,0.0,0.0,0.0,0.0,0.0,0.0,0.0,2500.0,18566,Direct,,,View report (https://accesshub.pdc.wa.gov/node/104570),State government,,
5273,104555-19130,104555,FE,17741,JEAN M LEONARD*,Employer,19130,ENTERTAINMENT SOFTWARE ASSN,23-Apr,5/1/2023,16416,ENTERTAINMENT SOFTWARE ASSN,10833.33,-5416.67,5416.66,0.0,0.0,0.0,0.0,0.0,0.0,0.0,5416.66,19130,Direct,,,View report (https://accesshub.pdc.wa.gov/node/104555),Technology,"Data, Gaming, Technology, Video Games",Legislative Committees
5274,104556-58828,104556,FE,17712,KATHRYN KOLAN,Employer,58828,ENTERTAINMENT SOFTWARE ASSN (JEAN M LEONARD*),23-Apr,5/1/2023,16416,ENTERTAINMENT SOFTWARE ASSN,5416.67,0.0,5416.67,0.0,0.0,0.0,0.0,0.0,0.0,0.0,5416.67,58828,Subcontract,17741.0,JEAN M LEONARD*,View report (https://accesshub.pdc.wa.gov/node/104556),,,
5275,104570-18567,104570,FE,17496,DOTY & ASSOC INC*,Employer,18567,FIRE SPRINKLER ADVISORY BD OF PUGET SOUND,23-Apr,5/1/2023,16444,FIRE SPRINKLER ADVISORY BD OF PUGET SOUND,2500.0,-1050.0,1450.0,35.0,0.0,0.0,0.0,0.0,0.0,35.0,1485.0,18567,Direct,,,View report (https://accesshub.pdc.wa.gov/node/104570),State government,,
5276,104571-26108,104571,FE,26001,BMcConsulting,Employer,26108,FIRE SPRINKLER ADVISORY BD OF PUGET SOUND (DOTY & ASSOC INC*),23-Apr,5/1/2023,16444,FIRE SPRINKLER ADVISORY BD OF PUGET SOUND,1050.0,0.0,1050.0,0.0,0.0,0.0,0.0,0.0,0.0,0.0,1050.0,26108,Subcontract,17496.0,DOTY & ASSOC INC*,View report (https://accesshub.pdc.wa.gov/node/104571),,,
5277,104556-98747,104556,FE,17712,KATHRYN KOLAN,Employer,98747,GENENTECH,23-Apr,5/1/2023,16467,GENENTECH,3000.0,-1500.0,1500.0,0.0,0.0,0.0,0.0,0.0,0.0,0.0,1500.0,98747,Direct,,,View report (https://accesshub.pdc.wa.gov/node/104556),Health Care,Health Care,Legislative Committees
5278,104556-95260,104556,FE,17712,KATHRYN KOLAN,Employer,95260,Greater Seattle Business Assn,23-Apr,5/1/2023,16485,Greater Seattle Business Assn,3000.0,-1500.0,1500.0,0.0,0.0,0.0,0.0,0.0,0.0,0.0,1500.0,95260,Direct,,,View report (https://accesshub.pdc.wa.gov/node/104556),Business and consumer affairs,"Business, LGBTQ+",Legislative Committees
5279,104555-95507,104555,FE,17741,JEAN M LEONARD*,Employer,95507,Greater Seattle Business Assn (KATHRYN KOLAN),23-Apr,5/1/2023,16485,Greater Seattle Business Assn,1500.0,0.0,1500.0,0.0,0.0,0.0,0.0,0.0,0.0,0.0,1500.0,95507,Subcontract,17712.0,KATHRYN KOLAN,View report (https://accesshub.pdc.wa.gov/node/104555),,,
5280,100253-75731,100253,FE,36433,Sermonti Public Affairs,Employer,75731,"HABITAT FOR HUMANITY OF WA ST (Lobby Washington, LLC )",23-Jan,5/1/2023,16489,HABITAT FOR HUMANITY OF WA ST,1100.0,0.0,1100.0,0.0,0.0,0.0,0.0,0.0,0.0,0.0,1100.0,75731,Subcontract,73982.0,"Lobby Washington, LLC",View report (https://accesshub.pdc.wa.gov/node/100253),,,
5281,101778-75731,101778,FE,36433,Sermonti Public Affairs,Employer,75731,"HABITAT FOR HUMANITY OF WA ST (Lobby Washington, LLC )",23-Feb,5/1/2023,16489,HABITAT FOR HUMANITY OF WA ST,1100.0,0.0,1100.0,0.0,0.0,0.0,0.0,0.0,0.0,0.0,1100.0,75731,Subcontract,73982.0,"Lobby Washington, LLC",View report (https://accesshub.pdc.wa.gov/node/101778),,,
