,id,report_number,origin,filer_id,filer_name,type,funding_source_id,funding_source_name,filing_period,receipt_date,employer_id,employer_name,compensation,sub_lobbyist_compensation,net_compensation,personal_expenses,entertainment,contributions,advertising,political_ads,other,total_expenses,net_total,employment_registration_id,employment_type,contractor_id,contractor_name,url,legislation_subject_matter,issue_bill_number,committee_lobbied
50000,54157-19061,54157,FE,17688,James P Justin (Government Relations Consulting Inc.),Employer,19061,WA STEM CENTER,19-Mar,4/14/2019,17189.0,WA STEM CENTER,2500.0,0.0,2500.0,0.0,0.0,0.0,0.0,0.0,0.0,0.0,2500.0,19061.0,Direct,,,View report (https://accesshub.pdc.wa.gov/node/54157),Education,STEM Career Connected Learning,"Governor's Policy Office, OFM Budget Staff, House & Senate K-12 and College/Workforce Committees, House Appropriations Com & Senate Ways and Means Com"
50001,53949-50791,53949,FE,44616,DeVere Public Affairs and Consulting,Employer,50791,WA TRUCKING ASSN,19-Mar,4/14/2019,17199.0,WA TRUCKING ASSN,1250.0,0.0,1250.0,0.0,0.0,0.0,0.0,0.0,0.0,0.0,1250.0,50791.0,Direct,,,View report (https://accesshub.pdc.wa.gov/node/53949),Transportation,Commercial Vehicle Configuration,"Transportation Committees, staff"
50002,54157-26338,54157,FE,17688,James P Justin (Government Relations Consulting Inc.),Employer,26338,WA TECHNOLOGY INDUSTRY ASSN (Insight Strategic Partners LLC),19-Mar,4/14/2019,17203.0,WA TECHNOLOGY INDUSTRY ASSN,2000.0,0.0,2000.0,0.0,0.0,0.0,0.0,0.0,0.0,0.0,2000.0,26338.0,Subcontract,25651.0,Insight Strategic Partners LLC,View report (https://accesshub.pdc.wa.gov/node/54157),,,
50003,54465-18439,54465,FE,17448,"DONNA CHRISTENSEN, PACIFIC GOVERNMENT AFFAIRS",Employer,18439,WA ST CATHOLIC CONFERENCE,19-Mar,4/14/2019,17228.0,WA ST CATHOLIC CONFERENCE,2000.0,0.0,2000.0,0.0,0.0,0.0,0.0,0.0,0.0,0.0,2000.0,18439.0,Direct,,,View report (https://accesshub.pdc.wa.gov/node/54465),Human services,Budget,"Budget committees, Human Services and Early Learning,"
50004,54463-19762,54463,FE,18024,Roosevelt Consulting,Employer,19762,WA STATE COUNCIL OF COUNTY & CITY EMPLOYEES,19-Mar,4/14/2019,17230.0,WA STATE COUNCIL OF COUNTY & CITY EMPLOYEES,5723.0,0.0,5723.0,0.0,0.0,0.0,0.0,0.0,0.0,0.0,5723.0,19762.0,Direct,,,View report (https://accesshub.pdc.wa.gov/node/54463),Labor,157513085418,"labor,house,senate"
50005,53949-48429,53949,FE,44616,DeVere Public Affairs and Consulting,Employer,48429,WA ST COUNCIL OF POLICE & SHERIFFS,19-Mar,4/14/2019,17236.0,WA ST COUNCIL OF POLICE & SHERIFFS,2917.0,0.0,2917.0,0.0,0.0,0.0,0.0,0.0,0.0,0.0,2917.0,48429.0,Direct,,,View report (https://accesshub.pdc.wa.gov/node/53949),Law and justice,"Retirement, Law and Justice","Public Safety, Law and Justice, Ways and Means, Appropriations"
50006,54457-19849,54457,FE,18066,TAMARA L WARNKE,Employer,19849,WA ST FIRE FIGHTERS ASSN,19-Mar,4/14/2019,17243.0,WA ST FIRE FIGHTERS ASSN,1100.0,0.0,1100.0,0.0,0.0,0.0,0.0,0.0,0.0,0.0,1100.0,19849.0,Direct,,,View report (https://accesshub.pdc.wa.gov/node/54457),Local government,1912 5829,W&M
50007,54470-18883,54470,FE,17593,SEAN N GRAHAM,Employer,18883,WA ST MEDICAL ASSN,19-Mar,4/14/2019,17261.0,WA ST MEDICAL ASSN,2222.22,0.0,2222.22,0.0,41.0,0.0,0.0,0.0,0.0,41.0,2263.22,18883.0,Direct,,,View report (https://accesshub.pdc.wa.gov/node/54470),Health Care,Multiple,Multiple
50008,54462-20065,54462,FE,17554,DAVID S FOSTER,Employer,20065,WESTAF (OUTCOMES BY LEVY LLC*),19-Mar,4/14/2019,17301.0,WESTAF,2000.0,0.0,2000.0,0.0,0.0,0.0,0.0,0.0,0.0,0.0,2000.0,20065.0,Subcontract,17870.0,OUTCOMES BY LEVY LLC*,View report (https://accesshub.pdc.wa.gov/node/54462),,,
50009,54465-18440,54465,FE,17448,"DONNA CHRISTENSEN, PACIFIC GOVERNMENT AFFAIRS",Employer,18440,Washington State Alliance of YMCAs,19-Mar,4/14/2019,17323.0,Washington State Alliance of YMCAs,3200.0,0.0,3200.0,0.0,0.0,0.0,0.0,0.0,0.0,0.0,3200.0,18440.0,Direct,,,View report (https://accesshub.pdc.wa.gov/node/54465),Human services,Budget,"Ways and Means, Appropriations. Early Lerning, DCYF"
50010,54462-18742,54462,FE,17554,DAVID S FOSTER,Employer,18742,Washington State Alliance of YMCAs,19-Mar,4/14/2019,17323.0,Washington State Alliance of YMCAs,3200.0,0.0,3200.0,0.0,0.0,0.0,0.0,0.0,0.0,0.0,3200.0,18742.0,Direct,,,View report (https://accesshub.pdc.wa.gov/node/54462),Human services,"Childcare, budget","Early Learning Human Services, Approps, Cap Budget"
50011,54465-28248,54465,FE,17448,"DONNA CHRISTENSEN, PACIFIC GOVERNMENT AFFAIRS",Employer,28248,Washington Continuing Care Residents Association,19-Mar,4/14/2019,27296.0,Washington Continuing Care Residents Association,1000.0,0.0,1000.0,0.0,0.0,0.0,0.0,0.0,0.0,0.0,1000.0,28248.0,Direct,,,View report (https://accesshub.pdc.wa.gov/node/54465),Health Care,aging,"Health Care, Appropriations"
50012,54462-48563,54462,FE,17554,DAVID S FOSTER,Employer,48563,City of Tukwila,19-Mar,4/14/2019,28150.0,City of Tukwila,3250.0,0.0,3250.0,0.0,0.0,0.0,0.0,0.0,0.0,0.0,3250.0,48563.0,Direct,,,View report (https://accesshub.pdc.wa.gov/node/54462),Local government,Local Government,"Local government, Approps, W&M, Transportation"
50013,54462-31666,54462,FE,17554,DAVID S FOSTER,Employer,31666,American Behavioral Health Systems Inc,19-Mar,4/14/2019,30616.0,American Behavioral Health Systems Inc,5000.0,0.0,5000.0,0.0,0.0,0.0,0.0,0.0,0.0,0.0,5000.0,31666.0,Direct,,,View report (https://accesshub.pdc.wa.gov/node/54462),Health Care,Mental and behavioral health,"Health Care, Approps, W&M"
50014,54468-50205,54468,FE,28264,Randazzo LLC,Employer,50205,Snoqualmie Tribe,19-Mar,4/14/2019,31273.0,Snoqualmie Tribe,6000.0,0.0,6000.0,0.0,0.0,0.0,0.0,0.0,0.0,0.0,6000.0,50205.0,Direct,,,View report (https://accesshub.pdc.wa.gov/node/54468),Transportation,SR 18,"State and House Transportation Committees, Gov Office, 5th District Legislators"
50015,54462-51027,54462,FE,17554,DAVID S FOSTER,Employer,51027,Museum of History & Industry (Bogard & Johnson LLC),19-Mar,4/14/2019,39825.0,Museum of History & Industry,1450.0,0.0,1450.0,0.0,0.0,0.0,0.0,0.0,0.0,0.0,1450.0,51027.0,Subcontract,17393.0,Bogard & Johnson LLC,View report (https://accesshub.pdc.wa.gov/node/54462),,,
50016,54462-43392,54462,FE,17554,DAVID S FOSTER,Employer,43392,"KinderCare Learning Companies, LLC",19-Mar,4/14/2019,43391.0,"KinderCare Learning Companies, LLC",3500.0,0.0,3500.0,0.0,0.0,0.0,0.0,0.0,0.0,0.0,3500.0,43392.0,Direct,,,View report (https://accesshub.pdc.wa.gov/node/54462),Human services,Childcare,"Early Learning Human Services, Approps, Ways & Means"
50017,53949-44618,53949,FE,44616,DeVere Public Affairs and Consulting,Employer,44618,City of Liberty Lake (JENNIFER ZIEGLER),19-Mar,4/14/2019,44526.0,City of Liberty Lake,1000.0,0.0,1000.0,0.0,0.0,0.0,0.0,0.0,0.0,0.0,1000.0,44618.0,Subcontract,18108.0,JENNIFER ZIEGLER,View report (https://accesshub.pdc.wa.gov/node/53949),,,
50018,53949-46486,53949,FE,44616,DeVere Public Affairs and Consulting,Employer,46486,MVD Express,19-Mar,4/14/2019,46158.0,MVD Express,2000.0,0.0,2000.0,0.0,0.0,0.0,0.0,0.0,0.0,0.0,2000.0,46486.0,Direct,,,View report (https://accesshub.pdc.wa.gov/node/53949),Transportation,Transportation,"House and Senate Transportation, Dept. of Licensing"
50019,54157-47255,54157,FE,17688,James P Justin (Government Relations Consulting Inc.),Employer,47255,Seattle Foundation,19-Mar,4/14/2019,47254.0,Seattle Foundation,4600.0,0.0,4600.0,0.0,0.0,0.0,0.0,0.0,0.0,0.0,4600.0,47255.0,Direct,,,View report (https://accesshub.pdc.wa.gov/node/54157),Higher education,Career Connect Proposals,"Governor's Office, House & Senate College/Higher Education Committees, Senate Ways & Means, House Appropriations Com"
50020,54462-48785,54462,FE,17554,DAVID S FOSTER,Employer,48785,Sound,19-Mar,4/14/2019,47810.0,Sound,4000.0,0.0,4000.0,0.0,0.0,0.0,0.0,0.0,0.0,0.0,4000.0,48785.0,Direct,,,View report (https://accesshub.pdc.wa.gov/node/54462),Health Care,Mental and behavioral health,"Health Care, Approps, Ways & Means"
50021,54456-50712,54456,FE,47837,Michael G Martin,Employer,50712,Proteus Action League,19-Mar,4/14/2019,50708.0,Proteus Action League,4500.0,0.0,4500.0,1062.04,0.0,0.0,0.0,0.0,0.0,1062.04,5562.04,50712.0,Direct,,,View report (https://accesshub.pdc.wa.gov/node/54456),Constitutions and elections,HB 1722 & SB 5708,House & Senate State Government & Tribal Relations Committee
50022,53949-50933,53949,FE,44616,DeVere Public Affairs and Consulting,Employer,50933,"ARKEMA (THRU NATIONAL STRATEGIES, LLC)",19-Mar,4/14/2019,50894.0,"ARKEMA (THRU NATIONAL STRATEGIES, LLC)",1500.0,0.0,1500.0,0.0,0.0,0.0,0.0,0.0,0.0,0.0,1500.0,50933.0,Direct,,,View report (https://accesshub.pdc.wa.gov/node/53949),Environmental Affairs - natural resources - parks,Hydro fluorocarbon,"Environment Committees, Fiscal Committees"
50023,53949-50934,53949,FE,44616,DeVere Public Affairs and Consulting,Employer,50934,"MEXICHEM FLUOR, INC. (THRU NATIONAL STRATEGIES, LLC)",19-Mar,4/14/2019,50895.0,"MEXICHEM FLUOR, INC. (THRU NATIONAL STRATEGIES, LLC)",1500.0,0.0,1500.0,0.0,0.0,0.0,0.0,0.0,0.0,0.0,1500.0,50934.0,Direct,,,View report (https://accesshub.pdc.wa.gov/node/53949),Environmental Affairs - natural resources - parks,Hydro fluorocarbon,"Environment Committees, Fiscal Committees"
50024,53949-50977,53949,FE,44616,DeVere Public Affairs and Consulting,Employer,50977,"DowDuPont (thru National Strategies, LLC)",19-Mar,4/14/2019,50972.0,"DowDuPont (thru National Strategies, LLC)",1500.0,0.0,1500.0,0.0,0.0,0.0,0.0,0.0,0.0,0.0,1500.0,50977.0,Direct,,,View report (https://accesshub.pdc.wa.gov/node/53949),Environmental Affairs - natural resources - parks,Hydro fluorocarbon,"Environment Committees, Fiscal Committees"
50025,53949-51476,53949,FE,44616,DeVere Public Affairs and Consulting,Employer,51476,PELOTON TECHNOLOGY,19-Mar,4/14/2019,51473.0,PELOTON TECHNOLOGY,3000.0,0.0,3000.0,0.0,0.0,0.0,0.0,0.0,0.0,0.0,3000.0,51476.0,Direct,,,View report (https://accesshub.pdc.wa.gov/node/53949),Transportation,Platooning,"Transportation, AV Subcommittees"
50026,53949-51760,53949,FE,44616,DeVere Public Affairs and Consulting,Employer,51760,"Consolidated Telecom, Inc.",19-Mar,4/14/2019,51740.0,"Consolidated Telecom, Inc.",2000.0,0.0,2000.0,0.0,0.0,0.0,0.0,0.0,0.0,0.0,2000.0,51760.0,Direct,,,View report (https://accesshub.pdc.wa.gov/node/53949),Law and justice,Incarceration Facility Communications,Public Safety
50027,53949-53288,53949,FE,44616,DeVere Public Affairs and Consulting,Employer,53288,Ice Floe LLC,19-Mar,4/14/2019,53287.0,Ice Floe LLC,3000.0,0.0,3000.0,0.0,0.0,0.0,0.0,0.0,0.0,0.0,3000.0,53288.0,Direct,,,View report (https://accesshub.pdc.wa.gov/node/53949),Transportation,"Ferry Construction Bills, Budget",Transportation Committees
50028,54669-19693,54669,FE,17995,LAURI ST OURS,Employer,19693,WA HEALTH CARE ASSN,19-Mar,4/15/2019,17128.0,WA HEALTH CARE ASSN,992.0,0.0,992.0,0.0,98.02,0.0,0.0,4428.0,0.0,4526.02,5518.02,19693.0,Direct,,,View report (https://accesshub.pdc.wa.gov/node/54669),Health Care,ESHB 1109,"Appropriations, Ways and Means"
50029,54592-40042,54592,FE,40041,Litonya Lester,Employer,40042,Children's Alliance,19-Mar,4/15/2019,16256.0,Children's Alliance,1250.0,0.0,1250.0,0.0,0.0,0.0,3953.0,4347.15,0.0,8300.15,9550.15,40042.0,Direct,,,View report (https://accesshub.pdc.wa.gov/node/54592),Health Care,"SB 5274, HB 1317","House Appropriations, State House, State Senate, HCA, OFA, HBE"
50051,54287-18888,54287,FE,17597,PIERCE CONSULTING SVCS LLC*,Employer,18888,4CULTURE,19-Mar,4/15/2019,16057.0,4CULTURE,2000.0,-257.99,1742.01,0.0,0.0,0.0,0.0,0.0,0.0,0.0,1742.01,18888.0,Direct,,,View report (https://accesshub.pdc.wa.gov/node/54287),Local government,various,various
50052,54412-19933,54412,FE,17553,JESSICA FORTESCUE,Employer,19933,4CULTURE (PIERCE CONSULTING SVCS LLC*),19-Mar,4/15/2019,16057.0,4CULTURE,257.99,0.0,257.99,0.0,0.0,0.0,0.0,0.0,0.0,0.0,257.99,19933.0,Subcontract,17597.0,PIERCE CONSULTING SVCS LLC*,View report (https://accesshub.pdc.wa.gov/node/54412),,,
50053,54354-19365,54354,FE,17850,PAUL NIELSEN,Employer,19365,ALKERMES PLC,19-Mar,4/15/2019,16079.0,ALKERMES PLC,3200.0,0.0,3200.0,468.0,0.0,0.0,0.0,0.0,0.0,468.0,3668.0,19365.0,Direct,,,View report (https://accesshub.pdc.wa.gov/node/54354),Health Care,SB 15380,House Health & Appropriations Committees
50054,54276-50755,54276,FE,49050,Dylan O'Connor,Employer,50755,Alliance for Gun Responsibility,19-Mar,4/15/2019,16083.0,Alliance for Gun Responsibility,415.36,0.0,415.36,0.0,0.0,0.0,0.0,0.0,0.0,0.0,415.36,50755.0,Direct,,,View report (https://accesshub.pdc.wa.gov/node/54276),Law and justice,"HB1225, HB1739, HB1786, HB1949, SB5027, SB5181, SB5205, SB5508, SB5514,","House Civil Rights and Judiciary, Senate Law & Justice"
50055,54279-50757,54279,FE,50754,Tallman Trask,Employer,50757,Alliance for Gun Responsibility,19-Mar,4/15/2019,16083.0,Alliance for Gun Responsibility,494.89,0.0,494.89,202.82,0.0,0.0,0.0,0.0,0.0,202.82,697.71,50757.0,Direct,,,View report (https://accesshub.pdc.wa.gov/node/54279),Law and justice,"HB1225, HB1739, HB1786, HB1949, SB5027, SB5181, SB5205, SB5508, SB5514",Senate Law & Justice
50056,54108-19723,54108,FE,18008,Eileen Sullivan,Employer,19723,AMAZON.COM SERVICES LLC,19-Mar,4/15/2019,16088.0,AMAZON.COM SERVICES LLC,3076.0,0.0,3076.0,0.0,0.0,200250.0,0.0,0.0,0.0,200250.0,203326.0,19723.0,Direct,,,View report (https://accesshub.pdc.wa.gov/node/54108),Technology,SB 5376,Legislature
50057,54510-19412,54510,FE,17875,PAM CRONE LEGISLATIVE CONSULTING SVCS*,Employer,19412,AAUW of Washington State,19-Mar,4/15/2019,16091.0,AAUW of Washington State,670.0,-670.0,0.0,0.0,0.0,0.0,0.0,0.0,0.0,0.0,0.0,19412.0,Direct,,,View report (https://accesshub.pdc.wa.gov/node/54510),Labor,"1696, 5090, 5602, 8201",House and senate labor committees Healthcare
50058,54596-20046,54596,FE,17935,Nancy Sapiro,Employer,20046,AAUW of Washington State (PAM CRONE LEGISLATIVE CONSULTING SVCS*),19-Mar,4/15/2019,16091.0,AAUW of Washington State,670.0,0.0,670.0,0.0,0.0,0.0,0.0,0.0,0.0,0.0,670.0,20046.0,Subcontract,17875.0,PAM CRONE LEGISLATIVE CONSULTING SVCS*,View report (https://accesshub.pdc.wa.gov/node/54596),,,
50059,54516-19333,54516,FE,17834,SHANKAR R NARAYAN,Employer,19333,AMERICAN CIVIL LIBERTIES UNION OF WA,19-Mar,4/15/2019,16097.0,AMERICAN CIVIL LIBERTIES UNION OF WA,3881.2,0.0,3881.2,0.0,0.0,0.0,0.0,0.0,0.0,0.0,3881.2,19333.0,Direct,,,View report (https://accesshub.pdc.wa.gov/node/54516),Technology,SB5376,Rep. Smith
50060,54596-46359,54596,FE,17935,Nancy Sapiro,Employer,46359,AMERICAN CIVIL LIBERTIES UNION OF WA,19-Mar,4/15/2019,16097.0,AMERICAN CIVIL LIBERTIES UNION OF WA,3000.0,0.0,3000.0,0.0,0.0,0.0,0.0,0.0,0.0,0.0,3000.0,46359.0,Direct,,,View report (https://accesshub.pdc.wa.gov/node/54596),Health Care,1608 1686,members of House and Senate Appropriations Committee
50063,54515-50724,54515,FE,50722,Vanessa Hernandez,Employer,50724,AMERICAN CIVIL LIBERTIES UNION OF WA,19-Mar,4/15/2019,16097.0,AMERICAN CIVIL LIBERTIES UNION OF WA,257.31,0.0,257.31,0.0,0.0,0.0,0.0,0.0,0.0,0.0,257.31,50724.0,Direct,,,View report (https://accesshub.pdc.wa.gov/node/54515),Law and justice,HB1742,Sen. Dhingra
50065,54511-51886,54511,FE,17580,Eric Gonzalez Alfaro,Employer,51886,AMERICAN CIVIL LIBERTIES UNION OF WA,19-Mar,4/15/2019,16097.0,AMERICAN CIVIL LIBERTIES UNION OF WA,8750.0,0.0,8750.0,0.0,0.0,0.0,0.0,0.0,0.0,0.0,8750.0,51886.0,Direct,,,View report (https://accesshub.pdc.wa.gov/node/54511),Health Care,SB5602,Rep. Sullivan
50066,54510-19413,54510,FE,17875,PAM CRONE LEGISLATIVE CONSULTING SVCS*,Employer,19413,AMERICAN CONGRESS OF OBSTETRICIANS AND GYNECOLOGISTS,19-Mar,4/15/2019,16099.0,AMERICAN CONGRESS OF OBSTETRICIANS AND GYNECOLOGISTS,1250.0,0.0,1250.0,0.0,0.0,0.0,0.0,0.0,0.0,0.0,1250.0,19413.0,Direct,,,View report (https://accesshub.pdc.wa.gov/node/54510),Health Care,"1686, 5602, maternal mortality","DOH, House and Senate Healthcare, OIC, Ways and Means"
50067,54579-18478,54579,FE,17459,MATTHEW A COMISKY,Employer,18478,AMERICAN FOREST RESOURCE CNCL,19-Mar,4/15/2019,16105.0,AMERICAN FOREST RESOURCE CNCL,650.0,0.0,650.0,0.0,0.0,0.0,0.0,0.0,0.0,0.0,650.0,18478.0,Direct,,,View report (https://accesshub.pdc.wa.gov/node/54579),Environmental Affairs - natural resources - parks,2119,Senate Ways and Means
50069,54519-19197,54519,FE,17774,TIMOTHY A MARTIN,Employer,19197,AMGEN INC,19-Mar,4/15/2019,16127.0,AMGEN INC,2596.0,0.0,2596.0,0.0,0.0,0.0,0.0,0.0,0.0,0.0,2596.0,19197.0,Direct,,,View report (https://accesshub.pdc.wa.gov/node/54519),Health Care,Biotechnology,Legislature
50070,54400-18821,54400,FE,17581,GORDON THOMAS HONEYWELL GOV AFFAIRS*,Employer,18821,Bamboo Health,19-Mar,4/15/2019,16133.0,Bamboo Health,3000.0,0.0,3000.0,0.0,0.0,0.0,0.0,0.0,0.0,0.0,3000.0,18821.0,Direct,,,View report (https://accesshub.pdc.wa.gov/node/54400),Health Care,HB1331,Senate and House Health Care Committees
50071,54590-19653,54590,FE,17981,DIANA STADDEN,Employer,19653,ARC OF WA ST,19-Mar,4/15/2019,16137.0,ARC OF WA ST,476.38,0.0,476.38,0.0,0.0,0.0,216.0,0.0,0.0,216.0,692.38,19653.0,Direct,,,View report (https://accesshub.pdc.wa.gov/node/54590),,,
50072,54626-40342,54626,FE,18036,SUSAN S TRACY,Employer,40342,ASSN OF ALCOHOLISM & ADDICTIONS PROGRAMS,19-Mar,4/15/2019,16146.0,ASSN OF ALCOHOLISM & ADDICTIONS PROGRAMS,2000.0,0.0,2000.0,0.0,0.0,0.0,0.0,0.0,0.0,0.0,2000.0,40342.0,Direct,,,View report (https://accesshub.pdc.wa.gov/node/54626),Health Care,3333.33,"hc, hum ser, app, wm"
50073,54613-19856,54613,FE,18071,WA ST NURSES ASSN,Employer,19856,ASSN OF ADV PRACTICE PSYCHIATRIC NURSES,19-Mar,4/15/2019,16147.0,ASSN OF ADV PRACTICE PSYCHIATRIC NURSES,500.0,0.0,500.0,0.0,0.0,0.0,0.0,0.0,0.0,0.0,500.0,19856.0,Direct,,,View report (https://accesshub.pdc.wa.gov/node/54613),Health Care,Nursing/Health Care Issues,"Healthcare, Labor, Budget Committees, Dept of Health, Labor and Industries"
50074,54436-19743,54436,FE,18021,LISA THATCHER,Employer,19743,ASSN OF DENTAL SUPPORT ORGANIZATIONS,19-Mar,4/15/2019,16153.0,ASSN OF DENTAL SUPPORT ORGANIZATIONS,5000.0,0.0,5000.0,102.31,0.0,0.0,0.0,0.0,0.0,102.31,5102.31,19743.0,Direct,,,View report (https://accesshub.pdc.wa.gov/node/54436),Health Care,Support services offered to dentists,Dept of Health
50075,54648-19826,54648,FE,18051,JERRY VANDERWOOD,Employer,19826,ASSOCIATED GENERAL CONTRACTORS OF WA,19-Mar,4/15/2019,16154.0,ASSOCIATED GENERAL CONTRACTORS OF WA,2652.25,0.0,2652.25,0.0,0.0,1041.4,0.0,0.0,4000.0,5041.4,7693.65,19826.0,Direct,,,View report (https://accesshub.pdc.wa.gov/node/54648),Business and consumer affairs,"contracting issues, prevailing wage, apprenticeship, environment, transportation","Labor committees, Environment committees, Fiscal committees, Capital Budget, State Gov committees, Local Gov committees, Transportation committees, Judicary committees"
50076,54646-19897,54646,FE,18093,MICHELE WILLMS,Employer,19897,ASSOCIATED GENERAL CONTRACTORS OF WA,19-Mar,4/15/2019,16154.0,ASSOCIATED GENERAL CONTRACTORS OF WA,1626.92,0.0,1626.92,0.0,0.0,0.0,0.0,0.0,0.0,0.0,1626.92,19897.0,Direct,,,View report (https://accesshub.pdc.wa.gov/node/54646),Education,"Apprenticeship, Education & Workforce Dev","Labor Committees, College & Workforce Dev Committee, Early Learning & K-12, Education"
50077,54412-27763,54412,FE,17553,JESSICA FORTESCUE,Employer,27763,ASSN of WA Housing Authorities,19-Mar,4/15/2019,16155.0,ASSN of WA Housing Authorities,1400.0,0.0,1400.0,0.0,0.0,0.0,0.0,0.0,0.0,0.0,1400.0,27763.0,Direct,,,View report (https://accesshub.pdc.wa.gov/node/54412),Human services,"Housing, local government","Housing, Local Government, fiscal"
50078,53702-18216,53702,FE,17367,ROBERT A BATTLES,Employer,18216,ASSN OF WA BUSINESS,19-Mar,4/15/2019,16167.0,ASSN OF WA BUSINESS,10918.43,0.0,10918.43,0.0,0.0,0.0,0.0,0.0,0.0,0.0,10918.43,18216.0,Direct,,,View report (https://accesshub.pdc.wa.gov/node/53702),State government,,
50079,54652-18428,54652,FE,17440,GARY CHANDLER,Employer,18428,ASSN OF WA BUSINESS,19-Mar,4/15/2019,16167.0,ASSN OF WA BUSINESS,12000.0,0.0,12000.0,0.0,114.2,0.0,0.0,0.0,0.0,114.2,12114.2,18428.0,Direct,,,View report (https://accesshub.pdc.wa.gov/node/54652),State government,,
50080,54655-18670,54655,FE,17525,MICHAEL W ENNIS,Employer,18670,ASSN OF WA BUSINESS,19-Mar,4/15/2019,16167.0,ASSN OF WA BUSINESS,10604.5,0.0,10604.5,0.0,0.0,0.0,0.0,0.0,0.0,0.0,10604.5,18670.0,Direct,,,View report (https://accesshub.pdc.wa.gov/node/54655),State government,,
50081,54650-19021,54650,FE,17673,AMY ANDERSON,Employer,19021,ASSN OF WA BUSINESS,19-Mar,4/15/2019,16167.0,ASSN OF WA BUSINESS,10428.75,0.0,10428.75,0.0,0.0,0.0,0.0,0.0,0.0,0.0,10428.75,19021.0,Direct,,,View report (https://accesshub.pdc.wa.gov/node/54650),State government,,
50082,54654-19041,54654,FE,17680,KRISTOFER T JOHNSON,Employer,19041,ASSN OF WA BUSINESS,19-Mar,4/15/2019,16167.0,ASSN OF WA BUSINESS,1166.67,0.0,1166.67,0.0,0.0,0.0,0.0,0.0,0.0,0.0,1166.67,19041.0,Direct,,,View report (https://accesshub.pdc.wa.gov/node/54654),State government,,
50083,54651-39852,54651,FE,39851,Clay Hill,Employer,39852,ASSN OF WA BUSINESS,19-Mar,4/15/2019,16167.0,ASSN OF WA BUSINESS,10729.17,0.0,10729.17,0.0,0.0,0.0,0.0,0.0,0.0,0.0,10729.17,39852.0,Direct,,,View report (https://accesshub.pdc.wa.gov/node/54651),State government,,
50084,54657-50652,54657,FE,49538,PETER GODLEWSKI,Employer,50652,ASSN OF WA BUSINESS,19-Mar,4/15/2019,16167.0,ASSN OF WA BUSINESS,8750.0,0.0,8750.0,0.0,0.0,0.0,0.0,0.0,0.0,0.0,8750.0,50652.0,Direct,,,View report (https://accesshub.pdc.wa.gov/node/54657),State government,,
50085,54436-19744,54436,FE,18021,LISA THATCHER,Employer,19744,ASSN OF WA PUBLIC HOSPITAL DISTRICTS,19-Mar,4/15/2019,16170.0,ASSN OF WA PUBLIC HOSPITAL DISTRICTS,4500.0,0.0,4500.0,83.04,0.0,0.0,0.0,0.0,0.0,83.04,4583.04,19744.0,Direct,,,View report (https://accesshub.pdc.wa.gov/node/54436),Fiscal,Public bidding issues,CPARB
50086,54602-35258,54602,FE,34688,Roz Thompson,Employer,35258,ASSN OF WA SCHOOL PRINCIPALS,19-Mar,4/15/2019,16173.0,ASSN OF WA SCHOOL PRINCIPALS,2153.4,0.0,2153.4,0.0,0.0,0.0,0.0,0.0,0.0,0.0,2153.4,35258.0,Direct,,,View report (https://accesshub.pdc.wa.gov/node/54602),Education,"HB 1216, HB 1139, SB 5141, SB 5146, SB 5290, SB 5313, SB 5317, SB 5395, SB 5354, HB 1599","Sen. Lisa Wellman, Rep. Sharon Tomiko Santos, Sen. Sam Hunt, Rep. Chris Corry and Rep. Mike Steele"
50087,54500-47055,54500,FE,47054,Barbara Morrow,Employer,47055,"ASTELLAS PHARMA US, INC.",19-Mar,4/15/2019,16174.0,"ASTELLAS PHARMA US, INC.",9990.0,0.0,9990.0,0.0,0.0,0.0,0.0,0.0,0.0,0.0,9990.0,47055.0,Direct,,,View report (https://accesshub.pdc.wa.gov/node/54500),Health Care,HB 1224,WA State Legislature
50088,54512-18343,54512,FE,17428,DEANNE C CALVERT,Employer,18343,SANOFI US,19-Mar,4/15/2019,16178.0,SANOFI US,1000.0,0.0,1000.0,0.0,0.0,0.0,0.0,0.0,0.0,0.0,1000.0,18343.0,Direct,,,View report (https://accesshub.pdc.wa.gov/node/54512),Health Care,"HB1071, HB1108, HB1109, HB1224, HB1276, HB1523, HB5806, HB5251, HB5252, HB5371","Legislature, Governor"
50089,54676-28926,54676,FE,18069,WA MEDIA SVCS INC*,Employer,28926,BACK COUNTRY HORSEMEN OF WA,19-Mar,4/15/2019,16181.0,BACK COUNTRY HORSEMEN OF WA,940.0,0.0,940.0,0.0,0.0,0.0,0.0,0.0,0.0,0.0,940.0,28926.0,Direct,,,View report (https://accesshub.pdc.wa.gov/node/54676),Environmental Affairs - natural resources - parks,"Parks & Recreation, SSB5265, HB1449, SB 5134","DNR, Legislature"
50090,54498-18979,54498,FE,17650,JAMES G HOOVER,Employer,18979,Bayer U.S. LLC,19-Mar,4/15/2019,16185.0,Bayer U.S. LLC,1820.0,0.0,1820.0,1140.0,0.0,0.0,0.0,0.0,0.0,1140.0,2960.0,18979.0,Direct,,,View report (https://accesshub.pdc.wa.gov/node/54498),Health Care,HB 1224,"Sen Rivers, Rep Schmick"
50091,54677-18240,54677,FE,17382,TROY L BERGLUND,Employer,18240,BENTON RURAL ELECTRIC ASSN,19-Mar,4/15/2019,16189.0,BENTON RURAL ELECTRIC ASSN,803.83,0.0,803.83,273.58,904.27,0.0,0.0,0.0,0.0,1177.85,1981.68,18240.0,Direct,,,View report (https://accesshub.pdc.wa.gov/node/54677),Energy and utilities,03/21/2018,General Discussion with Legislatures
50092,54680-41337,54680,FE,41336,Michael J Bradshaw,Employer,41337,BENTON RURAL ELECTRIC ASSN,19-Mar,4/15/2019,16189.0,BENTON RURAL ELECTRIC ASSN,1057.24,0.0,1057.24,248.58,0.0,0.0,0.0,0.0,0.0,248.58,1305.82,41337.0,Direct,,,View report (https://accesshub.pdc.wa.gov/node/54680),Energy and utilities,03/21/2018,General Discussion with Legislatures
50093,53560-18427,53560,FE,17439,SUSAN W CHAMPLAIN,Employer,18427,BOEING,19-Mar,4/15/2019,16201.0,BOEING,10128.0,0.0,10128.0,288.62,0.0,0.0,0.0,0.0,0.0,288.62,10416.62,18427.0,Direct,,,View report (https://accesshub.pdc.wa.gov/node/53560),Fiscal,Education,Legislators
50094,53561-19255,53561,FE,17798,WILLIAM J MCSHERRY,Employer,19255,BOEING,19-Mar,4/15/2019,16201.0,BOEING,27969.0,0.0,27969.0,233.76,3431.41,0.0,0.0,0.0,0.0,3665.17,31634.17,19255.0,Direct,,,View report (https://accesshub.pdc.wa.gov/node/53561),Fiscal,Education,Legislators
50095,53558-19882,53558,FE,18085,RICHARD WHITE,Employer,19882,BOEING,19-Mar,4/15/2019,16201.0,BOEING,1030.0,0.0,1030.0,0.0,0.0,0.0,0.0,0.0,0.0,0.0,1030.0,19882.0,Direct,,,View report (https://accesshub.pdc.wa.gov/node/53558),Fiscal,Education,Legislators
50096,53559-29256,53559,FE,29213,Ryan R. Tomasich,Employer,29256,BOEING,19-Mar,4/15/2019,16201.0,BOEING,8868.0,0.0,8868.0,0.0,81.78,0.0,0.0,0.0,0.0,81.78,8949.78,29256.0,Direct,,,View report (https://accesshub.pdc.wa.gov/node/53559),Fiscal,Education,Legislators
50097,54287-18890,54287,FE,17597,PIERCE CONSULTING SVCS LLC*,Employer,18890,BRISTOL-MYERS SQUIBB CO,19-Mar,4/15/2019,16208.0,BRISTOL-MYERS SQUIBB CO,2500.0,-322.49,2177.51,0.0,0.0,0.0,0.0,0.0,0.0,0.0,2177.51,18890.0,Direct,,,View report (https://accesshub.pdc.wa.gov/node/54287),Health Care,various,various
50098,54412-20012,54412,FE,17553,JESSICA FORTESCUE,Employer,20012,BRISTOL-MYERS SQUIBB CO (PIERCE CONSULTING SVCS LLC*),19-Mar,4/15/2019,16208.0,BRISTOL-MYERS SQUIBB CO,322.49,0.0,322.49,0.0,0.0,0.0,0.0,0.0,0.0,0.0,322.49,20012.0,Subcontract,17597.0,PIERCE CONSULTING SVCS LLC*,View report (https://accesshub.pdc.wa.gov/node/54412),,,
50099,54501-28257,54501,FE,28256,Anne Murray,Employer,28257,BRISTOL-MYERS SQUIBB CO,19-Mar,4/15/2019,16208.0,BRISTOL-MYERS SQUIBB CO,7500.0,0.0,7500.0,450.0,0.0,0.0,0.0,0.0,0.0,450.0,7950.0,28257.0,Direct,,,View report (https://accesshub.pdc.wa.gov/node/54501),Health Care,Healthcare,Senate & House Health W&M and Appropriations
50100,54489-19364,54489,FE,17849,ANDREW NICHOLAS,Employer,19364,WA ST BUDGET & POLICY CENTER,19-Mar,4/15/2019,16213.0,WA ST BUDGET & POLICY CENTER,858.88,0.0,858.88,727.59,0.0,0.0,0.0,0.0,0.0,727.59,1586.47,19364.0,Direct,,,View report (https://accesshub.pdc.wa.gov/node/54489),Fiscal,HB1324,"Senate Financial Institutions, Economic Development & Trade"
50101,54484-19637,54484,FE,17973,KELLI SMITH,Employer,19637,WA ST BUDGET & POLICY CENTER,19-Mar,4/15/2019,16213.0,WA ST BUDGET & POLICY CENTER,227.15,0.0,227.15,241.92,0.0,0.0,0.0,0.0,0.0,241.92,469.07,19637.0,Direct,,,View report (https://accesshub.pdc.wa.gov/node/54484),Fiscal,HB1527,"Rep. Tarleton, Rep. Entenman, DOR, ESD, and House Finance staff"
50102,54486-19874,54486,FE,18078,MISHA WERSCHKUL,Employer,19874,WA ST BUDGET & POLICY CENTER,19-Mar,4/15/2019,16213.0,WA ST BUDGET & POLICY CENTER,2052.96,0.0,2052.96,12.0,0.0,0.0,0.0,0.0,0.0,12.0,2064.96,19874.0,Direct,,,View report (https://accesshub.pdc.wa.gov/node/54486),Fiscal,Tax Reform,Rep Tarleton
50103,54482-29168,54482,FE,29111,Julie L. Watts,Employer,29168,WA ST BUDGET & POLICY CENTER,19-Mar,4/15/2019,16213.0,WA ST BUDGET & POLICY CENTER,666.12,0.0,666.12,0.0,0.0,0.0,0.0,0.0,0.0,0.0,666.12,29168.0,Direct,,,View report (https://accesshub.pdc.wa.gov/node/54482),Fiscal,SB5704,Sen Lilias
50104,54485-31640,54485,FE,29198,Melinda Young-Flynn,Employer,31640,WA ST BUDGET & POLICY CENTER,19-Mar,4/15/2019,16213.0,WA ST BUDGET & POLICY CENTER,296.64,0.0,296.64,0.0,0.0,0.0,0.0,0.0,0.0,0.0,296.64,31640.0,Direct,,,View report (https://accesshub.pdc.wa.gov/node/54485),Fiscal,Tax Reform,"General Public + Blog post, social media"
50105,54510-19414,54510,FE,17875,PAM CRONE LEGISLATIVE CONSULTING SVCS*,Employer,19414,BUILDING CHANGES,19-Mar,4/15/2019,16214.0,BUILDING CHANGES,2400.0,0.0,2400.0,0.0,0.0,0.0,0.0,0.0,0.0,0.0,2400.0,19414.0,Direct,,,View report (https://accesshub.pdc.wa.gov/node/54510),Human services,"1263,5324 Budget 1657, 5470, 5800",Human Services Commerce Education and Office of Homeless Youth Ways and Means Governor
50106,54521-18970,54521,FE,17642,JAN HIMEBAUGH,Employer,18970,BUILDING INDUSTRY ASSN OF WA,19-Mar,4/15/2019,16215.0,BUILDING INDUSTRY ASSN OF WA,500.0,0.0,500.0,0.0,150.0,0.0,0.0,0.0,0.0,150.0,650.0,18970.0,Direct,,,View report (https://accesshub.pdc.wa.gov/node/54521),State government,"Environmental Justice, HPA, Condos, Urban Density",Legislature
50107,54518-45532,54518,FE,45531,Greg Lane,Employer,45532,BUILDING INDUSTRY ASSN OF WA,19-Mar,4/15/2019,16215.0,BUILDING INDUSTRY ASSN OF WA,500.0,0.0,500.0,0.0,500.0,0.0,0.0,0.0,0.0,500.0,1000.0,45532.0,Direct,,,View report (https://accesshub.pdc.wa.gov/node/54518),State government,Environmental Justice and LNI Topics,Legislature and LNI
50108,54649-18186,54649,FE,17352,SHEILA BABB ANDERSON,Employer,18186,CAMPION ADVOCACY FUND,19-Mar,4/15/2019,16220.0,CAMPION ADVOCACY FUND,1800.0,0.0,1800.0,169.44,553.65,0.0,0.0,0.0,459.1,1182.19,2982.19,18186.0,Direct,,,View report (https://accesshub.pdc.wa.gov/node/54649),Human services,"Budget, SB 5290","Ways and Means, Appropriations"
50109,54626-19783,54626,FE,18036,SUSAN S TRACY,Employer,19783,CARING FOR WASHINGTON,19-Mar,4/15/2019,16230.0,CARING FOR WASHINGTON,3000.0,0.0,3000.0,0.0,0.0,0.0,0.0,0.0,0.0,0.0,3000.0,19783.0,Direct,,,View report (https://accesshub.pdc.wa.gov/node/54626),Health Care,family medicine residency,App WM HC
50110,54400-18822,54400,FE,17581,GORDON THOMAS HONEYWELL GOV AFFAIRS*,Employer,18822,"CARMAX AUTO SUPERSTORES, INC",19-Mar,4/15/2019,16231.0,"CARMAX AUTO SUPERSTORES, INC",4000.0,0.0,4000.0,0.0,0.0,0.0,0.0,0.0,0.0,0.0,4000.0,18822.0,Direct,,,View report (https://accesshub.pdc.wa.gov/node/54400),Business and consumer affairs,"car dealership, operating budget items",legislature
50111,54400-18823,54400,FE,17581,GORDON THOMAS HONEYWELL GOV AFFAIRS*,Employer,18823,Cascade Water Alliance,19-Mar,4/15/2019,16237.0,Cascade Water Alliance,7000.0,0.0,7000.0,0.0,0.0,0.0,0.0,0.0,0.0,0.0,7000.0,18823.0,Direct,,,View report (https://accesshub.pdc.wa.gov/node/54400),Environmental Affairs - natural resources - parks,Water/Infrastructure funding,legislature
50112,54536-53851,54536,FE,53850,Rachel Sottile,Employer,53851,CENTER FOR CHILDREN & YOUTH JUSTICE,19-Mar,4/15/2019,16241.0,CENTER FOR CHILDREN & YOUTH JUSTICE,344.48,0.0,344.48,0.0,0.0,0.0,0.0,0.0,0.0,0.0,344.48,53851.0,Direct,,,View report (https://accesshub.pdc.wa.gov/node/54536),Human services,SB 5290,House Committee on Human Services and Early Learning
50113,54672-18304,54672,FE,17405,WILLIAM BRIDGES,Employer,18304,CENTURYLINK,19-Mar,4/15/2019,16244.0,CENTURYLINK,10457.2,0.0,10457.2,612.09,0.0,0.0,0.0,0.0,5000.0,5612.09,16069.29,18304.0,Direct,,,View report (https://accesshub.pdc.wa.gov/node/54672),Energy and utilities,MISC 00,MISC
50114,54581-18158,54581,FE,17342,DAVID C ARBAUGH,Employer,18158,CHELAN CO PUBLIC UTILITY DIST #1,19-Mar,4/15/2019,16254.0,CHELAN CO PUBLIC UTILITY DIST #1,9000.0,0.0,9000.0,0.0,0.0,0.0,0.0,0.0,0.0,0.0,9000.0,18158.0,Direct,,,View report (https://accesshub.pdc.wa.gov/node/54581),Energy and utilities,Energy and Water,EWE
50115,54400-18824,54400,FE,17581,GORDON THOMAS HONEYWELL GOV AFFAIRS*,Employer,18824,CITY OF MOUNTLAKE TERRACE,19-Mar,4/15/2019,16270.0,CITY OF MOUNTLAKE TERRACE,3850.0,0.0,3850.0,0.0,0.0,0.0,0.0,0.0,0.0,0.0,3850.0,18824.0,Direct,,,View report (https://accesshub.pdc.wa.gov/node/54400),Local government,"Senate Bill 5676 budget requests, transportation funding",legislature
50116,54443-37347,54443,FE,25302,Northwest Solutions,Employer,37347,CITY OF WALLA WALLA,19-Mar,4/15/2019,16271.0,CITY OF WALLA WALLA,1750.0,0.0,1750.0,0.0,0.0,0.0,0.0,0.0,0.0,0.0,1750.0,37347.0,Direct,,,View report (https://accesshub.pdc.wa.gov/node/54443),State government,"HB 1679, SB 5676, transportation and capital budget","Sen Rolfes, Rep Doglio, Sen Walsh, Rep Skyler, Rep Boehnke"
50117,54400-18825,54400,FE,17581,GORDON THOMAS HONEYWELL GOV AFFAIRS*,Employer,18825,CITY OF BELLEVUE,19-Mar,4/15/2019,16274.0,CITY OF BELLEVUE,6000.0,0.0,6000.0,0.0,0.0,0.0,0.0,0.0,0.0,0.0,6000.0,18825.0,Direct,,,View report (https://accesshub.pdc.wa.gov/node/54400),Local government,"taxation, business license, transportation, land use, traffic enforcement, local law enforcement, budget, public safety, affordable housing",legislature
50118,54400-18826,54400,FE,17581,GORDON THOMAS HONEYWELL GOV AFFAIRS*,Employer,18826,CITY OF COVINGTON,19-Mar,4/15/2019,16278.0,CITY OF COVINGTON,2500.0,0.0,2500.0,0.0,0.0,0.0,0.0,0.0,0.0,0.0,2500.0,18826.0,Direct,,,View report (https://accesshub.pdc.wa.gov/node/54400),Local government,"higher education, transportation funding, park funding, liquor revenues",legislature
50119,54492-19390,54492,FE,17870,OUTCOMES BY LEVY LLC*,Employer,19390,CITY OF FIFE,19-Mar,4/15/2019,16283.0,CITY OF FIFE,4000.0,0.0,4000.0,65.78,0.0,0.0,0.0,0.0,0.0,65.78,4065.78,19390.0,Direct,,,View report (https://accesshub.pdc.wa.gov/node/54492),Local government,Transportation funding including HB 2132; Capital and Operating and Transportation Budgets; SHB 1406 affordable housing; HB 1166 sexual assault/rape test kits,"Operating, Capital, and Transportation budget-writers; Members of 25th LD"
50120,54400-18827,54400,FE,17581,GORDON THOMAS HONEYWELL GOV AFFAIRS*,Employer,18827,CITY OF GIG HARBOR,19-Mar,4/15/2019,16284.0,CITY OF GIG HARBOR,3333.33,0.0,3333.33,0.0,0.0,0.0,0.0,0.0,0.0,0.0,3333.33,18827.0,Direct,,,View report (https://accesshub.pdc.wa.gov/node/54400),Local government,"transportation funding, recreation grant funding, fiscal health, hospital benefit zone legislation, fiscal health",legislature
50121,54479-18540,54479,FE,17480,SARAH M DAVENPORT-SMITH,Employer,18540,CITY OF GRANITE FALLS,19-Mar,4/15/2019,16285.0,CITY OF GRANITE FALLS,4000.0,0.0,4000.0,0.0,0.0,0.0,0.0,0.0,0.0,0.0,4000.0,18540.0,Direct,,,View report (https://accesshub.pdc.wa.gov/node/54479),Transportation,Transportation Appropriation,Senate and House Transportation Committee
50122,54400-44629,54400,FE,17581,GORDON THOMAS HONEYWELL GOV AFFAIRS*,Employer,44629,CITY OF ISSAQUAH,19-Mar,4/15/2019,16286.0,CITY OF ISSAQUAH,4500.0,0.0,4500.0,0.0,0.0,0.0,0.0,0.0,0.0,0.0,4500.0,44629.0,Direct,,,View report (https://accesshub.pdc.wa.gov/node/54400),Local government,"Transportation; Econ Dev, Local Law enforcment, Streamlined sales tax mitigation, other local gov issues",Legislature
50123,54400-18828,54400,FE,17581,GORDON THOMAS HONEYWELL GOV AFFAIRS*,Employer,18828,CITY OF KENMORE,19-Mar,4/15/2019,16287.0,CITY OF KENMORE,3900.0,0.0,3900.0,0.0,0.0,0.0,0.0,0.0,0.0,0.0,3900.0,18828.0,Direct,,,View report (https://accesshub.pdc.wa.gov/node/54400),Local government,"funding for 522, capital budget requests, affordable housing, DOE - ecology funding",legislature
50124,54400-42908,54400,FE,17581,GORDON THOMAS HONEYWELL GOV AFFAIRS*,Employer,42908,CITY OF KENT,19-Mar,4/15/2019,16288.0,CITY OF KENT,6000.0,0.0,6000.0,0.0,0.0,0.0,0.0,0.0,0.0,0.0,6000.0,42908.0,Direct,,,View report (https://accesshub.pdc.wa.gov/node/54400),Local government,"Transportation; Econ Dev, Local Law enforcment, Streamlined sales tax mitigation, other local gov issues",Legislature
50125,54400-18829,54400,FE,17581,GORDON THOMAS HONEYWELL GOV AFFAIRS*,Employer,18829,CITY OF KELSO,19-Mar,4/15/2019,16291.0,CITY OF KELSO,3100.0,0.0,3100.0,0.0,0.0,0.0,0.0,0.0,0.0,0.0,3100.0,18829.0,Direct,,,View report (https://accesshub.pdc.wa.gov/node/54400),Local government,"ransportation; Econ Dev, Local Law enforcment, Streamlined sales tax mitigation, other local gov issues",Legislature
50126,54400-18830,54400,FE,17581,GORDON THOMAS HONEYWELL GOV AFFAIRS*,Employer,18830,City of Lynden,19-Mar,4/15/2019,16292.0,City of Lynden,3000.0,0.0,3000.0,0.0,0.0,0.0,0.0,0.0,0.0,0.0,3000.0,18830.0,Direct,,,View report (https://accesshub.pdc.wa.gov/node/54400),Local government,"ransportation; Econ Dev, Local Law enforcment, Streamlined sales tax mitigation, other local gov issues",Legislature
50127,54400-18831,54400,FE,17581,GORDON THOMAS HONEYWELL GOV AFFAIRS*,Employer,18831,CITY OF LAKEWOOD,19-Mar,4/15/2019,16293.0,CITY OF LAKEWOOD,4862.5,0.0,4862.5,0.0,0.0,0.0,0.0,0.0,0.0,0.0,4862.5,18831.0,Direct,,,View report (https://accesshub.pdc.wa.gov/node/54400),Local government,"transportation, coummunity policing, fiscal health, capital budget requests, municipal court, land transfers",legislature
50128,54400-38849,54400,FE,17581,GORDON THOMAS HONEYWELL GOV AFFAIRS*,Employer,38849,CITY OF LONGVIEW,19-Mar,4/15/2019,16295.0,CITY OF LONGVIEW,3000.0,0.0,3000.0,0.0,0.0,0.0,0.0,0.0,0.0,0.0,3000.0,38849.0,Direct,,,View report (https://accesshub.pdc.wa.gov/node/54400),State government,City issues,legislature
50129,54400-18832,54400,FE,17581,GORDON THOMAS HONEYWELL GOV AFFAIRS*,Employer,18832,CITY OF LAKE FOREST PARK,19-Mar,4/15/2019,16296.0,CITY OF LAKE FOREST PARK,3000.0,0.0,3000.0,0.0,0.0,0.0,0.0,0.0,0.0,0.0,3000.0,18832.0,Direct,,,View report (https://accesshub.pdc.wa.gov/node/54400),Local government,"funding local culverts, transportation, environment",legislature
50130,54492-19393,54492,FE,17870,OUTCOMES BY LEVY LLC*,Employer,19393,CITY OF LAKE STEVENS,19-Mar,4/15/2019,16297.0,CITY OF LAKE STEVENS,4500.0,0.0,4500.0,396.79,0.0,0.0,0.0,0.0,0.0,396.79,4896.79,19393.0,Direct,,,View report (https://accesshub.pdc.wa.gov/node/54492),Local government,"Transportation funding including SB 5790, SB 5791, SB 5792; Capital Budgets; SHB 1406 affordable housing; HB 1166 sexual assault/rape test kits",Transportation & Capital budget-writers; Members of 44th LD
50131,54453-49717,54453,FE,17528,LUKE ESSER,Employer,49717,CITY OF PUYALLUP,19-Mar,4/15/2019,16302.0,CITY OF PUYALLUP,2250.0,0.0,2250.0,0.0,0.0,0.0,0.0,0.0,0.0,0.0,2250.0,49717.0,Direct,,,View report (https://accesshub.pdc.wa.gov/node/54453),Environmental Affairs - natural resources - parks,Parks,"Senate Ways & Means, House Capital Budget"
50132,54400-18833,54400,FE,17581,GORDON THOMAS HONEYWELL GOV AFFAIRS*,Employer,18833,CITY OF PASCO,19-Mar,4/15/2019,16303.0,CITY OF PASCO,4583.33,0.0,4583.33,0.0,0.0,0.0,0.0,0.0,0.0,0.0,4583.33,18833.0,Direct,,,View report (https://accesshub.pdc.wa.gov/node/54400),Transportation,miscell,Legislature
50133,54400-18834,54400,FE,17581,GORDON THOMAS HONEYWELL GOV AFFAIRS*,Employer,18834,CITY OF PORT ORCHARD,19-Mar,4/15/2019,16304.0,CITY OF PORT ORCHARD,3800.0,0.0,3800.0,0.0,0.0,0.0,0.0,0.0,0.0,0.0,3800.0,18834.0,Direct,,,View report (https://accesshub.pdc.wa.gov/node/54400),Local government,"budget requests, public records act",legislature
50134,54622-18424,54622,FE,17437,Scott Cave,Employer,18424,CITY OF QUINCY,19-Mar,4/15/2019,16305.0,CITY OF QUINCY,3123.0,0.0,3123.0,0.0,0.0,0.0,0.0,0.0,0.0,0.0,3123.0,18424.0,Direct,,,View report (https://accesshub.pdc.wa.gov/node/54622),Fiscal,"HB 5134, HB 1102, HB 2158 & HB 2148","Members of House Capital Budget & Senate Ways & Means and Reps Dent, Ybarra, Goehner, Senate W&M staff, caucus staff"
50135,54492-19395,54492,FE,17870,OUTCOMES BY LEVY LLC*,Employer,19395,CITY OF RENTON,19-Mar,4/15/2019,16306.0,CITY OF RENTON,13000.0,0.0,13000.0,1127.91,0.0,0.0,0.0,0.0,0.0,1127.91,14127.91,19395.0,Direct,,,View report (https://accesshub.pdc.wa.gov/node/54492),Local government,"Transportation funding including HB 2132, SB 5825; Capital Budgets; Operating Budget; SHB 1406 affordable housing, HB 1166 sexual assault & rape test kits","Operating, Capital, Transportation budget-writers and Members of 11th, 41st, 37th, 33rd LDs"
50136,54400-44628,54400,FE,17581,GORDON THOMAS HONEYWELL GOV AFFAIRS*,Employer,44628,CITY OF REDMOND,19-Mar,4/15/2019,16307.0,CITY OF REDMOND,5600.0,0.0,5600.0,0.0,0.0,0.0,0.0,0.0,0.0,0.0,5600.0,44628.0,Direct,,,View report (https://accesshub.pdc.wa.gov/node/54400),Local government,"Transportation; Econ Dev, Local Law enforcment, Streamlined sales tax mitigation, other local gov issues",Legislature
50137,54581-18159,54581,FE,17342,DAVID C ARBAUGH,Employer,18159,CITY OF RICHLAND,19-Mar,4/15/2019,16308.0,CITY OF RICHLAND,3000.0,0.0,3000.0,0.0,0.0,0.0,0.0,0.0,0.0,0.0,3000.0,18159.0,Direct,,,View report (https://accesshub.pdc.wa.gov/node/54581),Local government,Local Government,Government Operations Local
50138,54453-26311,54453,FE,17528,LUKE ESSER,Employer,26311,CITY OF SPOKANE,19-Mar,4/15/2019,16314.0,CITY OF SPOKANE,2500.0,0.0,2500.0,0.0,0.0,0.0,0.0,0.0,0.0,0.0,2500.0,26311.0,Direct,,,View report (https://accesshub.pdc.wa.gov/node/54453),Environmental Affairs - natural resources - parks,Parks,Sen. Ways & Means; House Capital Budget
50139,54400-18836,54400,FE,17581,GORDON THOMAS HONEYWELL GOV AFFAIRS*,Employer,18836,CITY OF SEATAC,19-Mar,4/15/2019,16316.0,CITY OF SEATAC,2800.0,0.0,2800.0,0.0,0.0,0.0,0.0,0.0,0.0,0.0,2800.0,18836.0,Direct,,,View report (https://accesshub.pdc.wa.gov/node/54400),Local government,"budget requests, transportation funding, lodging tax revenues",legislature
50140,54400-18837,54400,FE,17581,GORDON THOMAS HONEYWELL GOV AFFAIRS*,Employer,18837,CITY OF SPOKANE VALLEY,19-Mar,4/15/2019,16317.0,CITY OF SPOKANE VALLEY,4583.33,0.0,4583.33,0.0,0.0,0.0,0.0,0.0,0.0,0.0,4583.33,18837.0,Direct,,,View report (https://accesshub.pdc.wa.gov/node/54400),Local government,Local miscell,legislature
50141,54400-18838,54400,FE,17581,GORDON THOMAS HONEYWELL GOV AFFAIRS*,Employer,18838,CITY OF TACOMA,19-Mar,4/15/2019,16318.0,CITY OF TACOMA,7700.0,0.0,7700.0,0.0,0.0,0.0,0.0,0.0,0.0,0.0,7700.0,18838.0,Direct,,,View report (https://accesshub.pdc.wa.gov/node/54400),Local government,"business licenses, transportation, land use, traffic enforcment, local law enforcement, budget, public safety, affordable housing",legislature
50142,54453-46997,54453,FE,17528,LUKE ESSER,Employer,46997,CITY OF YAKIMA,19-Mar,4/15/2019,16321.0,CITY OF YAKIMA,2500.0,0.0,2500.0,0.0,0.0,0.0,0.0,0.0,0.0,0.0,2500.0,46997.0,Direct,,,View report (https://accesshub.pdc.wa.gov/node/54453),Environmental Affairs - natural resources - parks,Parks,"Sen. Ways & Means, House Capital Budget"
50143,54400-47232,54400,FE,17581,GORDON THOMAS HONEYWELL GOV AFFAIRS*,Employer,47232,CLARK COUNTY,19-Mar,4/15/2019,16322.0,CLARK COUNTY,6500.0,0.0,6500.0,0.0,0.0,0.0,0.0,0.0,0.0,0.0,6500.0,47232.0,Direct,,,View report (https://accesshub.pdc.wa.gov/node/54400),State government,"ransportation; Econ Dev, Local Law enforcment, Streamlined sales tax mitigation, other local gov issues",Legislature
50144,54287-34026,54287,FE,17597,PIERCE CONSULTING SVCS LLC*,Employer,34026,Southwest Washington High Technology Council (HTC),19-Mar,4/15/2019,16323.0,Southwest Washington High Technology Council (HTC),1270.0,-1230.0,40.0,0.0,0.0,0.0,0.0,0.0,0.0,0.0,40.0,34026.0,Direct,,,View report (https://accesshub.pdc.wa.gov/node/54287),Technology,various,various
50145,54412-51422,54412,FE,17553,JESSICA FORTESCUE,Employer,51422,Southwest Washington High Technology Council (HTC) (PIERCE CONSULTING SVCS LLC*),19-Mar,4/15/2019,16323.0,Southwest Washington High Technology Council (HTC),1230.0,0.0,1230.0,0.0,0.0,0.0,0.0,0.0,0.0,0.0,1230.0,51422.0,Subcontract,17597.0,PIERCE CONSULTING SVCS LLC*,View report (https://accesshub.pdc.wa.gov/node/54412),,,
50146,54436-19748,54436,FE,18021,LISA THATCHER,Employer,19748,CLARK PUBLIC UTILITIES,19-Mar,4/15/2019,16324.0,CLARK PUBLIC UTILITIES,5500.0,0.0,5500.0,94.81,0.0,0.0,0.0,0.0,0.0,94.81,5594.81,19748.0,Direct,,,View report (https://accesshub.pdc.wa.gov/node/54436),Energy and utilities,Energy and Utility issues,Dept of Commerce; Dept of Ecology
50147,54546-19825,54546,FE,18050,MARY A VAN CLEVE,Employer,19825,COLUMBIA LEGAL SERVICES,19-Mar,4/15/2019,16338.0,COLUMBIA LEGAL SERVICES,716.04,0.0,716.04,14.0,0.0,0.0,0.0,0.0,0.0,14.0,730.04,19825.0,Direct,,,View report (https://accesshub.pdc.wa.gov/node/54546),Human services,Developmental Disabilities and Foster Care worksession,House Human Services
50148,54287-18892,54287,FE,17597,PIERCE CONSULTING SVCS LLC*,Employer,18892,COMCAST CABLE COMMUNICATIONS,19-Mar,4/15/2019,16344.0,COMCAST CABLE COMMUNICATIONS,4000.0,-515.98,3484.02,54.35,153.07,0.0,0.0,0.0,0.0,207.42,3691.44,18892.0,Direct,,,View report (https://accesshub.pdc.wa.gov/node/54287),Energy and utilities,various,various
50149,54605-19871,54605,FE,18075,RHONDA WEAVER,Employer,19871,COMCAST CABLE COMMUNICATIONS,19-Mar,4/15/2019,16344.0,COMCAST CABLE COMMUNICATIONS,5718.0,0.0,5718.0,0.0,458.0,0.0,0.0,0.0,0.0,458.0,6176.0,19871.0,Direct,,,View report (https://accesshub.pdc.wa.gov/node/54605),Technology,Business and consumer affairs,Legislature
50150,54412-19984,54412,FE,17553,JESSICA FORTESCUE,Employer,19984,COMCAST CABLE COMMUNICATIONS (PIERCE CONSULTING SVCS LLC*),19-Mar,4/15/2019,16344.0,COMCAST CABLE COMMUNICATIONS,515.98,0.0,515.98,0.0,0.0,0.0,0.0,0.0,0.0,0.0,515.98,19984.0,Subcontract,17597.0,PIERCE CONSULTING SVCS LLC*,View report (https://accesshub.pdc.wa.gov/node/54412),,,
50151,54643-19639,54643,FE,17974,MELANIE J SMITH,Employer,19639,COMMITTEE FOR CHILDREN,19-Mar,4/15/2019,16347.0,COMMITTEE FOR CHILDREN,2750.0,0.0,2750.0,0.0,0.0,0.0,0.0,0.0,0.0,0.0,2750.0,19639.0,Direct,,,View report (https://accesshub.pdc.wa.gov/node/54643),Education,social emotional learning,"education, early learning, child abuse prevention"
50152,54596-23620,54596,FE,17935,Nancy Sapiro,Employer,23620,End of Life Washington,19-Mar,4/15/2019,16352.0,End of Life Washington,1125.0,0.0,1125.0,0.0,0.0,0.0,0.0,0.0,0.0,0.0,1125.0,23620.0,Direct,,,View report (https://accesshub.pdc.wa.gov/node/54596),Health Care,"1608, 1686, 5542","members of Senate and House Health Care Committees, Rules"
50153,54671-52124,54671,FE,52123,MAUREEN MAHONEY,Employer,52124,"Consumer Reports, Inc.",19-Mar,4/15/2019,16362.0,"Consumer Reports, Inc.",923.65,0.0,923.65,571.04,0.0,0.0,0.0,0.0,0.0,571.04,1494.69,52124.0,Direct,,,View report (https://accesshub.pdc.wa.gov/node/54671),Technology,HB 1854,"Hudgins, Kloba, Smith, Boehnke, Morris, Slatter, Tarleton, Van Werven, Wylie"
50154,53425-18480,53425,FE,17460,COMMUNICO*,Employer,18480,COSTCO WHOLESALE,19-Feb,4/15/2019,16370.0,COSTCO WHOLESALE,5000.0,0.0,5000.0,0.0,0.0,0.0,0.0,0.0,0.0,0.0,5000.0,18480.0,Direct,,,View report (https://accesshub.pdc.wa.gov/node/53425),Business and consumer affairs,Liquor,"S - Commerce, Labor & Sports and H- Commerce & Gaming"
50155,54344-18480,54344,FE,17460,COMMUNICO*,Employer,18480,COSTCO WHOLESALE,19-Mar,4/15/2019,16370.0,COSTCO WHOLESALE,5000.0,0.0,5000.0,0.0,0.0,0.0,0.0,0.0,0.0,0.0,5000.0,18480.0,Direct,,,View report (https://accesshub.pdc.wa.gov/node/54344),Business and consumer affairs,Liquor,"S - Commerce, Labor & Sports and H- Commerce & Gaming"
50156,54400-18840,54400,FE,17581,GORDON THOMAS HONEYWELL GOV AFFAIRS*,Employer,18840,COWLITZ PUD,19-Mar,4/15/2019,16373.0,COWLITZ PUD,5250.0,0.0,5250.0,0.0,0.0,0.0,0.0,0.0,0.0,0.0,5250.0,18840.0,Direct,,,View report (https://accesshub.pdc.wa.gov/node/54400),Energy and utilities,energy and climate change,legislature
50157,54436-19750,54436,FE,18021,LISA THATCHER,Employer,19750,DENTA QUEST,19-Mar,4/15/2019,16386.0,DENTA QUEST,6000.0,0.0,6000.0,0.0,0.0,0.0,0.0,0.0,0.0,0.0,6000.0,19750.0,Direct,,,View report (https://accesshub.pdc.wa.gov/node/54436),Fiscal,Dental Medicaid,HCA
50158,54569-18333,54569,FE,17420,JOHN R BURBANK,Employer,18333,ECONOMIC OPPORTUNITY INSTITUTE,19-Mar,4/15/2019,16403.0,ECONOMIC OPPORTUNITY INSTITUTE,1516.76,0.0,1516.76,0.0,0.0,0.0,0.0,0.0,0.0,0.0,1516.76,18333.0,Direct,,,View report (https://accesshub.pdc.wa.gov/node/54569),Fiscal,progressive taxation,"State Senators Joe Nguyen, Andy Billig, Sam Hunt, and other Democratic State Senators, State Representatives Beth Doglio, Frame, and other Democratic State Representatives,Senate and House Democratic Caucus staff, Department of Revenue"
50159,54556-19066,54556,FE,17694,Aaron Keating,Employer,19066,ECONOMIC OPPORTUNITY INSTITUTE,19-Mar,4/15/2019,16403.0,ECONOMIC OPPORTUNITY INSTITUTE,220.12,0.0,220.12,0.0,0.0,0.0,0.0,0.0,0.0,0.0,220.12,19066.0,Direct,,,View report (https://accesshub.pdc.wa.gov/node/54556),Education,SHB1109,"House budget committee(s), via grassroots lobbying"
50160,54563-19858,54563,FE,18072,MARILYN P WATKINS,Employer,19858,ECONOMIC OPPORTUNITY INSTITUTE,19-Mar,4/15/2019,16403.0,ECONOMIC OPPORTUNITY INSTITUTE,314.0,0.0,314.0,0.0,0.0,0.0,0.0,0.0,0.0,0.0,314.0,19858.0,Direct,,,View report (https://accesshub.pdc.wa.gov/node/54563),Labor,1696,legislature
50161,54287-29265,54287,FE,17597,PIERCE CONSULTING SVCS LLC*,Employer,29265,EVERETT CLINIC,19-Mar,4/15/2019,16422.0,EVERETT CLINIC,3000.0,0.0,3000.0,0.0,0.0,0.0,0.0,0.0,0.0,0.0,3000.0,29265.0,Direct,,,View report (https://accesshub.pdc.wa.gov/node/54287),Health Care,various,various
50162,54626-19784,54626,FE,18036,SUSAN S TRACY,Employer,19784,EVERGREEN TREATMENT SERVICES,19-Mar,4/15/2019,16424.0,EVERGREEN TREATMENT SERVICES,1200.0,0.0,1200.0,0.0,0.0,0.0,0.0,0.0,0.0,0.0,1200.0,19784.0,Direct,,,View report (https://accesshub.pdc.wa.gov/node/54626),Human services,Substance use treatment,"HC, WM, App,"
50163,53421-50668,53421,FE,50667,Stephen Uy,Employer,50668,"Meta Platforms, Inc.",19-Feb,4/15/2019,16430.0,"Meta Platforms, Inc.",538.48,0.0,538.48,0.0,0.0,0.0,0.0,0.0,1235.12,1235.12,1773.6,50668.0,Direct,,,View report (https://accesshub.pdc.wa.gov/node/53421),Business and consumer affairs,Washington Data Privacy Act,"Senate Environment, Energy and Technology Committee; House Innovation Technology and Economic Development Committee; Office of Governor"
50164,54618-50668,54618,FE,50667,Stephen Uy,Employer,50668,"Meta Platforms, Inc.",19-Mar,4/15/2019,16430.0,"Meta Platforms, Inc.",319.15,0.0,319.15,0.0,0.0,0.0,0.0,0.0,1491.21,1491.21,1810.36,50668.0,Direct,,,View report (https://accesshub.pdc.wa.gov/node/54618),Technology,Washington State Privacy Act,"House Innovation Technology and Economic Development Committee; Office of Governor, Speaker of the House"
50165,54400-18842,54400,FE,17581,GORDON THOMAS HONEYWELL GOV AFFAIRS*,Employer,18842,FEDEX,19-Mar,4/15/2019,16438.0,FEDEX,6500.0,0.0,6500.0,0.0,0.0,0.0,0.0,0.0,0.0,0.0,6500.0,18842.0,Direct,,,View report (https://accesshub.pdc.wa.gov/node/54400),Transportation,Business/Transportation/labor/climate,legislature
50166,54510-19416,54510,FE,17875,PAM CRONE LEGISLATIVE CONSULTING SVCS*,Employer,19416,CEDAR RIVER CLINICS,19-Mar,4/15/2019,16439.0,CEDAR RIVER CLINICS,375.0,-375.0,0.0,0.0,0.0,0.0,0.0,0.0,0.0,0.0,0.0,19416.0,Direct,,,View report (https://accesshub.pdc.wa.gov/node/54510),Health Care,5602,OIC Healthcare
50167,54596-19968,54596,FE,17935,Nancy Sapiro,Employer,19968,CEDAR RIVER CLINICS (PAM CRONE LEGISLATIVE CONSULTING SVCS*),19-Mar,4/15/2019,16439.0,CEDAR RIVER CLINICS,375.0,0.0,375.0,0.0,0.0,0.0,0.0,0.0,0.0,0.0,375.0,19968.0,Subcontract,17875.0,PAM CRONE LEGISLATIVE CONSULTING SVCS*,View report (https://accesshub.pdc.wa.gov/node/54596),,,
50168,54683-38874,54683,FE,38873,Aaron Czyzewski,Employer,38874,FOOD LIFELINE,19-Mar,4/15/2019,16448.0,FOOD LIFELINE,6715.0,0.0,6715.0,2025.0,0.0,0.0,0.0,0.0,0.0,2025.0,8740.0,38874.0,Direct,,,View report (https://accesshub.pdc.wa.gov/node/54683),Human services,"HB1587, SB5583, HB1272, HB1685, HB1893, HB1892, HB1731, E2SHB1114, SB5810, HB1527, SSB5684, SHB1603, HB1783, SB5776, SB5497, HB1815","Ways & Means, Environment & Energy, Appropriations, Education, Rural Dev Ag & Natural Resources, Higher Ed & Workforce Dev, Early Learning & K12 Ed"
50169,54287-18893,54287,FE,17597,PIERCE CONSULTING SVCS LLC*,Employer,18893,RUSSELL INVESTMENT GROUP,19-Mar,4/15/2019,16456.0,RUSSELL INVESTMENT GROUP,3000.0,-386.99,2613.01,54.35,153.07,0.0,0.0,0.0,0.0,207.42,2820.43,18893.0,Direct,,,View report (https://accesshub.pdc.wa.gov/node/54287),Financial institutions and insurance,various,various
50170,54412-19975,54412,FE,17553,JESSICA FORTESCUE,Employer,19975,RUSSELL INVESTMENT GROUP (PIERCE CONSULTING SVCS LLC*),19-Mar,4/15/2019,16456.0,RUSSELL INVESTMENT GROUP,386.99,0.0,386.99,0.0,0.0,0.0,0.0,0.0,0.0,0.0,386.99,19975.0,Subcontract,17597.0,PIERCE CONSULTING SVCS LLC*,View report (https://accesshub.pdc.wa.gov/node/54412),,,
50171,54573-51236,54573,FE,50927,Alicia B. Eyler,Employer,51236,FRED HUTCHINSON CANCER RESEARCH CENTER,19-Mar,4/15/2019,16458.0,FRED HUTCHINSON CANCER RESEARCH CENTER,284.63,0.0,284.63,0.0,0.0,0.0,0.0,0.0,0.0,0.0,284.63,51236.0,Direct,,,View report (https://accesshub.pdc.wa.gov/node/54573),Health Care,"CARE Fund, SB 5986, SB 5786, SB 5212, health care",Legislature
50173,54436-19751,54436,FE,18021,LISA THATCHER,Employer,19751,GLAXO SMITHKLINE,19-Mar,4/15/2019,16473.0,GLAXO SMITHKLINE,4384.16,0.0,4384.16,7.5,0.0,0.0,0.0,0.0,0.0,7.5,4391.66,19751.0,Direct,,,View report (https://accesshub.pdc.wa.gov/node/54436),Environmental Affairs - natural resources - parks,Healthcare and pharma issues,Dept of Health; HCA
50174,54589-48603,54589,FE,48602,KELSEY HOOD,Employer,48603,GRADUATE & PROF STUDENT SENATE/U OF W,19-Mar,4/15/2019,16477.0,GRADUATE & PROF STUDENT SENATE/U OF W,2140.76,0.0,2140.76,0.0,0.0,0.0,0.0,0.0,0.0,0.0,2140.76,48603.0,Direct,,,View report (https://accesshub.pdc.wa.gov/node/54589),Higher education,SB 5395,House Education committee
50175,54626-27343,54626,FE,18036,SUSAN S TRACY,Employer,27343,Greater Seattle Business Assn,19-Mar,4/15/2019,16485.0,Greater Seattle Business Assn,1750.0,0.0,1750.0,0.0,0.0,0.0,0.0,0.0,0.0,0.0,1750.0,27343.0,Direct,,,View report (https://accesshub.pdc.wa.gov/node/54626),Business and consumer affairs,Taxation; employment issues,"Local Govt, Judiciary, WM, Ap"
50176,54488-51967,54488,FE,50060,Hometown Consulting,Employer,51967,HERITAGE CAPITAL ADVOCACY,19-Mar,4/15/2019,16499.0,HERITAGE CAPITAL ADVOCACY,2000.0,0.0,2000.0,0.0,0.0,0.0,0.0,0.0,0.0,0.0,2000.0,51967.0,Direct,,,View report (https://accesshub.pdc.wa.gov/node/54488),Fiscal,Heritage Capital Projects,House Capital Budget and Senate Ways & Means
50177,54400-18844,54400,FE,17581,GORDON THOMAS HONEYWELL GOV AFFAIRS*,Employer,18844,HIGHLINE COLLEGE,19-Mar,4/15/2019,16500.0,HIGHLINE COLLEGE,4000.0,0.0,4000.0,0.0,0.0,0.0,0.0,0.0,0.0,0.0,4000.0,18844.0,Direct,,,View report (https://accesshub.pdc.wa.gov/node/54400),Financial institutions and insurance,Community College,legislature
50178,54595-18464,54595,FE,17455,CLIFFORD TRAISMAN & ASSOC*,Employer,18464,HIGHLINE PUBLIC SCHOOLS,19-Mar,4/15/2019,16502.0,HIGHLINE PUBLIC SCHOOLS,1400.0,0.0,1400.0,0.0,0.0,0.0,0.0,0.0,0.0,0.0,1400.0,18464.0,Direct,,,View report (https://accesshub.pdc.wa.gov/node/54595),Education,"K-12 Funding, 5313, 5109, 2140","Fiscal Committees, Education Committees"
50179,54479-29223,54479,FE,17480,SARAH M DAVENPORT-SMITH,Employer,29223,Human Life of Washington,19-Mar,4/15/2019,16513.0,Human Life of Washington,1950.0,0.0,1950.0,0.0,0.0,0.0,0.0,0.0,0.0,0.0,1950.0,29223.0,Direct,,,View report (https://accesshub.pdc.wa.gov/node/54479),Health Care,"SB 5602, HB 1638, SB 5395","Senate and House Health Care Committees, House Education"
50180,54539-19444,54539,FE,17880,Maxima Patashnik,Employer,19444,JEWISH FEDERATION OF GREATER SEATTLE,19-Mar,4/15/2019,16559.0,JEWISH FEDERATION OF GREATER SEATTLE,5583.0,0.0,5583.0,0.0,0.0,0.0,0.0,0.0,0.0,0.0,5583.0,19444.0,Direct,,,View report (https://accesshub.pdc.wa.gov/node/54539),Education,5612,"House Education Committee, OSPI"
50181,54596-19568,54596,FE,17935,Nancy Sapiro,Employer,19568,JEWISH FEDERATION OF GREATER SEATTLE,19-Mar,4/15/2019,16559.0,JEWISH FEDERATION OF GREATER SEATTLE,2000.0,0.0,2000.0,0.0,0.0,0.0,0.0,0.0,0.0,0.0,2000.0,19568.0,Direct,,,View report (https://accesshub.pdc.wa.gov/node/54596),Education,"5166, 5612","members of HIgher Ed and Education Committees and OSPI, Rules"
50183,54453-18675,54453,FE,17528,LUKE ESSER,Employer,18675,KALISPEL TRIBE,19-Mar,4/15/2019,16570.0,KALISPEL TRIBE,5000.0,0.0,5000.0,230.56,0.0,0.0,0.0,0.0,0.0,230.56,5230.56,18675.0,Direct,,,View report (https://accesshub.pdc.wa.gov/node/54453),Environmental Affairs - natural resources - parks,Natural Resources,"Sen. Natural Resources & Parks; House Environment, Dept. of Commerce; Dept. of Ecology"
50185,54596-19569,54596,FE,17935,Nancy Sapiro,Employer,19569,League of Women Voters Washington,19-Mar,4/15/2019,16590.0,League of Women Voters Washington,2000.0,-1000.0,1000.0,0.0,0.0,0.0,0.0,0.0,0.0,0.0,1000.0,19569.0,Direct,,,View report (https://accesshub.pdc.wa.gov/node/54596),State government,"voting, redistricting",members of State Government Committees
50186,54510-19972,54510,FE,17875,PAM CRONE LEGISLATIVE CONSULTING SVCS*,Employer,19972,League of Women Voters Washington (Nancy Sapiro),19-Mar,4/15/2019,16590.0,League of Women Voters Washington,1000.0,0.0,1000.0,0.0,0.0,0.0,0.0,0.0,0.0,0.0,1000.0,19972.0,Subcontract,17935.0,Nancy Sapiro,View report (https://accesshub.pdc.wa.gov/node/54510),,,
50187,54676-19853,54676,FE,18069,WA MEDIA SVCS INC*,Employer,19853,LEOFF1 COALITION,19-Mar,4/15/2019,16595.0,LEOFF1 COALITION,5290.25,0.0,5290.25,0.0,0.0,0.0,0.0,0.0,0.0,0.0,5290.25,19853.0,Direct,,,View report (https://accesshub.pdc.wa.gov/node/54676),State government,"Pensions & Mergers, SB 5963, HB 2144, SB 5920, HB 2051,",Legislature
50188,54400-18846,54400,FE,17581,GORDON THOMAS HONEYWELL GOV AFFAIRS*,Employer,18846,Lewis PUD 01,19-Mar,4/15/2019,16601.0,Lewis PUD 01,3750.0,0.0,3750.0,0.0,0.0,0.0,0.0,0.0,0.0,0.0,3750.0,18846.0,Direct,,,View report (https://accesshub.pdc.wa.gov/node/54400),Energy and utilities,energy and climate change,legislature
50190,54412-19965,54412,FE,17553,JESSICA FORTESCUE,Employer,19965,McDonalds Corporation (MCBRIDE PUBLIC AFFAIRS LLC*),19-Mar,4/15/2019,16625.0,McDonalds Corporation,1750.0,0.0,1750.0,0.0,0.0,0.0,0.0,0.0,0.0,0.0,1750.0,19965.0,Subcontract,17779.0,MCBRIDE PUBLIC AFFAIRS LLC*,View report (https://accesshub.pdc.wa.gov/node/54412),,,
50191,54630-31249,54630,FE,31246,Scott Middleton,Employer,31249,MECHANICAL CONTRACTORS ASSN WESTERN WA,19-Mar,4/15/2019,16629.0,MECHANICAL CONTRACTORS ASSN WESTERN WA,1933.33,0.0,1933.33,0.0,0.0,0.0,0.0,0.0,0.0,0.0,1933.33,31249.0,Direct,,,View report (https://accesshub.pdc.wa.gov/node/54630),Business and consumer affairs,Government Contracting,All members of legislature
50192,54287-18894,54287,FE,17597,PIERCE CONSULTING SVCS LLC*,Employer,18894,MICROSOFT CORP,19-Mar,4/15/2019,16636.0,MICROSOFT CORP,4460.0,-575.32,3884.68,54.35,153.07,0.0,0.0,0.0,0.0,207.42,4092.1,18894.0,Direct,,,View report (https://accesshub.pdc.wa.gov/node/54287),Technology,various,various
50193,54412-20041,54412,FE,17553,JESSICA FORTESCUE,Employer,20041,MICROSOFT CORP (PIERCE CONSULTING SVCS LLC*),19-Mar,4/15/2019,16636.0,MICROSOFT CORP,575.32,0.0,575.32,0.0,0.0,0.0,0.0,0.0,0.0,0.0,575.32,20041.0,Subcontract,17597.0,PIERCE CONSULTING SVCS LLC*,View report (https://accesshub.pdc.wa.gov/node/54412),,,
50194,54510-19417,54510,FE,17875,PAM CRONE LEGISLATIVE CONSULTING SVCS*,Employer,19417,The Mockingbird Society,19-Mar,4/15/2019,16639.0,The Mockingbird Society,6000.0,0.0,6000.0,0.0,0.0,0.0,0.0,0.0,0.0,0.0,6000.0,19417.0,Direct,,,View report (https://accesshub.pdc.wa.gov/node/54510),Human services,"1657,5470,1434, 5290 budget",House Early Learning and Human Services DCYF and Senate Human Services Approps ways
50195,54360-19007,54360,FE,17664,MAGGIE J HUMPHREYS,Employer,19007,MOMSRISING TOGETHER,19-Mar,4/15/2019,16642.0,MOMSRISING TOGETHER,1135.23,0.0,1135.23,0.0,0.0,0.0,0.0,0.0,0.0,0.0,1135.23,19007.0,Direct,,,View report (https://accesshub.pdc.wa.gov/node/54360),Labor,"Pay history, PFML rulemaking, unemployment insurance reform, capital gains tax, Working Families Tax Credit, overtime rule","Legislature, ESD, L&I"
50196,53425-18481,53425,FE,17460,COMMUNICO*,Employer,18481,MONSANTO,19-Feb,4/15/2019,16644.0,MONSANTO,3333.33,0.0,3333.33,0.0,0.0,0.0,0.0,0.0,0.0,0.0,3333.33,18481.0,Direct,,,View report (https://accesshub.pdc.wa.gov/node/53425),Agriculture,Seeds,"S - Agriculture & Natural Resources, H - Agriculture, Water, Trade & Econ. Dev."
50197,54344-18481,54344,FE,17460,COMMUNICO*,Employer,18481,MONSANTO,19-Mar,4/15/2019,16644.0,MONSANTO,3333.33,0.0,3333.33,0.0,0.0,0.0,0.0,0.0,0.0,0.0,3333.33,18481.0,Direct,,,View report (https://accesshub.pdc.wa.gov/node/54344),Agriculture,Seeds,"S - Agriculture & Natural Resources, H - Agriculture, Water, Trade & Econ. Dev."
50198,54643-39038,54643,FE,17974,MELANIE J SMITH,Employer,39038,NAMI WA,19-Mar,4/15/2019,16654.0,NAMI WA,1000.0,0.0,1000.0,0.0,0.0,0.0,0.0,0.0,0.0,0.0,1000.0,39038.0,Direct,,,View report (https://accesshub.pdc.wa.gov/node/54643),Health Care,Mental healthcare,healthcare
50199,53425-18482,53425,FE,17460,COMMUNICO*,Employer,18482,NAIOP Washington State,19-Feb,4/15/2019,16669.0,NAIOP Washington State,7500.0,0.0,7500.0,58.78,0.0,0.0,0.0,0.0,5500.0,5558.78,13058.78,18482.0,Direct,,,View report (https://accesshub.pdc.wa.gov/node/53425),Environmental Affairs - natural resources - parks,"SEPA, GMA & Housing Taxes","H and S Environment Cmtes., H and S Local Government, H and S State Government"
50200,54344-18482,54344,FE,17460,COMMUNICO*,Employer,18482,NAIOP Washington State,19-Mar,4/15/2019,16669.0,NAIOP Washington State,7500.0,0.0,7500.0,221.78,0.0,0.0,0.0,0.0,42212.42,42434.2,49934.2,18482.0,Direct,,,View report (https://accesshub.pdc.wa.gov/node/54344),Environmental Affairs - natural resources - parks,"SEPA, GMA & Housing Taxes","H and S Environment Cmtes., H and S Local Government, H and S State Government"
50201,54445-28354,54445,FE,28352,Keely Hopkins,Employer,28354,NATL RIFLE ASSN OF AMERICA,19-Mar,4/15/2019,16672.0,NATL RIFLE ASSN OF AMERICA,3538.2,0.0,3538.2,1179.9,2490.8,0.0,0.0,0.0,0.0,3670.7,7208.9,28354.0,Direct,,,View report (https://accesshub.pdc.wa.gov/node/54445),Law and justice,Firearms Issues,State Legislators and WA Department of Fish & Wildlife
50202,54577-19184,54577,FE,17769,Cyan Strategies,Employer,19184,NISSAN NORTH AMERICA,19-Mar,4/15/2019,16688.0,NISSAN NORTH AMERICA,1900.0,0.0,1900.0,0.0,0.0,0.0,0.0,0.0,0.0,0.0,1900.0,19184.0,Direct,,,View report (https://accesshub.pdc.wa.gov/node/54577),Transportation,"HB2042, SB5336",Transportation committee
50203,54400-18848,54400,FE,17581,GORDON THOMAS HONEYWELL GOV AFFAIRS*,Employer,18848,NoaNet,19-Mar,4/15/2019,16690.0,NoaNet,3000.0,0.0,3000.0,0.0,0.0,0.0,0.0,0.0,0.0,0.0,3000.0,18848.0,Direct,,,View report (https://accesshub.pdc.wa.gov/node/54400),Technology,Broadband service to rural and underserved communities,legislature
50204,51991-39111,51991,FE,28847,Amber McPhee-Millard,Employer,39111,NORTHWEST AGRICULTURE BUSINESS CENTER,19-Feb,4/15/2019,16696.0,NORTHWEST AGRICULTURE BUSINESS CENTER,4000.0,0.0,4000.0,0.0,0.0,0.0,0.0,0.0,0.0,0.0,4000.0,39111.0,Direct,,,View report (https://accesshub.pdc.wa.gov/node/51991),Agriculture,Agriculture and Business Issues,House and Senate Committees
50205,54591-19905,54591,FE,18098,CHRISTINA WONG,Employer,19905,Northwest Harvest EMM,19-Mar,4/15/2019,16708.0,Northwest Harvest EMM,2633.4,0.0,2633.4,641.62,0.0,0.0,0.0,0.0,0.0,641.62,3275.02,19905.0,Direct,,,View report (https://accesshub.pdc.wa.gov/node/54591),Human services,1587,"Human Services, Ways & Means, Appropriations"
50206,54400-18849,54400,FE,17581,GORDON THOMAS HONEYWELL GOV AFFAIRS*,Employer,18849,NORTHWEST ENERGY EFFICIENCY COUNCIL (NEEC),19-Mar,4/15/2019,16722.0,NORTHWEST ENERGY EFFICIENCY COUNCIL (NEEC),4000.0,0.0,4000.0,0.0,0.0,0.0,0.0,0.0,0.0,0.0,4000.0,18849.0,Direct,,,View report (https://accesshub.pdc.wa.gov/node/54400),Energy and utilities,"HB 1458 - electric energy performance baselines HB 1963 - electric utility meter-based performance programs SB 5453 - school contruction assistance energy efficiency, meter based incentives, capital budget iteams, energy efficiency performance baselines",legislature
50207,54510-19418,54510,FE,17875,PAM CRONE LEGISLATIVE CONSULTING SVCS*,Employer,19418,LEGAL VOICE,19-Mar,4/15/2019,16723.0,LEGAL VOICE,1916.67,-1916.67,0.0,0.0,0.0,0.0,0.0,0.0,0.0,0.0,0.0,19418.0,Direct,,,View report (https://accesshub.pdc.wa.gov/node/54510),Law and justice,11491998525856021696,Law and Justice Judiciary Health Higher ED OIC Labor committees
50208,54596-19990,54596,FE,17935,Nancy Sapiro,Employer,19990,LEGAL VOICE (PAM CRONE LEGISLATIVE CONSULTING SVCS*),19-Mar,4/15/2019,16723.0,LEGAL VOICE,1916.67,0.0,1916.67,0.0,0.0,0.0,0.0,0.0,0.0,0.0,1916.67,19990.0,Subcontract,17875.0,PAM CRONE LEGISLATIVE CONSULTING SVCS*,View report (https://accesshub.pdc.wa.gov/node/54596),,,
50209,54504-31086,54504,FE,31085,Linda Carroll-Shern,Employer,31086,PHARMACEUTICAL RSRCH/MFG OF AMERICA,19-Mar,4/15/2019,16776.0,PHARMACEUTICAL RSRCH/MFG OF AMERICA,9615.38,0.0,9615.38,800.0,0.0,0.0,0.0,0.0,0.0,800.0,10415.38,31086.0,Direct,,,View report (https://accesshub.pdc.wa.gov/node/54504),Health Care,HB1224,Health Care & Wellness Committee
50210,54318-19080,54318,FE,17706,AMANDA KLUMP,Employer,19080,ALTRIA CLIENT SERVICES LLC & ITS AFFILIATES,19-Mar,4/15/2019,16778.0,ALTRIA CLIENT SERVICES LLC & ITS AFFILIATES,2000.0,0.0,2000.0,0.0,0.0,0.0,0.0,0.0,13925.34,13925.34,15925.34,19080.0,Direct,,,View report (https://accesshub.pdc.wa.gov/node/54318),Business and consumer affairs,Tobacco Business Issues,H Commerce S Commerce
50211,54409-39102,54409,FE,39101,Caroline Eliassen,Employer,39102,PHILLIPS 66,19-Mar,4/15/2019,16779.0,PHILLIPS 66,12133.34,0.0,12133.34,0.0,0.0,0.0,0.0,0.0,0.0,0.0,12133.34,39102.0,Direct,,,View report (https://accesshub.pdc.wa.gov/node/54409),Environmental Affairs - natural resources - parks,SB 5579,Senate
50212,54302-53834,54302,FE,53833,Jolie Rhinehart,Employer,53834,PHILLIPS 66,19-Mar,4/15/2019,16779.0,PHILLIPS 66,4520.0,0.0,4520.0,0.0,0.0,0.0,0.0,0.0,0.0,0.0,4520.0,53834.0,Direct,,,View report (https://accesshub.pdc.wa.gov/node/54302),Environmental Affairs - natural resources - parks,SB 5579,House Environment & Energy Committee
50213,54400-18850,54400,FE,17581,GORDON THOMAS HONEYWELL GOV AFFAIRS*,Employer,18850,PIERCE TRANSIT,19-Mar,4/15/2019,16787.0,PIERCE TRANSIT,5500.0,0.0,5500.0,0.0,0.0,0.0,0.0,0.0,0.0,0.0,5500.0,18850.0,Direct,,,View report (https://accesshub.pdc.wa.gov/node/54400),Transportation,Transit/land use/OPMA/nonER medical transportation,legislature
50214,54637-18301,54637,FE,17402,STEVE BREAUX,Employer,18301,PLANNED PARENTHOOD ALLIANCE ADVOCATES,19-Mar,4/15/2019,16789.0,PLANNED PARENTHOOD ALLIANCE ADVOCATES,656.82,0.0,656.82,1500.0,0.0,0.0,0.0,0.0,0.0,1500.0,2156.82,18301.0,Direct,,,View report (https://accesshub.pdc.wa.gov/node/54637),Education,SB 5395,"House Education Committee, OPSI"
50215,54436-19753,54436,FE,18021,LISA THATCHER,Employer,19753,PORT OF TACOMA,19-Mar,4/15/2019,16806.0,PORT OF TACOMA,2878.87,0.0,2878.87,7.51,0.0,0.0,0.0,0.0,0.0,7.51,2886.38,19753.0,Direct,,,View report (https://accesshub.pdc.wa.gov/node/54436),Fiscal,MTCA Funding,Department of Ecology
50216,54615-19340,54615,FE,17839,DOUGLAS D NELSON,Employer,19340,PUBLIC SCHOOL EMPLOYEES OF WA,19-Mar,4/15/2019,16824.0,PUBLIC SCHOOL EMPLOYEES OF WA,20419.2,0.0,20419.2,1243.52,0.0,679.05,0.0,0.0,0.0,1922.57,22341.77,19340.0,Direct,,,View report (https://accesshub.pdc.wa.gov/node/54615),Education,unknown,unknown
50217,54510-19419,54510,FE,17875,PAM CRONE LEGISLATIVE CONSULTING SVCS*,Employer,19419,PUGET SOUND ADVOCATES FOR RETIREMENT ACTION,19-Mar,4/15/2019,16827.0,PUGET SOUND ADVOCATES FOR RETIREMENT ACTION,313.0,-312.0,1.0,0.0,0.0,0.0,0.0,0.0,0.0,0.0,1.0,19419.0,Direct,,,View report (https://accesshub.pdc.wa.gov/node/54510),Health Care,"1087, 5331, 5822, 5600,1112","Healthcare committees, Human services, Ways and Approps, Enviro, Housing"
50218,54596-20030,54596,FE,17935,Nancy Sapiro,Employer,20030,PUGET SOUND ADVOCATES FOR RETIREMENT ACTION (PAM CRONE LEGISLATIVE CONSULTING SVCS*),19-Mar,4/15/2019,16827.0,PUGET SOUND ADVOCATES FOR RETIREMENT ACTION,312.0,0.0,312.0,0.0,0.0,0.0,0.0,0.0,0.0,0.0,312.0,20030.0,Subcontract,17875.0,PAM CRONE LEGISLATIVE CONSULTING SVCS*,View report (https://accesshub.pdc.wa.gov/node/54596),,,
50219,54509-46262,54509,FE,46261,Laura Wilkeson,Employer,46262,PUGET SOUND ENERGY INC,19-Mar,4/15/2019,16828.0,PUGET SOUND ENERGY INC,7898.63,0.0,7898.63,0.0,0.0,0.0,0.0,0.0,0.0,0.0,7898.63,46262.0,Direct,,,View report (https://accesshub.pdc.wa.gov/node/54509),Energy and utilities,"Clean electricity, wildfire, building/natural gas efficiency, net metering, dig law, transportation electrification, hydraulic project approval","Legislature, UTC, Governor's Office"
50220,54492-19397,54492,FE,17870,OUTCOMES BY LEVY LLC*,Employer,19397,RECREATIONAL BOATING ASSN OF WA,19-Mar,4/15/2019,16844.0,RECREATIONAL BOATING ASSN OF WA,3000.0,0.0,3000.0,316.87,0.0,0.0,0.0,0.0,0.0,316.87,3316.87,19397.0,Direct,,,View report (https://accesshub.pdc.wa.gov/node/54492),Environmental Affairs - natural resources - parks,"SB 5577 vessel bill, SB 5918 whale watching, Capital & Transportation Budgets","Sens. Rolfes, Van de Wege, Salomon, Warnick, Frockt; Reps. Fitzgibbon, Blake, Tharinger, Doglio"
50221,54617-18433,54617,FE,17445,DOLORES A CHIECHI,Employer,18433,RECREATIONAL GAMING ASSN,19-Mar,4/15/2019,16846.0,RECREATIONAL GAMING ASSN,1600.0,0.0,1600.0,0.0,0.0,0.0,0.0,0.0,0.0,0.0,1600.0,18433.0,Direct,,,View report (https://accesshub.pdc.wa.gov/node/54617),Business and consumer affairs,"Problem Gambling, sports wagering","Commerce & Gaming, Labor & Commerce, Appropriations"
50222,54400-18853,54400,FE,17581,GORDON THOMAS HONEYWELL GOV AFFAIRS*,Employer,18853,"Redflex Traffic Systems, Inc.",19-Mar,4/15/2019,16847.0,"Redflex Traffic Systems, Inc.",4000.0,0.0,4000.0,0.0,0.0,0.0,0.0,0.0,0.0,0.0,4000.0,18853.0,Direct,,,View report (https://accesshub.pdc.wa.gov/node/54400),,,
50223,54400-18854,54400,FE,17581,GORDON THOMAS HONEYWELL GOV AFFAIRS*,Employer,18854,RELX INC,19-Mar,4/15/2019,16848.0,RELX INC,5250.0,0.0,5250.0,0.0,0.0,0.0,0.0,0.0,0.0,0.0,5250.0,18854.0,Direct,,,View report (https://accesshub.pdc.wa.gov/node/54400),Human services,public records act,legislature
50224,54645-53035,54645,FE,53034,Aaron Peterson,Employer,53035,REGIONAL FISHERIES ENHANCEMENT GROUP COALITION,19-Mar,4/15/2019,16850.0,REGIONAL FISHERIES ENHANCEMENT GROUP COALITION,600.0,0.0,600.0,0.0,0.0,0.0,0.0,0.0,0.0,0.0,600.0,53035.0,Direct,,,View report (https://accesshub.pdc.wa.gov/node/54645),Environmental Affairs - natural resources - parks,salmon habitat recovery,"Senate Ways and Means, House Appropriations, House Ag and Environment, Senate Ag and Environment"
50225,54565-45084,54565,FE,45083,Adrienne Stuart,Employer,45084,Community Employment Alliance,19-Mar,4/15/2019,16851.0,Community Employment Alliance,1666.0,0.0,1666.0,0.0,0.0,0.0,0.0,0.0,0.0,0.0,1666.0,45084.0,Direct,,,View report (https://accesshub.pdc.wa.gov/node/54565),Human services,1706,house and senate
50226,54613-19857,54613,FE,18071,WA ST NURSES ASSN,Employer,19857,SCHOOL NURSES ORGANIZATION OF WA,19-Mar,4/15/2019,16882.0,SCHOOL NURSES ORGANIZATION OF WA,500.0,0.0,500.0,0.0,0.0,0.0,0.0,0.0,0.0,0.0,500.0,19857.0,Direct,,,View report (https://accesshub.pdc.wa.gov/node/54613),Health Care,Nursing/Health Care Issues,"Healthcare, Labor, Budget Committees, Dept of Health, Labor and Industries"
50227,54666-19908,54666,FE,18100,KYLE WOODRING,Employer,19908,RENTAL HOUSING ASSN OF WA,19-Mar,4/15/2019,16894.0,RENTAL HOUSING ASSN OF WA,4500.0,0.0,4500.0,0.0,0.0,0.0,0.0,0.0,0.0,0.0,4500.0,19908.0,Direct,,,View report (https://accesshub.pdc.wa.gov/node/54666),Local government,Affordable Housing,Senate & House Local Gov Committee members
50228,54595-18466,54595,FE,17455,CLIFFORD TRAISMAN & ASSOC*,Employer,18466,SEATTLE OPERA,19-Mar,4/15/2019,16897.0,SEATTLE OPERA,4500.0,0.0,4500.0,0.0,0.0,0.0,0.0,0.0,0.0,0.0,4500.0,18466.0,Direct,,,View report (https://accesshub.pdc.wa.gov/node/54595),Fiscal,"Building for the Arts, Captial Budget",Capital Budget
50229,54595-18467,54595,FE,17455,CLIFFORD TRAISMAN & ASSOC*,Employer,18467,SEATTLE PUBLIC SCHOOLS,19-Mar,4/15/2019,16898.0,SEATTLE PUBLIC SCHOOLS,5200.0,0.0,5200.0,0.0,0.0,0.0,0.0,0.0,0.0,0.0,5200.0,18467.0,Direct,,,View report (https://accesshub.pdc.wa.gov/node/54595),Education,"5313, 2140, Fiscal",Education and Fiscal Committees
50230,54453-18676,54453,FE,17528,LUKE ESSER,Employer,18676,SEIU 775,19-Mar,4/15/2019,16905.0,SEIU 775,4500.0,0.0,4500.0,0.0,0.0,0.0,0.0,0.0,0.0,0.0,4500.0,18676.0,Direct,,,View report (https://accesshub.pdc.wa.gov/node/54453),Fiscal,Medicaid,Sen. Ways & Means; House Appropriations
50231,54453-40644,54453,FE,17528,LUKE ESSER,Employer,40644,SIGNATURE HEALTHCARE SERVICES LLC,19-Mar,4/15/2019,16917.0,SIGNATURE HEALTHCARE SERVICES LLC,4000.0,-2000.0,2000.0,0.0,0.0,0.0,0.0,0.0,0.0,0.0,2000.0,40644.0,Direct,,,View report (https://accesshub.pdc.wa.gov/node/54453),Health Care,Mental Health,"Senate Health & Long Term Care; House Health Care & Wellness, Dept. of Health, Dept. of Social & Health Services"
50232,54400-18856,54400,FE,17581,GORDON THOMAS HONEYWELL GOV AFFAIRS*,Employer,18856,SNOHOMISH CO,19-Mar,4/15/2019,16921.0,SNOHOMISH CO,7583.33,0.0,7583.33,0.0,0.0,0.0,0.0,0.0,0.0,0.0,7583.33,18856.0,Direct,,,View report (https://accesshub.pdc.wa.gov/node/54400),State government,county,legislature
50233,54643-25635,54643,FE,17974,MELANIE J SMITH,Employer,25635,MULTI-SERVICE CENTER LONG TERM CARE OMBUDSMAN PROGRAM,19-Mar,4/15/2019,16932.0,MULTI-SERVICE CENTER LONG TERM CARE OMBUDSMAN PROGRAM,720.0,0.0,720.0,0.0,0.0,0.0,0.0,0.0,0.0,0.0,720.0,25635.0,Direct,,,View report (https://accesshub.pdc.wa.gov/node/54643),,,
50234,54400-18859,54400,FE,17581,GORDON THOMAS HONEYWELL GOV AFFAIRS*,Employer,18859,GOODWILL OF THE OLYMPICS & RAINIER REGION,19-Mar,4/15/2019,16965.0,GOODWILL OF THE OLYMPICS & RAINIER REGION,3150.0,0.0,3150.0,0.0,0.0,0.0,0.0,0.0,0.0,0.0,3150.0,18859.0,Direct,,,View report (https://accesshub.pdc.wa.gov/node/54400),Business and consumer affairs,"retail theft, minimum wage, curbside recyling, donation bin regulations, workers comp and union law changes, iussues impacting nonprofits",legislature
50235,54400-18860,54400,FE,17581,GORDON THOMAS HONEYWELL GOV AFFAIRS*,Employer,18860,Tacoma Public Utilities,19-Mar,4/15/2019,16969.0,Tacoma Public Utilities,7700.0,0.0,7700.0,0.0,0.0,0.0,0.0,0.0,0.0,0.0,7700.0,18860.0,Direct,,,View report (https://accesshub.pdc.wa.gov/node/54400),Energy and utilities,"energy independence act, climate change, public works trust, public records, telecommunications, rewewable energy systems, water, utility, transportation, recreational access to land",legislature
50236,54616-19460,54616,FE,17895,PLAUCHE & CARR LLP*,Employer,19460,TAYLOR SHELLFISH CO INC,19-Mar,4/15/2019,16973.0,TAYLOR SHELLFISH CO INC,455.0,0.0,455.0,0.0,0.0,0.0,0.0,0.0,0.0,0.0,455.0,19460.0,Direct,,,View report (https://accesshub.pdc.wa.gov/node/54616),Environmental Affairs - natural resources - parks,SB 5947,"Senate Ag, Water, Natural Resources and Parks"
50237,54626-19785,54626,FE,18036,SUSAN S TRACY,Employer,19785,THERAPEUTIC HEALTH SERVICES,19-Mar,4/15/2019,16981.0,THERAPEUTIC HEALTH SERVICES,1200.0,0.0,1200.0,0.0,0.0,0.0,0.0,0.0,0.0,0.0,1200.0,19785.0,Direct,,,View report (https://accesshub.pdc.wa.gov/node/54626),Health Care,substance use disorder,"HC, App, WM, Hum Serv"
50238,54400-18861,54400,FE,17581,GORDON THOMAS HONEYWELL GOV AFFAIRS*,Employer,18861,TOTAL WINE & MORE,19-Mar,4/15/2019,16986.0,TOTAL WINE & MORE,3750.0,0.0,3750.0,0.0,0.0,0.0,0.0,0.0,0.0,0.0,3750.0,18861.0,Direct,,,View report (https://accesshub.pdc.wa.gov/node/54400),Business and consumer affairs,retail liquor sales,legislature
50239,54616-19461,54616,FE,17895,PLAUCHE & CARR LLP*,Employer,19461,TROUT UNLIMITED,19-Mar,4/15/2019,16995.0,TROUT UNLIMITED,1500.0,0.0,1500.0,0.0,0.0,0.0,0.0,0.0,0.0,0.0,1500.0,19461.0,Direct,,,View report (https://accesshub.pdc.wa.gov/node/54616),Fiscal,Capital Budget,Senate Ways & Means/House Capital Budget
50240,54625-18432,54625,FE,17444,SARAH I CHERIN,Employer,18432,UNITED FOOD & COMM WRKRS # 3000,19-Mar,4/15/2019,17005.0,UNITED FOOD & COMM WRKRS # 3000,1234.0,0.0,1234.0,0.0,0.0,0.0,0.0,0.0,0.0,0.0,1234.0,18432.0,Direct,,,View report (https://accesshub.pdc.wa.gov/node/54625),Labor,various,labor/health care
50241,54400-28166,54400,FE,17581,GORDON THOMAS HONEYWELL GOV AFFAIRS*,Employer,28166,UNITED HEALTHCARE SERVICES INC,19-Mar,4/15/2019,17009.0,UNITED HEALTHCARE SERVICES INC,6000.0,0.0,6000.0,0.0,0.0,0.0,0.0,0.0,0.0,0.0,6000.0,28166.0,Direct,,,View report (https://accesshub.pdc.wa.gov/node/54400),Health Care,healthcare,legislature
50242,54607-19104,54607,FE,17719,HERB KROHN,Employer,19104,SMART TD PAC,19-Mar,4/15/2019,17017.0,SMART TD PAC,7500.0,0.0,7500.0,0.0,0.0,0.0,0.0,0.0,0.0,0.0,7500.0,19104.0,Direct,,,View report (https://accesshub.pdc.wa.gov/node/54607),,,
50243,53425-18483,53425,FE,17460,COMMUNICO*,Employer,18483,T-MOBILE USA INC,19-Feb,4/15/2019,17038.0,T-MOBILE USA INC,7000.0,0.0,7000.0,0.0,0.0,0.0,0.0,0.0,0.0,0.0,7000.0,18483.0,Direct,,,View report (https://accesshub.pdc.wa.gov/node/53425),Energy and utilities,Telecommunications,"S - Energy, Environment & Telecom H - Technology Econ & Dev."
50244,54344-18483,54344,FE,17460,COMMUNICO*,Employer,18483,T-MOBILE USA INC,19-Mar,4/15/2019,17038.0,T-MOBILE USA INC,7000.0,0.0,7000.0,0.0,0.0,0.0,0.0,0.0,0.0,0.0,7000.0,18483.0,Direct,,,View report (https://accesshub.pdc.wa.gov/node/54344),Energy and utilities,Telecommunications,"S - Energy, Environment & Telecom H - Technology Econ & Dev."
50245,54287-18895,54287,FE,17597,PIERCE CONSULTING SVCS LLC*,Employer,18895,VULCAN INC,19-Mar,4/15/2019,17039.0,VULCAN INC,4000.0,-515.98,3484.02,0.0,0.0,0.0,0.0,0.0,0.0,0.0,3484.02,18895.0,Direct,,,View report (https://accesshub.pdc.wa.gov/node/54287),Business and consumer affairs,various,various
50246,54412-20007,54412,FE,17553,JESSICA FORTESCUE,Employer,20007,VULCAN INC (PIERCE CONSULTING SVCS LLC*),19-Mar,4/15/2019,17039.0,VULCAN INC,515.98,0.0,515.98,0.0,0.0,0.0,0.0,0.0,0.0,0.0,515.98,20007.0,Subcontract,17597.0,PIERCE CONSULTING SVCS LLC*,View report (https://accesshub.pdc.wa.gov/node/54412),,,
50249,54626-19786,54626,FE,18036,SUSAN S TRACY,Employer,19786,WA ACADEMY OF EYE PHYSICIANS & SURGEONS,19-Mar,4/15/2019,17051.0,WA ACADEMY OF EYE PHYSICIANS & SURGEONS,3698.5,0.0,3698.5,0.0,0.0,0.0,0.0,0.0,0.0,0.0,3698.5,19786.0,Direct,,,View report (https://accesshub.pdc.wa.gov/node/54626),Health Care,medical eye care,HC Ap WM
50250,54626-19787,54626,FE,18036,SUSAN S TRACY,Employer,19787,WA AIRPORT MANAGEMENT ASSN,19-Mar,4/15/2019,17056.0,WA AIRPORT MANAGEMENT ASSN,2300.0,0.0,2300.0,0.0,0.0,0.0,0.0,0.0,0.0,0.0,2300.0,19787.0,Direct,,,View report (https://accesshub.pdc.wa.gov/node/54626),Transportation,airport management,TR
50251,54488-51960,54488,FE,50060,Hometown Consulting,Employer,51960,OPTOMETRIC PHYSICIANS OF WA,19-Mar,4/15/2019,17057.0,OPTOMETRIC PHYSICIANS OF WA,1400.0,0.0,1400.0,0.0,0.0,0.0,0.0,0.0,0.0,0.0,1400.0,51960.0,Direct,,,View report (https://accesshub.pdc.wa.gov/node/54488),,,
50252,54526-19303,54526,FE,17817,ROBERT MITCHELL,Employer,19303,WA ASSN OF REALTORS,19-Mar,4/15/2019,17059.0,WA ASSN OF REALTORS,6000.0,0.0,6000.0,0.0,0.0,0.0,0.0,0.0,0.0,0.0,6000.0,19303.0,Direct,,,View report (https://accesshub.pdc.wa.gov/node/54526),Business and consumer affairs,Real estate transactions,"CP and Business, Financial Services, DOL Real Estate"
50253,54626-19788,54626,FE,18036,SUSAN S TRACY,Employer,19788,WA AMBULATORY SURGERY CENTER ASSN,19-Mar,4/15/2019,17060.0,WA AMBULATORY SURGERY CENTER ASSN,3333.33,0.0,3333.33,0.0,0.0,0.0,0.0,0.0,0.0,0.0,3333.33,19788.0,Direct,,,View report (https://accesshub.pdc.wa.gov/node/54626),Health Care,ASC Regulation,HC
50254,54549-39751,54549,FE,39750,Annie McGrath,Employer,39751,WA BREWERS GUILD,19-Mar,4/15/2019,17065.0,WA BREWERS GUILD,1541.67,0.0,1541.67,0.0,0.0,0.0,0.0,0.0,0.0,0.0,1541.67,39751.0,Direct,,,View report (https://accesshub.pdc.wa.gov/node/54549),Business and consumer affairs,1416,Labor & Commerce Committees
50255,54626-19789,54626,FE,18036,SUSAN S TRACY,Employer,19789,"WA Chapter, ACEP",19-Mar,4/15/2019,17069.0,"WA Chapter, ACEP",1500.0,0.0,1500.0,0.0,0.0,0.0,0.0,0.0,0.0,0.0,1500.0,19789.0,Direct,,,View report (https://accesshub.pdc.wa.gov/node/54626),Health Care,emergency medicine,"HC, App, WM"
50256,54287-29242,54287,FE,17597,PIERCE CONSULTING SVCS LLC*,Employer,29242,WA CHARTERS ACTION,19-Mar,4/15/2019,17071.0,WA CHARTERS ACTION,3000.0,-386.99,2613.01,0.0,0.0,0.0,0.0,0.0,0.0,0.0,2613.01,29242.0,Direct,,,View report (https://accesshub.pdc.wa.gov/node/54287),Education,various,various
50257,54412-30173,54412,FE,17553,JESSICA FORTESCUE,Employer,30173,WA CHARTERS ACTION (PIERCE CONSULTING SVCS LLC*),19-Mar,4/15/2019,17071.0,WA CHARTERS ACTION,386.99,0.0,386.99,0.0,0.0,0.0,0.0,0.0,0.0,0.0,386.99,30173.0,Subcontract,17597.0,PIERCE CONSULTING SVCS LLC*,View report (https://accesshub.pdc.wa.gov/node/54412),,,
50258,54480-28710,54480,FE,28708,Heather Trim,Employer,28710,ZERO WASTE WA,19-Mar,4/15/2019,17086.0,ZERO WASTE WA,1023.28,0.0,1023.28,858.0,0.0,0.0,0.0,0.0,0.0,858.0,1881.28,28710.0,Direct,,,View report (https://accesshub.pdc.wa.gov/node/54480),Environmental Affairs - natural resources - parks,plastics/recycling,Env Committee legislators
50259,54595-18468,54595,FE,17455,CLIFFORD TRAISMAN & ASSOC*,Employer,18468,Washington Conservation Action,19-Mar,4/15/2019,17091.0,Washington Conservation Action,4500.0,0.0,4500.0,0.0,0.0,0.0,0.0,0.0,0.0,0.0,4500.0,18468.0,Direct,,,View report (https://accesshub.pdc.wa.gov/node/54595),Environmental Affairs - natural resources - parks,"5116, 1110, 5323, 1257, Enviro Broadly","Environment, Energy, Fiscal, Transportation Committees, Governor's Office"
50260,54287-18897,54287,FE,17597,PIERCE CONSULTING SVCS LLC*,Employer,18897,Delta Dental of WA,19-Mar,4/15/2019,17096.0,Delta Dental of WA,3000.0,-386.99,2613.01,75.03,153.07,0.0,0.0,0.0,0.0,228.1,2841.11,18897.0,Direct,,,View report (https://accesshub.pdc.wa.gov/node/54287),Health Care,various,various
50261,54412-20010,54412,FE,17553,JESSICA FORTESCUE,Employer,20010,Delta Dental of WA (PIERCE CONSULTING SVCS LLC*),19-Mar,4/15/2019,17096.0,Delta Dental of WA,386.99,0.0,386.99,0.0,0.0,0.0,0.0,0.0,0.0,0.0,386.99,20010.0,Subcontract,17597.0,PIERCE CONSULTING SVCS LLC*,View report (https://accesshub.pdc.wa.gov/node/54412),,,
50262,54595-18469,54595,FE,17455,CLIFFORD TRAISMAN & ASSOC*,Employer,18469,Washington Conservation Action Education Fund,19-Mar,4/15/2019,17100.0,Washington Conservation Action Education Fund,4500.0,0.0,4500.0,0.0,0.0,0.0,0.0,0.0,0.0,0.0,4500.0,18469.0,Direct,,,View report (https://accesshub.pdc.wa.gov/node/54595),Energy and utilities,"5393, 5116, 1110, 1257","Environment, Transportation, Energy Committees, Governor's Office"
50263,54568-19070,54568,FE,17698,Juliet Schindler,Employer,19070,COLLEGE SUCCESS FOUNDATION,19-Mar,4/15/2019,17104.0,COLLEGE SUCCESS FOUNDATION,2500.0,0.0,2500.0,0.0,0.0,0.0,0.0,0.0,0.0,0.0,2500.0,19070.0,Direct,,,View report (https://accesshub.pdc.wa.gov/node/54568),Higher education,"higher ed bills, CSF ask",education and fiscal committees
50264,54510-19420,54510,FE,17875,PAM CRONE LEGISLATIVE CONSULTING SVCS*,Employer,19420,WA EMPLOYMENT LAWYERS ASSN,19-Mar,4/15/2019,17105.0,WA EMPLOYMENT LAWYERS ASSN,1500.0,-1500.0,0.0,0.0,0.0,0.0,0.0,0.0,0.0,0.0,0.0,19420.0,Direct,,,View report (https://accesshub.pdc.wa.gov/node/54510),Labor,"5478, 1450, 5226","House and senate labor committees, law and justice"
50265,54596-19964,54596,FE,17935,Nancy Sapiro,Employer,19964,WA EMPLOYMENT LAWYERS ASSN (PAM CRONE LEGISLATIVE CONSULTING SVCS*),19-Mar,4/15/2019,17105.0,WA EMPLOYMENT LAWYERS ASSN,1500.0,0.0,1500.0,0.0,0.0,0.0,0.0,0.0,0.0,0.0,1500.0,19964.0,Subcontract,17875.0,PAM CRONE LEGISLATIVE CONSULTING SVCS*,View report (https://accesshub.pdc.wa.gov/node/54596),,,
50266,54538-18947,54538,FE,17619,SUZANNE C HANSON,Employer,18947,WFIS,19-Mar,4/15/2019,17116.0,WFIS,1500.0,0.0,1500.0,50.0,0.0,0.0,0.0,0.0,0.0,50.0,1550.0,18947.0,Direct,,,View report (https://accesshub.pdc.wa.gov/node/54538),Education,Education Policy,"Education K12 and early Ed, OSPI and DCYF"
50267,54564-18580,54564,FE,17499,MARK L DOUMIT,Employer,18580,WA FOREST PROTECTION ASSN,19-Mar,4/15/2019,17120.0,WA FOREST PROTECTION ASSN,2000.0,0.0,2000.0,0.0,0.0,0.0,0.0,0.0,0.0,0.0,2000.0,18580.0,Direct,,,View report (https://accesshub.pdc.wa.gov/node/54564),Environmental Affairs - natural resources - parks,Forest Practices; Carbon; Wildfire; Budget; Taxes,Various
50268,54287-18899,54287,FE,17597,PIERCE CONSULTING SVCS LLC*,Employer,18899,WA FOREST PROTECTION ASSN,19-Mar,4/15/2019,17120.0,WA FOREST PROTECTION ASSN,2000.0,-257.99,1742.01,54.35,153.07,0.0,0.0,0.0,0.0,207.42,1949.43,18899.0,Direct,,,View report (https://accesshub.pdc.wa.gov/node/54287),Environmental Affairs - natural resources - parks,various,various
50269,54412-19986,54412,FE,17553,JESSICA FORTESCUE,Employer,19986,WA FOREST PROTECTION ASSN (PIERCE CONSULTING SVCS LLC*),19-Mar,4/15/2019,17120.0,WA FOREST PROTECTION ASSN,257.99,0.0,257.99,0.0,0.0,0.0,0.0,0.0,0.0,0.0,257.99,19986.0,Subcontract,17597.0,PIERCE CONSULTING SVCS LLC*,View report (https://accesshub.pdc.wa.gov/node/54412),,,
50270,54560-24909,54560,FE,24907,Jason Callahan,Employer,24909,WA FOREST PROTECTION ASSN,19-Mar,4/15/2019,17120.0,WA FOREST PROTECTION ASSN,7500.0,0.0,7500.0,0.0,0.0,0.0,0.0,0.0,0.0,0.0,7500.0,24909.0,Direct,,,View report (https://accesshub.pdc.wa.gov/node/54560),Environmental Affairs - natural resources - parks,Forest Practices; Carbon; Wildfire; Budget; Taxes,Various
50271,54554-49348,54554,FE,49142,Darin Cramer,Employer,49348,WA FOREST PROTECTION ASSN,19-Mar,4/15/2019,17120.0,WA FOREST PROTECTION ASSN,3100.0,0.0,3100.0,0.0,0.0,0.0,0.0,0.0,0.0,0.0,3100.0,49348.0,Direct,,,View report (https://accesshub.pdc.wa.gov/node/54554),Environmental Affairs - natural resources - parks,Forest Practices; Budget; Wildfire,Various
50273,54606-18633,54606,FE,17509,DENNIS EAGLE,Employer,18633,WA FEDERATION OF STATE EMPLOYEES,19-Mar,4/15/2019,17121.0,WA FEDERATION OF STATE EMPLOYEES,8565.5,0.0,8565.5,0.0,0.0,1000.0,0.0,0.0,0.0,1000.0,9565.5,18633.0,Direct,,,View report (https://accesshub.pdc.wa.gov/node/54606),State government,"HB 1399, HB 1743 HB 1490, SB 1913, SB 1817",Senate Labor & Commerce
50274,54544-19927,54544,FE,18111,MATT ZUVICH,Employer,19927,WA FEDERATION OF STATE EMPLOYEES,19-Mar,4/15/2019,17121.0,WA FEDERATION OF STATE EMPLOYEES,7012.5,0.0,7012.5,0.0,0.0,0.0,0.0,0.0,0.0,0.0,7012.5,19927.0,Direct,,,View report (https://accesshub.pdc.wa.gov/node/54544),State government,"HB 1399, HB 1743 HB 1490, HB 1913",Senate Labor & Commerce
50275,54548-19717,54548,FE,18001,KAREN L STRICKLAND,Employer,19717,AFT Washington,19-Mar,4/15/2019,17122.0,AFT Washington,515.96,0.0,515.96,0.0,0.0,0.0,0.0,0.0,0.0,0.0,515.96,19717.0,Direct,,,View report (https://accesshub.pdc.wa.gov/node/54548),Higher education,"HB 2158, HB 1109, State Budget","SBCTC, Senator Rolfes, Rep Tarleton, House Appropriations Committee"
50276,54662-18521,54662,FE,17475,ROBIN DALE,Employer,18521,WA HEALTH CARE ASSN,19-Mar,4/15/2019,17128.0,WA HEALTH CARE ASSN,2691.0,0.0,2691.0,0.0,0.0,0.0,0.0,0.0,0.0,0.0,2691.0,18521.0,Direct,,,View report (https://accesshub.pdc.wa.gov/node/54662),Health Care,ESHB 1109,"Ways and Means, Appropriations"
50277,54660-48314,54660,FE,48313,Brenda Orffer,Employer,48314,WA HEALTH CARE ASSN,19-Mar,4/15/2019,17128.0,WA HEALTH CARE ASSN,313.0,0.0,313.0,0.0,0.0,0.0,0.0,0.0,0.0,0.0,313.0,48314.0,Direct,,,View report (https://accesshub.pdc.wa.gov/node/54660),Health Care,2SHB 1087 and SB 5331,Appropriations
50278,54436-19758,54436,FE,18021,LISA THATCHER,Employer,19758,WA INTERSCHOLASTIC ACTIVITIES ASSN,19-Mar,4/15/2019,17131.0,WA INTERSCHOLASTIC ACTIVITIES ASSN,5000.0,0.0,5000.0,102.31,0.0,0.0,0.0,0.0,0.0,102.31,5102.31,19758.0,Direct,,,View report (https://accesshub.pdc.wa.gov/node/54436),Education,Issues that impact student athletes and activities,Education
50279,54551-45577,54551,FE,45576,Terri Standish-Kuon,Employer,45577,INDEPENDENT COLLEGES OF WASHINGTON,19-Mar,4/15/2019,17133.0,INDEPENDENT COLLEGES OF WASHINGTON,546.0,0.0,546.0,0.0,0.0,0.0,0.0,0.0,0.0,0.0,546.0,45577.0,Direct,,,View report (https://accesshub.pdc.wa.gov/node/54551),Higher education,Higher Education,"Sen. Frocket, Sen Liias, Rep Ormsbee, Rep Van Werven, Sen. Holy, Sen Frocket, Rep. MacEwen, Sen. Hunt, Rep Springer, Rep. Riccelli, Sen Brown, Rep Boehnke, Rep Ornsby, Sen Braun"
50280,54412-27760,54412,FE,17553,JESSICA FORTESCUE,Employer,27760,Washington Mortgage Bankers Association,19-Mar,4/15/2019,17147.0,Washington Mortgage Bankers Association,2500.0,0.0,2500.0,0.0,0.0,0.0,0.0,0.0,0.0,0.0,2500.0,27760.0,Direct,,,View report (https://accesshub.pdc.wa.gov/node/54412),Financial institutions and insurance,"Banking, Housing","Fiscal, DFI, DOR"
50281,54510-31349,54510,FE,17875,PAM CRONE LEGISLATIVE CONSULTING SVCS*,Employer,31349,Nonprofit Association of Washington,19-Mar,4/15/2019,17155.0,Nonprofit Association of Washington,1875.0,-1875.0,0.0,0.0,0.0,0.0,0.0,0.0,0.0,0.0,0.0,31349.0,Direct,,,View report (https://accesshub.pdc.wa.gov/node/54510),State government,non profits contracting,State government committees house and senate
50282,54596-31490,54596,FE,17935,Nancy Sapiro,Employer,31490,Nonprofit Association of Washington (PAM CRONE LEGISLATIVE CONSULTING SVCS*),19-Mar,4/15/2019,17155.0,Nonprofit Association of Washington,1875.0,0.0,1875.0,0.0,0.0,0.0,0.0,0.0,0.0,0.0,1875.0,31490.0,Subcontract,17875.0,PAM CRONE LEGISLATIVE CONSULTING SVCS*,View report (https://accesshub.pdc.wa.gov/node/54596),,,
50283,54510-19421,54510,FE,17875,PAM CRONE LEGISLATIVE CONSULTING SVCS*,Employer,19421,DISABILITY RIGHTS WA,19-Mar,4/15/2019,17163.0,DISABILITY RIGHTS WA,2000.0,0.0,2000.0,0.0,0.0,0.0,0.0,0.0,0.0,0.0,2000.0,19421.0,Direct,,,View report (https://accesshub.pdc.wa.gov/node/54510),Human services,"5444, 1513","Senate and house human services public safety, DSHS,Civil rigts judiciary, Governor's office, DSHS"
50284,54525-27631,54525,FE,27629,Rachael Seevers,Employer,27631,DISABILITY RIGHTS WA,19-Mar,4/15/2019,17163.0,DISABILITY RIGHTS WA,537.2,0.0,537.2,152.36,0.0,0.0,0.0,0.0,0.0,152.36,689.56,27631.0,Direct,,,View report (https://accesshub.pdc.wa.gov/node/54525),Law and justice,solitary and LRAs,house public safety
50285,54537-53097,54537,FE,53096,Kimberly Mosolf,Employer,53097,DISABILITY RIGHTS WA,19-Mar,4/15/2019,17163.0,DISABILITY RIGHTS WA,372.6,0.0,372.6,76.76,0.0,0.0,0.0,0.0,0.0,76.76,449.36,53097.0,Direct,,,View report (https://accesshub.pdc.wa.gov/node/54537),Health Care,ESB5444,House Judiciary Committee
50286,54581-48559,54581,FE,17342,DAVID C ARBAUGH,Employer,48559,ENERGY NORTHWEST,19-Mar,4/15/2019,17173.0,ENERGY NORTHWEST,4500.0,0.0,4500.0,0.0,0.0,0.0,0.0,0.0,0.0,0.0,4500.0,48559.0,Direct,,,View report (https://accesshub.pdc.wa.gov/node/54581),Energy and utilities,"Local government authorities, energy policy, environmental policy, fiscal issues","Energy & Environment Energy, Environment & Technology, State and Local Government, Ways & Means Appropriations"
50287,54287-18901,54287,FE,17597,PIERCE CONSULTING SVCS LLC*,Employer,18901,WA ROUNDTABLE,19-Mar,4/15/2019,17178.0,WA ROUNDTABLE,2175.0,-280.56,1894.44,54.35,406.88,0.0,0.0,0.0,0.0,461.23,2355.67,18901.0,Direct,,,View report (https://accesshub.pdc.wa.gov/node/54287),Business and consumer affairs,various,various
50288,54632-19326,54632,FE,17827,STEPHEN F MULLIN,Employer,19326,WA ROUNDTABLE,19-Mar,4/15/2019,17178.0,WA ROUNDTABLE,1250.0,0.0,1250.0,0.0,0.0,0.0,0.0,0.0,0.0,0.0,1250.0,19326.0,Direct,,,View report (https://accesshub.pdc.wa.gov/node/54632),Education,Various,Various
50289,54599-19716,54599,FE,18000,NEIL STREGE,Employer,19716,WA ROUNDTABLE,19-Mar,4/15/2019,17178.0,WA ROUNDTABLE,2652.25,0.0,2652.25,0.0,0.0,0.0,0.0,0.0,0.0,0.0,2652.25,19716.0,Direct,,,View report (https://accesshub.pdc.wa.gov/node/54599),Education,Various,Various
50290,54412-19949,54412,FE,17553,JESSICA FORTESCUE,Employer,19949,WA ROUNDTABLE (PIERCE CONSULTING SVCS LLC*),19-Mar,4/15/2019,17178.0,WA ROUNDTABLE,280.56,0.0,280.56,0.0,0.0,0.0,0.0,0.0,0.0,0.0,280.56,19949.0,Subcontract,17597.0,PIERCE CONSULTING SVCS LLC*,View report (https://accesshub.pdc.wa.gov/node/54412),,,
50291,54566-51591,54566,FE,51590,Lodestar Strategic LLC,Employer,51591,WA ROUNDTABLE,19-Mar,4/15/2019,17178.0,WA ROUNDTABLE,1500.0,0.0,1500.0,0.0,0.0,0.0,0.0,0.0,0.0,0.0,1500.0,51591.0,Direct,,,View report (https://accesshub.pdc.wa.gov/node/54566),Health Care,HB 1776 SB 5741,"OFM, Governor's Office"
50292,54492-19398,54492,FE,17870,OUTCOMES BY LEVY LLC*,Employer,19398,WA RECREATION & PARKS ASSN,19-Mar,4/15/2019,17183.0,WA RECREATION & PARKS ASSN,4300.0,0.0,4300.0,325.28,0.0,0.0,0.0,0.0,0.0,325.28,4625.28,19398.0,Direct,,,View report (https://accesshub.pdc.wa.gov/node/54492),Environmental Affairs - natural resources - parks,"Capital Budget especially WWRP, Youth Athletic Facilities, Aquatic Lands Enhancement Account","Key capital budget-writers & legislators whose Districts have projects in YAF, ALEA"
50293,54436-19759,54436,FE,18021,LISA THATCHER,Employer,19759,WA SOCIETY OF CPA'S,19-Mar,4/15/2019,17188.0,WA SOCIETY OF CPA'S,6000.0,0.0,6000.0,102.31,0.0,0.0,0.0,0.0,0.0,102.31,6102.31,19759.0,Direct,,,View report (https://accesshub.pdc.wa.gov/node/54436),Business and consumer affairs,professional issues that impact CPA's,Department of Revenue
50294,54621-19738,54621,FE,18018,KRISTOPHER I TEFFT,Employer,19738,WSIA,19-Mar,4/15/2019,17194.0,WSIA,4000.0,0.0,4000.0,0.0,0.0,0.0,0.0,0.0,0.0,0.0,4000.0,19738.0,Direct,,,View report (https://accesshub.pdc.wa.gov/node/54621),Labor,Workers Comp & Safety,House and Senate Labor Committees
50295,54658-19253,54658,FE,17796,JAMES MCMAHAN,Employer,19253,WA ASSN OF SHERIFFS & POLICE CHIEFS,19-Mar,4/15/2019,17196.0,WA ASSN OF SHERIFFS & POLICE CHIEFS,8084.67,0.0,8084.67,0.0,0.0,0.0,0.0,0.0,0.0,0.0,8084.67,19253.0,Direct,,,View report (https://accesshub.pdc.wa.gov/node/54658),Law and justice,"Mental Health and Gun Laws, Death Penalty, Immigration",State Legislature
50296,54659-40142,54659,FE,40141,STEVEN STRACHAN,Employer,40142,WA ASSN OF SHERIFFS & POLICE CHIEFS,19-Mar,4/15/2019,17196.0,WA ASSN OF SHERIFFS & POLICE CHIEFS,1339.0,0.0,1339.0,0.0,0.0,0.0,0.0,0.0,0.0,0.0,1339.0,40142.0,Direct,,,View report (https://accesshub.pdc.wa.gov/node/54659),Law and justice,"Mental Health and Gun Laws, Death Penalty, Immigration, Initiative I-940",State Legislature
50297,54620-18342,54620,FE,17427,Sheri Call,Employer,18342,WA TRUCKING ASSN,19-Mar,4/15/2019,17199.0,WA TRUCKING ASSN,1666.67,0.0,1666.67,0.0,0.0,0.0,0.0,0.0,0.0,0.0,1666.67,18342.0,Direct,,,View report (https://accesshub.pdc.wa.gov/node/54620),Transportation,"1.	E2SHB1110, SB5506, HB1110, SB5830, HB1897, SB5971, HB1025, SB5765, SB5163","Transportation Committees, staff, Environment, Energy & Technology Committee, Public Safety"
50298,54674-19823,54674,FE,18048,LAURIE M VALERIANO,Employer,19823,TOXIC-FREE FUTURE,19-Mar,4/15/2019,17201.0,TOXIC-FREE FUTURE,2050.0,0.0,2050.0,1271.0,0.0,0.0,0.0,0.0,0.0,1271.0,3321.0,19823.0,Direct,,,View report (https://accesshub.pdc.wa.gov/node/54674),Environmental Affairs - natural resources - parks,SSB 5135,Full Legislature
50299,54412-39303,54412,FE,17553,JESSICA FORTESCUE,Employer,39303,THE WASHINGTON TREASURER'S OFFICE (MCBRIDE PUBLIC AFFAIRS LLC*),19-Mar,4/15/2019,17204.0,THE WASHINGTON TREASURER'S OFFICE,2500.0,0.0,2500.0,0.0,0.0,0.0,0.0,0.0,0.0,0.0,2500.0,39303.0,Subcontract,17779.0,MCBRIDE PUBLIC AFFAIRS LLC*,View report (https://accesshub.pdc.wa.gov/node/54412),,,
50300,54488-52223,54488,FE,50060,Hometown Consulting,Employer,52223,"WA ASSN OF VEHICLE SUBAGENTS (Public Affairs Consulting, LLC)",19-Mar,4/15/2019,17207.0,WA ASSN OF VEHICLE SUBAGENTS,500.0,0.0,500.0,0.0,0.0,0.0,0.0,0.0,0.0,0.0,500.0,52223.0,Subcontract,17358.0,"Public Affairs Consulting, LLC",View report (https://accesshub.pdc.wa.gov/node/54488),,,
50301,54287-18902,54287,FE,17597,PIERCE CONSULTING SVCS LLC*,Employer,18902,WA WHOLESALE DRUGGIST ASSN,19-Mar,4/15/2019,17208.0,WA WHOLESALE DRUGGIST ASSN,2750.0,-354.74,2395.26,0.0,0.0,0.0,0.0,0.0,0.0,0.0,2395.26,18902.0,Direct,,,View report (https://accesshub.pdc.wa.gov/node/54287),Health Care,various,various
50302,54412-19995,54412,FE,17553,JESSICA FORTESCUE,Employer,19995,WA WHOLESALE DRUGGIST ASSN (PIERCE CONSULTING SVCS LLC*),19-Mar,4/15/2019,17208.0,WA WHOLESALE DRUGGIST ASSN,354.74,0.0,354.74,0.0,0.0,0.0,0.0,0.0,0.0,0.0,354.74,19995.0,Subcontract,17597.0,PIERCE CONSULTING SVCS LLC*,View report (https://accesshub.pdc.wa.gov/node/54412),,,
50303,54400-18865,54400,FE,17581,GORDON THOMAS HONEYWELL GOV AFFAIRS*,Employer,18865,WA ASSN OF WHEAT GROWERS,19-Mar,4/15/2019,17209.0,WA ASSN OF WHEAT GROWERS,4250.0,0.0,4250.0,0.0,0.0,0.0,0.0,0.0,0.0,0.0,4250.0,18865.0,Direct,,,View report (https://accesshub.pdc.wa.gov/node/54400),Agriculture,"agriculture, climate change, water policy, fiscal",legislature
50304,54341-19037,54341,FE,17676,ERIC B JOHNSON,Employer,19037,WA STATE ASSN OF COUNTIES (WSAC),19-Mar,4/15/2019,17215.0,WA STATE ASSN OF COUNTIES (WSAC),1916.16,0.0,1916.16,0.0,0.0,0.0,0.0,0.0,0.0,0.0,1916.16,19037.0,Direct,,,View report (https://accesshub.pdc.wa.gov/node/54341),Local government,Various,Various
50305,54510-19422,54510,FE,17875,PAM CRONE LEGISLATIVE CONSULTING SVCS*,Employer,19422,WA ST COALITION  AGAINST DOMESTIC VIOLENCE,19-Mar,4/15/2019,17227.0,WA ST COALITION  AGAINST DOMESTIC VIOLENCE,2199.0,0.0,2199.0,0.0,0.0,0.0,0.0,0.0,0.0,0.0,2199.0,19422.0,Direct,,,View report (https://accesshub.pdc.wa.gov/node/54510),,,
50306,54453-46190,54453,FE,17528,LUKE ESSER,Employer,46190,WA ST CATHOLIC CONFERENCE,19-Mar,4/15/2019,17228.0,WA ST CATHOLIC CONFERENCE,2500.0,0.0,2500.0,0.0,0.0,0.0,0.0,0.0,0.0,0.0,2500.0,46190.0,Direct,,,View report (https://accesshub.pdc.wa.gov/node/54453),Law and justice,"Criminal justice, Civil legal system","Sen. Law & Justice, House Public Safety & House Judiciary"
50307,54583-48901,54583,FE,48900,Jill May,Employer,48901,WA ASSN FOR CHILDREN & FAMILIES,19-Mar,4/15/2019,17229.0,WA ASSN FOR CHILDREN & FAMILIES,382.5,0.0,382.5,0.0,0.0,0.0,0.0,0.0,0.0,0.0,382.5,48901.0,Direct,,,View report (https://accesshub.pdc.wa.gov/node/54583),Human services,BRS Rate Increase,"Senate Ways and Means and House Appropriations, Rep Senn, Goodman, Lovelett, McCaslin, MacEwen, Stanford, Cho,"
50308,51991-51992,51991,FE,28847,Amber McPhee-Millard,Employer,51992,WA ASSN FOR CHILDREN & FAMILIES,19-Feb,4/15/2019,17229.0,WA ASSN FOR CHILDREN & FAMILIES,3500.0,0.0,3500.0,0.0,0.0,0.0,0.0,0.0,0.0,0.0,3500.0,51992.0,Direct,,,View report (https://accesshub.pdc.wa.gov/node/51991),,,
50309,54476-51992,54476,FE,28847,Amber McPhee-Millard,Employer,51992,WA ASSN FOR CHILDREN & FAMILIES,19-Apr,4/15/2019,17229.0,WA ASSN FOR CHILDREN & FAMILIES,3500.0,0.0,3500.0,0.0,0.0,0.0,0.0,0.0,0.0,0.0,3500.0,51992.0,Direct,,,View report (https://accesshub.pdc.wa.gov/node/54476),Human services,Human Services Issues,House and Senate Committees
50310,54559-39387,54559,FE,39386,Teresa Taylor,Employer,39387,WA ST COUNCIL OF POLICE & SHERIFFS,19-Mar,4/15/2019,17236.0,WA ST COUNCIL OF POLICE & SHERIFFS,2500.0,0.0,2500.0,0.0,0.0,0.0,0.0,0.0,0.0,0.0,2500.0,39387.0,Direct,,,View report (https://accesshub.pdc.wa.gov/node/54559),Law and justice,Law and Justice,Senate Law & Justice Committee; House Public Safety Committee
50311,54678-18560,54678,FE,17491,SCOTT DILLEY,Employer,18560,WA ST DAIRY FEDERATION,19-Mar,4/15/2019,17239.0,WA ST DAIRY FEDERATION,5000.0,0.0,5000.0,0.0,0.0,0.0,0.0,0.0,0.0,0.0,5000.0,18560.0,Direct,,,View report (https://accesshub.pdc.wa.gov/node/54678),Agriculture,Dairy,Legislature and State agencies
