,id,report_number,origin,filer_id,filer_name,type,funding_source_id,funding_source_name,filing_period,receipt_date,employer_id,employer_name,compensation,sub_lobbyist_compensation,net_compensation,personal_expenses,entertainment,contributions,advertising,political_ads,other,total_expenses,net_total,employment_registration_id,employment_type,contractor_id,contractor_name,url,legislation_subject_matter,issue_bill_number,committee_lobbied
20000,110627-59366,110627,FE,44616,DeVere Public Affairs and Consulting,Employer,59366,EXPLORE INFORMATION SERVICES,23-Dec,1/12/2024,16428,EXPLORE INFORMATION SERVICES,2000.0,0.0,2000.0,0.0,0.0,0.0,0.0,0.0,0.0,0.0,2000.0,59366,Direct,,,View report (https://accesshub.pdc.wa.gov/node/110627),Business and consumer affairs,Privacy,"Consumer Affairs, Energy & Technology"
20001,110627-81410,110627,FE,44616,DeVere Public Affairs and Consulting,Employer,81410,DDC Public Affairs on behalf of Lockheed Martin,23-Dec,1/12/2024,31152,DDC Public Affairs on behalf of Lockheed Martin,4500.0,0.0,4500.0,0.0,0.0,0.0,0.0,0.0,0.0,0.0,4500.0,81410,Direct,,,View report (https://accesshub.pdc.wa.gov/node/110627),Environmental Affairs - natural resources - parks,Budget,"Dept. of Natural Resources, Fiscal Committees"
20002,110627-98884,110627,FE,44616,DeVere Public Affairs and Consulting,Employer,98884,L3HARRIS,23-Dec,1/12/2024,16493,L3HARRIS,4500.0,0.0,4500.0,0.0,0.0,0.0,0.0,0.0,0.0,0.0,4500.0,98884,Direct,,,View report (https://accesshub.pdc.wa.gov/node/110627),Technology,LMR procurement,"Transportation committees, staff"
20003,112099-50372,112099,FE,50371,Tom Wolf,Employer,50372,BP AMERICA INC,23-Nov,1/12/2024,16139,BP AMERICA INC,1000.0,0.0,1000.0,0.0,0.0,0.0,0.0,0.0,0.0,0.0,1000.0,50372,Direct,,,View report (https://accesshub.pdc.wa.gov/node/112099),Energy and utilities,Fuels Transparency,"Sen. Joe Nguyen, Becky Kelley (Governor's office)"
20004,112125-19469,112125,FE,17897,POTTS & ASSOC*,Employer,19469,FRANKLIN CO COMMISSION,23-Dec,1/12/2024,16453,FRANKLIN CO COMMISSION,440.0,0.0,440.0,0.0,0.0,0.0,0.0,0.0,0.0,0.0,440.0,19469,Direct,,,View report (https://accesshub.pdc.wa.gov/node/112125),,,
20005,112125-19471,112125,FE,17897,POTTS & ASSOC*,Employer,19471,KLICKITAT CO COMMISSION,23-Dec,1/12/2024,16583,KLICKITAT CO COMMISSION,275.0,0.0,275.0,0.0,0.0,0.0,0.0,0.0,0.0,0.0,275.0,19471,Direct,,,View report (https://accesshub.pdc.wa.gov/node/112125),Local government,"Agriculture, land use, permitting, growth management, transportation.","Legislators, staff, & agency personnel"
20006,112119-93660,112119,FE,93659,Anne Anderson,Employer,93660,WSNIA,23-Dec,1/12/2024,78642,WSNIA,3000.0,0.0,3000.0,0.0,0.0,0.0,0.0,0.0,0.0,0.0,3000.0,93660,Direct,,,View report (https://accesshub.pdc.wa.gov/node/112119),Law and justice,Narcotics,Washington State Legislators
20007,111955-19492,111955,FE,17901,K & L GATES*,Employer,19492,School Alliance,23-Dec,1/12/2024,16879,School Alliance,272.5,0.0,272.5,0.0,0.0,0.0,0.0,0.0,0.0,0.0,272.5,19492,Direct,,,View report (https://accesshub.pdc.wa.gov/node/111955),Education,Public school funding,"Sen. Braun, Sen. Dhingra"
20008,112126-38874,112126,FE,38873,Aaron Czyzewski,Employer,38874,FOOD LIFELINE,23-Dec,1/12/2024,16448,FOOD LIFELINE,6575.0,0.0,6575.0,0.0,0.0,0.0,0.0,0.0,0.0,0.0,6575.0,38874,Direct,,,View report (https://accesshub.pdc.wa.gov/node/112126),Environmental Affairs - natural resources - parks,Organics methane reduction,Rep Beth Doglio
20010,112144-74075,112144,FE,51634,Kenton Brine,Employer,74075,NW Insurance Council,23-Dec,1/12/2024,74029,NW Insurance Council,4000.0,0.0,4000.0,0.0,0.0,0.0,0.0,0.0,0.0,0.0,4000.0,74075,Direct,,,View report (https://accesshub.pdc.wa.gov/node/112144),,,
20011,112147-86500,112147,FE,86499,Christopher Finarelli,Employer,86500,Household and Commercial Products Assn,23-Dec,1/12/2024,16361,Household and Commercial Products Assn,800.0,0.0,800.0,0.0,0.0,0.0,0.0,0.0,0.0,0.0,800.0,86500,Direct,,,View report (https://accesshub.pdc.wa.gov/node/112147),Environmental Affairs - natural resources - parks,Postconsumer Recycled Content / Solid Waste Management,House Committee on Environment & Energy
20012,112152-59427,112152,FE,59426,Richard B Chisa,Employer,59427,PUBLIC SCHOOL EMPLOYEES OF WA,23-Dec,1/12/2024,16824,PUBLIC SCHOOL EMPLOYEES OF WA,21684.8,0.0,21684.8,0.0,0.0,0.0,0.0,0.0,0.0,0.0,21684.8,59427,Direct,,,View report (https://accesshub.pdc.wa.gov/node/112152),,,
20013,111918-100308,111918,FE,84276,PNW Consulting LLC,Employer,100308,SAMISH INDIAN NATION,23-Oct,1/12/2024,16870,SAMISH INDIAN NATION,6500.0,0.0,6500.0,0.0,0.0,0.0,0.0,0.0,0.0,0.0,6500.0,100308,Direct,,,View report (https://accesshub.pdc.wa.gov/node/111918),State government,State government,All House Senate
20014,111918-100419,111918,FE,84276,PNW Consulting LLC,Employer,100419,AMALGAMATED TRANSIT UNION LEG COUNCIL,23-Oct,1/12/2024,16087,AMALGAMATED TRANSIT UNION LEG COUNCIL,3070.0,0.0,3070.0,0.0,0.0,0.0,0.0,0.0,0.0,0.0,3070.0,100419,Direct,,,View report (https://accesshub.pdc.wa.gov/node/111918),Transportation,Transportation,All House Senate
20015,111918-103381,111918,FE,84276,PNW Consulting LLC,Employer,103381,Committee of Interns and Residents,23-Oct,1/12/2024,102232,Committee of Interns and Residents,3000.0,0.0,3000.0,0.0,0.0,0.0,0.0,0.0,0.0,0.0,3000.0,103381,Direct,,,View report (https://accesshub.pdc.wa.gov/node/111918),Labor,Labor,All House Senate
20016,112134-100308,112134,FE,84276,PNW Consulting LLC,Employer,100308,SAMISH INDIAN NATION,23-Nov,1/12/2024,16870,SAMISH INDIAN NATION,6500.0,0.0,6500.0,0.0,0.0,0.0,0.0,0.0,0.0,0.0,6500.0,100308,Direct,,,View report (https://accesshub.pdc.wa.gov/node/112134),State government,State government,All House Senate
20017,112134-100419,112134,FE,84276,PNW Consulting LLC,Employer,100419,AMALGAMATED TRANSIT UNION LEG COUNCIL,23-Nov,1/12/2024,16087,AMALGAMATED TRANSIT UNION LEG COUNCIL,3070.0,0.0,3070.0,0.0,0.0,0.0,0.0,0.0,0.0,0.0,3070.0,100419,Direct,,,View report (https://accesshub.pdc.wa.gov/node/112134),Transportation,Transportation,All House Senate
20018,112134-103381,112134,FE,84276,PNW Consulting LLC,Employer,103381,Committee of Interns and Residents,23-Nov,1/12/2024,102232,Committee of Interns and Residents,3000.0,0.0,3000.0,0.0,0.0,0.0,0.0,0.0,0.0,0.0,3000.0,103381,Direct,,,View report (https://accesshub.pdc.wa.gov/node/112134),Labor,Labor,All House Senate
20019,112135-100308,112135,FE,84276,PNW Consulting LLC,Employer,100308,SAMISH INDIAN NATION,23-Dec,1/12/2024,16870,SAMISH INDIAN NATION,6500.0,0.0,6500.0,0.0,0.0,0.0,0.0,0.0,0.0,0.0,6500.0,100308,Direct,,,View report (https://accesshub.pdc.wa.gov/node/112135),State government,State government,All House Senate
20020,112135-100419,112135,FE,84276,PNW Consulting LLC,Employer,100419,AMALGAMATED TRANSIT UNION LEG COUNCIL,23-Dec,1/12/2024,16087,AMALGAMATED TRANSIT UNION LEG COUNCIL,3070.0,0.0,3070.0,0.0,0.0,0.0,0.0,0.0,0.0,0.0,3070.0,100419,Direct,,,View report (https://accesshub.pdc.wa.gov/node/112135),Transportation,Transportation,All House Senate
20021,112135-103381,112135,FE,84276,PNW Consulting LLC,Employer,103381,Committee of Interns and Residents,23-Dec,1/12/2024,102232,Committee of Interns and Residents,3000.0,0.0,3000.0,0.0,0.0,0.0,0.0,0.0,0.0,0.0,3000.0,103381,Direct,,,View report (https://accesshub.pdc.wa.gov/node/112135),Labor,Labor,All House Senate
20022,112131-19451,112131,FE,17887,SVEN PETERSON,Employer,19451,PREMERA BLUE CROSS,23-Dec,1/12/2024,16812,PREMERA BLUE CROSS,750.0,0.0,750.0,0.0,0.0,0.0,0.0,0.0,0.0,0.0,750.0,19451,Direct,,,View report (https://accesshub.pdc.wa.gov/node/112131),Health Care,Misc Regulatory Issues,Office of the Insurance Commissioner
20023,112132-86062,112132,FE,86061,PREET KAUR,Employer,86062,PREMERA BLUE CROSS,23-Dec,1/12/2024,16812,PREMERA BLUE CROSS,1000.0,0.0,1000.0,0.0,0.0,0.0,0.0,0.0,0.0,0.0,1000.0,86062,Direct,,,View report (https://accesshub.pdc.wa.gov/node/112132),Health Care,"Provider Contracting, PBM, Residential SUD Treatment.",WA State Legislature
20024,112133-45767,112133,FE,17998,GARY STRANNIGAN,Employer,45767,PREMERA BLUE CROSS,23-Dec,1/12/2024,16812,PREMERA BLUE CROSS,2500.0,0.0,2500.0,88.12,0.0,0.0,0.0,0.0,0.0,88.12,2588.12,45767,Direct,,,View report (https://accesshub.pdc.wa.gov/node/112133),Health Care,Misc Legislative Topics,WA State Legislature
20025,112156-106646,112156,FE,17593,SEAN N GRAHAM,Employer,106646,"WA Chapter, ACEP",23-Dec,1/12/2024,17069,"WA Chapter, ACEP",1500.0,0.0,1500.0,0.0,0.0,0.0,0.0,0.0,0.0,0.0,1500.0,106646,Direct,,,View report (https://accesshub.pdc.wa.gov/node/112156),Health Care,Multiple,Multiple
20026,112157-61873,112157,FE,60978,Alyssa Odegaard,Employer,61873,LEADINGAGE WA,23-Dec,1/12/2024,16588,LEADINGAGE WA,2073.8,0.0,2073.8,0.0,0.0,0.0,0.0,0.0,0.0,0.0,2073.8,61873,Direct,,,View report (https://accesshub.pdc.wa.gov/node/112157),Health Care,HB1859,"Rep. Ryu, Senator Van De Wege, Joint Legislative Executive Committee on Planning for Aging and Disability Issues"
20027,111764-78145,111764,FE,77974,"Cline, Aoibheann",Employer,78145,NATL RIFLE ASSN OF AMERICA,23-Dec,1/12/2024,16672,NATL RIFLE ASSN OF AMERICA,455.55,0.0,455.55,737.86,0.0,0.0,0.0,0.0,0.0,737.86,1193.41,78145,Direct,,,View report (https://accesshub.pdc.wa.gov/node/111764),Law and justice,Second Amendment Policies,Senate Republican Caucus
20028,112159-87391,112159,FE,84458,CFM Strategic Communications,Employer,87391,Clark Regional Wastewater District,23-Nov,1/12/2024,85432,Clark Regional Wastewater District,2500.0,0.0,2500.0,0.0,0.0,0.0,0.0,0.0,0.0,0.0,2500.0,87391,Direct,,,View report (https://accesshub.pdc.wa.gov/node/112159),Energy and utilities,Capital Budget Request,Rep. Greg Cheney; Rep. Stephanie McClintock
20029,112159-87643,112159,FE,84458,CFM Strategic Communications,Employer,87643,Discovery Clean Water Alliance,23-Nov,1/12/2024,86612,Discovery Clean Water Alliance,4000.0,0.0,4000.0,0.0,0.0,0.0,0.0,0.0,0.0,0.0,4000.0,87643,Direct,,,View report (https://accesshub.pdc.wa.gov/node/112159),,,
20030,112159-89815,112159,FE,84458,CFM Strategic Communications,Employer,89815,Columbia River Mental Health Services,23-Nov,1/12/2024,88043,Columbia River Mental Health Services,5750.0,0.0,5750.0,0.0,0.0,0.0,0.0,0.0,0.0,0.0,5750.0,89815,Direct,,,View report (https://accesshub.pdc.wa.gov/node/112159),Health Care,Capital Budget Request,Rep. Paul Harris
20031,112159-110465,112159,FE,84458,CFM Strategic Communications,Employer,110465,King County Water District 54,23-Nov,1/12/2024,110398,King County Water District 54,500.0,0.0,500.0,0.0,0.0,0.0,0.0,0.0,0.0,0.0,500.0,110465,Direct,,,View report (https://accesshub.pdc.wa.gov/node/112159),Energy and utilities,Capital Budget Request,Rep. Tina Orwall
20032,112165-40114,112165,FE,40112,Julia Patterson,Employer,40114,Starfire Sports,23-Nov,1/12/2024,40113,Starfire Sports,2500.0,0.0,2500.0,0.0,0.0,0.0,0.0,0.0,0.0,0.0,2500.0,40114,Direct,,,View report (https://accesshub.pdc.wa.gov/node/112165),Fiscal,capital budget request,Capital Budget Committees
20033,112059-95101,112059,FE,18039,ELIZABETH TRAUTMAN,Employer,95101,"STAND FOR CHILDREN, INC.",23-Dec,1/12/2024,16949,"STAND FOR CHILDREN, INC.",931.8,0.0,931.8,70.1,0.0,0.0,0.0,0.0,0.0,70.1,1001.9,95101,Direct,,,View report (https://accesshub.pdc.wa.gov/node/112059),Education,HB1162,Eslick
20034,112166-40114,112166,FE,40112,Julia Patterson,Employer,40114,Starfire Sports,23-Dec,1/12/2024,40113,Starfire Sports,2500.0,0.0,2500.0,0.0,0.0,0.0,0.0,0.0,0.0,0.0,2500.0,40114,Direct,,,View report (https://accesshub.pdc.wa.gov/node/112166),Fiscal,capital budget request,Capital Budget Committees
20035,112169-99079,112169,FE,98195,Caleb Gwerder,Employer,99079,WA ST FARM BUREAU,23-Dec,1/12/2024,17246,WA ST FARM BUREAU,4000.0,0.0,4000.0,0.0,0.0,0.0,0.0,0.0,0.0,0.0,4000.0,99079,Direct,,,View report (https://accesshub.pdc.wa.gov/node/112169),Agriculture,Various Topics,Various Topics
20036,112150-108888,112150,FE,108882,Linda Garcia,Employer,108888,WA State Community Action Partnership,23-Dec,1/12/2024,17226,WA State Community Action Partnership,314.0,0.0,314.0,0.0,0.0,0.0,0.0,0.0,0.0,0.0,314.0,108888,Direct,,,View report (https://accesshub.pdc.wa.gov/node/112150),,,
20037,112066-67851,112066,FE,67771,Stafford Strong,Employer,67851,"Charter Communications, Inc.",23-Dec,1/12/2024,29730,"Charter Communications, Inc.",1800.0,0.0,1800.0,0.0,0.0,0.0,0.0,0.0,0.0,0.0,1800.0,67851,Direct,,,View report (https://accesshub.pdc.wa.gov/node/112066),Business and consumer affairs,Issues regarding broadband grants and communications technology.,"House Community & Economic Development Comm; House Transportation Comm; House Appropriations Comm; Senate Environment, Energy & Technology Comm; Senate Ways & Means Comm; Dep of Commerce; Broadband Office; Public Works Board"
20038,111852-87865,111852,FE,48411,Ashley Sutton ,Employer,87865,TECHNOLOGY NETWORK,23-Dec,1/12/2024,16978,TECHNOLOGY NETWORK,11956.66,0.0,11956.66,0.0,4143.63,0.0,0.0,0.0,0.0,4143.63,16100.29,87865,Direct,,,View report (https://accesshub.pdc.wa.gov/node/111852),Technology,Technology Issues,Consumer Protection and Business Committee
20039,112174-95125,112174,FE,93392,Kurt Swanson,Employer,95125,WA State Assn of Plumbers & Pipefitters,23-Dec,1/12/2024,17275,WA State Assn of Plumbers & Pipefitters,3492.4,0.0,3492.4,0.0,0.0,0.0,0.0,0.0,0.0,0.0,3492.4,95125,Direct,,,View report (https://accesshub.pdc.wa.gov/node/112174),Energy and utilities,various,"LNI, House and Senate members"
20040,112183-35258,112183,FE,34688,Roz Thompson,Employer,35258,ASSN OF WA SCHOOL PRINCIPALS,23-Nov,1/12/2024,16173,ASSN OF WA SCHOOL PRINCIPALS,3119.2,0.0,3119.2,0.0,0.0,0.0,0.0,0.0,0.0,0.0,3119.2,35258,Direct,,,View report (https://accesshub.pdc.wa.gov/node/112183),Education,"Budget, sped, transportation, mental health, various policy bills, dual credit, and workforce needs. Planning for 2024 legislative session.","State Board of Education, OSPI, WASA/WASBO, PESB, WSSDA, WEA, Governor’s Office, OFM, PTA, AESD"
20041,112178-19587,112178,FE,17950,SEIB POLICY & PUBLIC AFFAIRS*,Employer,19587,Molina Healthcare Inc,23-Dec,1/12/2024,16641,Molina Healthcare Inc,15000.0,0.0,15000.0,640.13,0.0,0.0,0.0,0.0,0.0,640.13,15640.13,19587,Direct,,,View report (https://accesshub.pdc.wa.gov/node/112178),Health Care,various,various
20042,112178-19589,112178,FE,17950,SEIB POLICY & PUBLIC AFFAIRS*,Employer,19589,RURAL HEALTH CLINIC ASSN,23-Dec,1/12/2024,16866,RURAL HEALTH CLINIC ASSN,1800.0,-900.0,900.0,0.0,0.0,0.0,0.0,0.0,0.0,0.0,900.0,19589,Direct,,,View report (https://accesshub.pdc.wa.gov/node/112178),Health Care,various,various
20043,112178-51462,112178,FE,17950,SEIB POLICY & PUBLIC AFFAIRS*,Employer,51462,LifePoint Health,23-Dec,1/12/2024,49203,LifePoint Health,6000.0,0.0,6000.0,0.0,0.0,0.0,0.0,0.0,0.0,0.0,6000.0,51462,Direct,,,View report (https://accesshub.pdc.wa.gov/node/112178),Health Care,various,various
20044,112178-63584,112178,FE,17950,SEIB POLICY & PUBLIC AFFAIRS*,Employer,63584,Seattle Children's Hospital,23-Dec,1/12/2024,16259,Seattle Children's Hospital,10000.0,-1200.0,8800.0,0.0,0.0,0.0,0.0,0.0,0.0,0.0,8800.0,63584,Direct,,,View report (https://accesshub.pdc.wa.gov/node/112178),Health Care,various,various
20045,112178-71093,112178,FE,17950,SEIB POLICY & PUBLIC AFFAIRS*,Employer,71093,Consumer Direct Care Network Washington LLC. (Silver Consulting),23-Dec,1/12/2024,71083,Consumer Direct Care Network Washington LLC.,3000.0,0.0,3000.0,0.0,0.0,0.0,0.0,0.0,0.0,0.0,3000.0,71093,Subcontract,49575.0,Silver Consulting,View report (https://accesshub.pdc.wa.gov/node/112178),,,
20046,112178-94620,112178,FE,17950,SEIB POLICY & PUBLIC AFFAIRS*,Employer,94620,Samaritan Healthcare (Grant County Public Hospital District No. 1),23-Dec,1/12/2024,94564,Samaritan Healthcare (Grant County Public Hospital District No. 1),6500.0,-2000.0,4500.0,0.0,0.0,0.0,0.0,0.0,0.0,0.0,4500.0,94620,Direct,,,View report (https://accesshub.pdc.wa.gov/node/112178),Fiscal,Capital Budget,Various
20047,112178-106794,112178,FE,17950,SEIB POLICY & PUBLIC AFFAIRS*,Employer,106794,TriState Health,23-Dec,1/12/2024,106793,TriState Health,5500.0,0.0,5500.0,0.0,0.0,0.0,0.0,0.0,0.0,0.0,5500.0,106794,Direct,,,View report (https://accesshub.pdc.wa.gov/node/112178),Health Care,various,various
20048,112184-35258,112184,FE,34688,Roz Thompson,Employer,35258,ASSN OF WA SCHOOL PRINCIPALS,23-Dec,1/12/2024,16173,ASSN OF WA SCHOOL PRINCIPALS,3119.2,0.0,3119.2,0.0,0.0,0.0,0.0,0.0,0.0,0.0,3119.2,35258,Direct,,,View report (https://accesshub.pdc.wa.gov/node/112184),Education,"Budget, sped, transportation, mental health, various policy bills, dual credit, and workforce needs. Planning for 2024 legislative session.","State Board of Education, OSPI, WASA, PESB, WSSDA, WEA, Governor’s Office, OFM, PTA, AESD"
20049,112187-63096,112187,FE,17635,Tammie Hetrick,Employer,63096,WA FOOD INDUSTRY,23-Sep,1/12/2024,17117,WA FOOD INDUSTRY,3000.0,0.0,3000.0,0.0,0.0,0.0,0.0,0.0,0.0,0.0,3000.0,63096,Direct,,,View report (https://accesshub.pdc.wa.gov/node/112187),Labor,"PFML, UI, L&I",ESD L&I
20050,112190-63096,112190,FE,17635,Tammie Hetrick,Employer,63096,WA FOOD INDUSTRY,23-Nov,1/12/2024,17117,WA FOOD INDUSTRY,2500.0,0.0,2500.0,0.0,0.0,0.0,0.0,0.0,0.0,0.0,2500.0,63096,Direct,,,View report (https://accesshub.pdc.wa.gov/node/112190),Labor,UI PFML,ESD
20051,111140-98767,111140,FE,17983,STAUFFACHER COMMUNICATIONS*,Employer,98767,CONSUMER DATA INDUSTRY ASSN,23-Nov,1/13/2024,16151,CONSUMER DATA INDUSTRY ASSN,8333.33,0.0,8333.33,0.0,0.0,0.0,0.0,0.0,0.0,0.0,8333.33,98767,Direct,,,View report (https://accesshub.pdc.wa.gov/node/111140),,,
20052,111983-19197,111983,FE,17774,TIMOTHY A MARTIN,Employer,19197,AMGEN INC,23-Dec,1/13/2024,16127,AMGEN INC,2596.0,0.0,2596.0,0.0,0.0,0.0,0.0,0.0,0.0,0.0,2596.0,19197,Direct,,,View report (https://accesshub.pdc.wa.gov/node/111983),Health Care,Biotechnology,Legislature
20053,111974-55819,111974,FE,55755,Guy Palumbo,Employer,55819,AMAZON.COM SERVICES LLC,23-Dec,1/13/2024,16088,AMAZON.COM SERVICES LLC,4519.23,0.0,4519.23,0.0,0.0,0.0,0.0,0.0,0.0,0.0,4519.23,55819,Direct,,,View report (https://accesshub.pdc.wa.gov/node/111974),Technology,Artificial Intelligence,Legislature
20054,112206-18637,112206,FE,17511,TOM ECHOLS,Employer,18637,COALITION OF COASTAL FISHERIES,23-Dec,1/13/2024,16331,COALITION OF COASTAL FISHERIES,1750.0,0.0,1750.0,0.0,0.0,0.0,0.0,0.0,0.0,0.0,1750.0,18637,Direct,,,View report (https://accesshub.pdc.wa.gov/node/112206),Environmental Affairs - natural resources - parks,Commercial Fishing,H&S Agriculture and Natural Resources Committees
20055,112206-92588,112206,FE,17511,TOM ECHOLS,Employer,92588,7-ELEVEN INC,23-Dec,1/13/2024,16931,7-ELEVEN INC,6000.0,0.0,6000.0,0.0,0.0,0.0,0.0,0.0,0.0,0.0,6000.0,92588,Direct,,,View report (https://accesshub.pdc.wa.gov/node/112206),Business and consumer affairs,Consumer Retail,H&S Business Committees
20056,112206-103482,112206,FE,17511,TOM ECHOLS,Employer,103482,PMI Global Services Inc. and Affiliates,23-Dec,1/13/2024,103480,PMI Global Services Inc. and Affiliates,6000.0,0.0,6000.0,0.0,0.0,0.0,0.0,0.0,0.0,0.0,6000.0,103482,Direct,,,View report (https://accesshub.pdc.wa.gov/node/112206),,,
20057,112207-19617,112207,FE,17964,SCOTT C SIGMON,Employer,19617,WA ST CHAPTER OF ASSOC PUBLIC SAFETY COMMUNICATIONS OFFICIALS,23-Dec,1/13/2024,16158,WA ST CHAPTER OF ASSOC PUBLIC SAFETY COMMUNICATIONS OFFICIALS,3000.0,0.0,3000.0,0.0,0.0,0.0,0.0,0.0,0.0,0.0,3000.0,19617,Direct,,,View report (https://accesshub.pdc.wa.gov/node/112207),Local government,911 Issues,"Senator Van De Wege, Rep. Ormsby"
20058,112207-19623,112207,FE,17964,SCOTT C SIGMON,Employer,19623,LEADINGAGE WA,23-Dec,1/13/2024,16588,LEADINGAGE WA,10000.0,0.0,10000.0,0.0,0.0,0.0,0.0,0.0,0.0,0.0,10000.0,19623,Direct,,,View report (https://accesshub.pdc.wa.gov/node/112207),Health Care,Long Term Care Funding / HB 1859,"Rep. Simmons, Senator Van De Wege, DSHS & Governor's Office"
20059,112207-19624,112207,FE,17964,SCOTT C SIGMON,Employer,19624,CONSUMER HEALTHCARE PRODUCTS ASSN,23-Dec,1/13/2024,16692,CONSUMER HEALTHCARE PRODUCTS ASSN,4500.0,0.0,4500.0,0.0,0.0,0.0,0.0,0.0,0.0,0.0,4500.0,19624,Direct,,,View report (https://accesshub.pdc.wa.gov/node/112207),Environmental Affairs - natural resources - parks,Packaging Recycling,Rep. Berry & Rep. Fey
20060,112207-19625,112207,FE,17964,SCOTT C SIGMON,Employer,19625,PARTNERS IN CAREERS,23-Dec,1/13/2024,16764,PARTNERS IN CAREERS,1500.0,0.0,1500.0,0.0,0.0,0.0,0.0,0.0,0.0,0.0,1500.0,19625,Direct,,,View report (https://accesshub.pdc.wa.gov/node/112207),Human services,WorkForce Training,Career Connect Washington
20061,112207-19626,112207,FE,17964,SCOTT C SIGMON,Employer,19626,"UCB, INC",23-Dec,1/13/2024,17002,"UCB, INC",4166.66,0.0,4166.66,0.0,0.0,0.0,0.0,0.0,0.0,0.0,4166.66,19626,Direct,,,View report (https://accesshub.pdc.wa.gov/node/112207),Health Care,Prescription Drug Advisory Board,Health Care Authority
20062,112207-74067,112207,FE,17964,SCOTT C SIGMON,Employer,74067,"PeaceHealth Networks On Demand, LLC (The Holt Company)",23-Dec,1/13/2024,66198,"PeaceHealth Networks On Demand, LLC",4500.0,0.0,4500.0,0.0,0.0,0.0,0.0,0.0,0.0,0.0,4500.0,74067,Subcontract,66187.0,The Holt Company,View report (https://accesshub.pdc.wa.gov/node/112207),,,
20063,112207-98901,112207,FE,17964,SCOTT C SIGMON,Employer,98901,Ultragenyx Pharmaceutical Inc.,23-Dec,1/13/2024,96699,Ultragenyx Pharmaceutical Inc.,4200.0,0.0,4200.0,0.0,0.0,0.0,0.0,0.0,0.0,0.0,4200.0,98901,Direct,,,View report (https://accesshub.pdc.wa.gov/node/112207),Health Care,Rare Disease Advisory Board & Genome Sequencing,Rep Thai & Senator Holy
20064,112207-99394,112207,FE,17964,SCOTT C SIGMON,Employer,99394,Congressional Sportsmen's Foundation,23-Dec,1/13/2024,96222,Congressional Sportsmen's Foundation,3000.0,0.0,3000.0,0.0,0.0,0.0,0.0,0.0,0.0,0.0,3000.0,99394,Direct,,,View report (https://accesshub.pdc.wa.gov/node/112207),Environmental Affairs - natural resources - parks,"Non-Profit Gaming, Hunting & Fishing Related Bills","Senator Rivers, Senator Stanford, Senate Agriculture & Natural Resources"
20065,112214-18454,112214,FE,17453,Bill Clarke,Employer,18454,BIOTECHNOLOGY INNOVATION ORGANIZATION,23-Dec,1/13/2024,16193,BIOTECHNOLOGY INNOVATION ORGANIZATION,5000.0,0.0,5000.0,0.0,0.0,0.0,0.0,0.0,0.0,0.0,5000.0,18454,Direct,,,View report (https://accesshub.pdc.wa.gov/node/112214),Health Care,Drug pricing; drug takeback,H. Health Care; S. Health Care
20066,112214-18455,112214,FE,17453,Bill Clarke,Employer,18455,The Trust for Public Land ,23-Dec,1/13/2024,16358,The Trust for Public Land ,3750.0,0.0,3750.0,0.0,0.0,0.0,0.0,0.0,0.0,0.0,3750.0,18455,Direct,,,View report (https://accesshub.pdc.wa.gov/node/112214),,,
20067,112214-18456,112214,FE,17453,Bill Clarke,Employer,18456,KITTITAS CO BOARD OF COMMISSIONERS,23-Dec,1/13/2024,16582,KITTITAS CO BOARD OF COMMISSIONERS,4000.0,0.0,4000.0,100.0,0.0,0.0,0.0,0.0,0.0,100.0,4100.0,18456,Direct,,,View report (https://accesshub.pdc.wa.gov/node/112214),,,
20068,112214-18457,112214,FE,17453,Bill Clarke,Employer,18457,LAKEWOOD WATER DIST,23-Dec,1/13/2024,16586,LAKEWOOD WATER DIST,3500.0,0.0,3500.0,0.0,0.0,0.0,0.0,0.0,0.0,0.0,3500.0,18457,Direct,,,View report (https://accesshub.pdc.wa.gov/node/112214),Environmental Affairs - natural resources - parks,Natural Resources/Environmental,S. Ag Water; H. Rural Development Ag & Natural Resources; H. Local Government; S. Local Government & Housing
20069,112214-18459,112214,FE,17453,Bill Clarke,Employer,18459,WA ASSN OF REALTORS,23-Dec,1/13/2024,17059,WA ASSN OF REALTORS,7000.0,0.0,7000.0,0.0,0.0,0.0,0.0,0.0,0.0,0.0,7000.0,18459,Direct,,,View report (https://accesshub.pdc.wa.gov/node/112214),Business and consumer affairs,Growth Management; taxation; housing; water,S. Local Gov; H. Enviro; S. Finance; S. Ways & Means
20070,112214-18460,112214,FE,17453,Bill Clarke,Employer,18460,WA PUBLIC UTILITIES DISTS ASSN,23-Dec,1/13/2024,17176,WA PUBLIC UTILITIES DISTS ASSN,6352.0,0.0,6352.0,100.0,0.0,0.0,0.0,0.0,0.0,100.0,6452.0,18460,Direct,,,View report (https://accesshub.pdc.wa.gov/node/112214),Energy and utilities,Water rights; energy; telecommunications; infrastructure,S. Ag & Water; H. Ag & Nat. Resources; S. Enviro; H. Cap. Budget; S. Ways & Means
20071,112214-18461,112214,FE,17453,Bill Clarke,Employer,18461,REGIONAL WATER COOPERATIVE OF PIERCE CO,23-Dec,1/13/2024,17293,REGIONAL WATER COOPERATIVE OF PIERCE CO,2900.0,0.0,2900.0,100.0,0.0,0.0,0.0,0.0,0.0,100.0,3000.0,18461,Direct,,,View report (https://accesshub.pdc.wa.gov/node/112214),Energy and utilities,Water rights; infrastructure,S. Ag & Water; H. Ag & Natural Resources; H. Capital Budget; S. Ways & Means
20072,112214-18462,112214,FE,17453,Bill Clarke,Employer,18462,AG WATER BOARD OF WHATCOM COUNTY,23-Dec,1/13/2024,17306,AG WATER BOARD OF WHATCOM COUNTY,3000.0,0.0,3000.0,0.0,0.0,0.0,0.0,0.0,0.0,0.0,3000.0,18462,Direct,,,View report (https://accesshub.pdc.wa.gov/node/112214),Environmental Affairs - natural resources - parks,Water and Infrastructure,S. Ag Water; H. Ag Natural Resources
20073,112214-29417,112214,FE,17453,Bill Clarke,Employer,29417,1-800 CONTACTS,23-Dec,1/13/2024,29415,1-800 CONTACTS,3333.33,-1666.67,1666.66,0.0,0.0,0.0,0.0,0.0,0.0,0.0,1666.66,29417,Direct,,,View report (https://accesshub.pdc.wa.gov/node/112214),Health Care,Eye Care,Senate Health Care; House Health Care
20074,112214-32049,112214,FE,17453,Bill Clarke,Employer,32049,Renewable Energy Group,23-Dec,1/13/2024,30764,Renewable Energy Group,8000.0,0.0,8000.0,0.0,0.0,0.0,0.0,0.0,0.0,0.0,8000.0,32049,Direct,,,View report (https://accesshub.pdc.wa.gov/node/112214),,,
20075,112214-47868,112214,FE,17453,Bill Clarke,Employer,47868,CITY OF SUMNER,23-Dec,1/13/2024,16315,CITY OF SUMNER,5500.0,0.0,5500.0,0.0,0.0,0.0,0.0,0.0,0.0,0.0,5500.0,47868,Direct,,,View report (https://accesshub.pdc.wa.gov/node/112214),Fiscal,Capital Project Funding,House Capital Budget; Senate Ways & Means
20076,112214-54814,112214,FE,17453,Bill Clarke,Employer,54814,Kittitas Reclamation District,23-Dec,1/13/2024,54813,Kittitas Reclamation District,4000.0,0.0,4000.0,100.0,0.0,0.0,0.0,0.0,0.0,100.0,4100.0,54814,Direct,,,View report (https://accesshub.pdc.wa.gov/node/112214),Environmental Affairs - natural resources - parks,Water Resources,H. Capital Budget; S. Ways & Means; H. Ag & Natural Resources; S. Ag Water & Natural Resources
20077,112214-60240,112214,FE,17453,Bill Clarke,Employer,60240,GRANT PUD,23-Dec,1/13/2024,16481,GRANT PUD,4500.0,0.0,4500.0,100.0,0.0,0.0,0.0,0.0,0.0,100.0,4600.0,60240,Direct,,,View report (https://accesshub.pdc.wa.gov/node/112214),Energy and utilities,Energy,S. Energy & Environment; H. Energy & Environment; S. Ways & Means; H. Finance; S. Local Government; H. Local Government
20078,112214-94247,112214,FE,17453,Bill Clarke,Employer,94247,AMAZON.COM SERVICES LLC,23-Dec,1/13/2024,16088,AMAZON.COM SERVICES LLC,3000.0,0.0,3000.0,0.0,0.0,0.0,0.0,0.0,0.0,0.0,3000.0,94247,Direct,,,View report (https://accesshub.pdc.wa.gov/node/112214),Local government,Housing/Local Government/Land Use/Environmental/Fiscal,House Local Government; Housing Housing; Senate Local Government & Housing; Senate Ways & Means; House Capital Budget
20079,112214-98811,112214,FE,17453,Bill Clarke,Employer,98811,Copenhagen Infrastructure Partners,23-Dec,1/13/2024,73606,Copenhagen Infrastructure Partners,5500.0,0.0,5500.0,0.0,0.0,0.0,0.0,0.0,0.0,0.0,5500.0,98811,Direct,,,View report (https://accesshub.pdc.wa.gov/node/112214),,,
20080,112214-100914,112214,FE,17453,Bill Clarke,Employer,100914,International Bottled Water Association,23-Dec,1/13/2024,63254,International Bottled Water Association,5000.0,0.0,5000.0,0.0,0.0,0.0,0.0,0.0,0.0,0.0,5000.0,100914,Direct,,,View report (https://accesshub.pdc.wa.gov/node/112214),Environmental Affairs - natural resources - parks,Natural Resources/Environmental,S. Ag Water; H. Rural Development Ag & Natural Resources; H. Local Government; S. Local Government & Housing
20081,112219-100088,112219,FE,100087,Paul Griffin,Employer,100088,WA RURAL ELECTRIC CO-OP ASSN,23-Dec,1/13/2024,17181,WA RURAL ELECTRIC CO-OP ASSN,3500.0,0.0,3500.0,0.0,0.0,0.0,0.0,0.0,0.0,0.0,3500.0,100088,Direct,,,View report (https://accesshub.pdc.wa.gov/node/112219),Energy and utilities,Energy and Utilities,House Energy and Senate Energy
20082,112218-18873,112218,FE,17585,NATHAN GORTON,Employer,18873,WA ASSN OF REALTORS,23-Dec,1/13/2024,17059,WA ASSN OF REALTORS,8000.0,0.0,8000.0,0.0,0.0,0.0,0.0,0.0,0.0,0.0,8000.0,18873,Direct,,,View report (https://accesshub.pdc.wa.gov/node/112218),Fiscal,Budget,"Ways and Means, Appropriations, Finance"
20083,112216-52299,112216,FE,52298,Mary Hull-Drury,Employer,52299,WA ASSN OF REALTORS,23-Dec,1/13/2024,17059,WA ASSN OF REALTORS,3500.0,0.0,3500.0,0.0,0.0,0.0,0.0,0.0,0.0,0.0,3500.0,52299,Direct,,,View report (https://accesshub.pdc.wa.gov/node/112216),Business and consumer affairs,housing & real estate,"DOL, Senate & House Housing Committees"
20084,112141-51720,112141,FE,17752,ERIC LOHNES,Employer,51720,PHARMACEUTICAL RSRCH/MFG OF AMERICA,23-Dec,1/13/2024,16776,PHARMACEUTICAL RSRCH/MFG OF AMERICA,254.81,0.0,254.81,0.0,0.0,0.0,0.0,0.0,0.0,0.0,254.81,51720,Direct,,,View report (https://accesshub.pdc.wa.gov/node/112141),Health Care,PDAB,Legislature
20085,112013-84273,112013,FE,84272,Dharia McGrew,Employer,84273,PHARMACEUTICAL RSRCH/MFG OF AMERICA,23-Dec,1/13/2024,16776,PHARMACEUTICAL RSRCH/MFG OF AMERICA,461.54,0.0,461.54,0.0,0.0,0.0,0.0,0.0,0.0,0.0,461.54,84273,Direct,,,View report (https://accesshub.pdc.wa.gov/node/112013),Health Care,Drug Prescription Affordability Board,Health Care Authority
20086,112142-50931,112142,FE,50787,Serlin Haley LLP,Employer,50931,AMERIPEN,23-Dec,1/13/2024,50868,AMERIPEN,600.0,0.0,600.0,0.0,0.0,0.0,0.0,0.0,0.0,0.0,600.0,50931,Direct,,,View report (https://accesshub.pdc.wa.gov/node/112142),Environmental Affairs - natural resources - parks,HB 1131,House Environment Committee
20087,111140-19656,111140,FE,17983,STAUFFACHER COMMUNICATIONS*,Employer,19656,AMERICAN TRAFFIC SOLUTIONS INC,23-Nov,1/13/2024,16124,AMERICAN TRAFFIC SOLUTIONS INC,6000.0,-3000.0,3000.0,0.0,0.0,0.0,0.0,0.0,0.0,0.0,3000.0,19656,Direct,,,View report (https://accesshub.pdc.wa.gov/node/111140),Transportation,Traffic safety cameras,House & Senate Transportation Cmtes.
20088,111140-19658,111140,FE,17983,STAUFFACHER COMMUNICATIONS*,Employer,19658,BUILDING INDUSTRY ASSN OF WA,23-Nov,1/13/2024,16215,BUILDING INDUSTRY ASSN OF WA,6500.0,0.0,6500.0,0.0,0.0,0.0,0.0,0.0,0.0,0.0,6500.0,19658,Direct,,,View report (https://accesshub.pdc.wa.gov/node/111140),Local government,Schools and GMA,House Env and Sen Local Gov Committees.
20089,111140-19659,111140,FE,17983,STAUFFACHER COMMUNICATIONS*,Employer,19659,BURLINGTON NORTHERN SANTA FE RAILROAD,23-Nov,1/13/2024,16217,BURLINGTON NORTHERN SANTA FE RAILROAD,6250.0,0.0,6250.0,0.0,0.0,79200.0,0.0,0.0,0.0,79200.0,85450.0,19659,Direct,,,View report (https://accesshub.pdc.wa.gov/node/111140),Energy and utilities,Oil and coal export facilities,Senate EET Cmte; House TED Cmte.
20090,111140-19661,111140,FE,17983,STAUFFACHER COMMUNICATIONS*,Employer,19661,Centene Corporation on behalf of its affiliates and subsidiaries,23-Nov,1/13/2024,16367,Centene Corporation on behalf of its affiliates and subsidiaries,10000.0,0.0,10000.0,0.0,0.0,0.0,0.0,0.0,0.0,0.0,10000.0,19661,Direct,,,View report (https://accesshub.pdc.wa.gov/node/111140),Health Care,Medicaid rates; health insurer regulations and proposed legislation; HCA budget proposals.,House and Senate Health Care Cmtes; House Appropriations Cmte; Senate Ways & Means Cmte; HCA; OIC; OFM; Office of the Governor.
20091,111140-19662,111140,FE,17983,STAUFFACHER COMMUNICATIONS*,Employer,19662,DISH Network Corporation,23-Nov,1/13/2024,16390,DISH Network Corporation,3000.0,0.0,3000.0,0.0,0.0,7000.0,0.0,0.0,0.0,7000.0,10000.0,19662,Direct,,,View report (https://accesshub.pdc.wa.gov/node/111140),Fiscal,Taxation,House Finance Cmte; Senate Ways & Means Cmte; OFM; DOR.
20092,111140-19664,111140,FE,17983,STAUFFACHER COMMUNICATIONS*,Employer,19664,INDEPENDENT INS AGENTS & BROKERS OF WA,23-Nov,1/13/2024,16525,INDEPENDENT INS AGENTS & BROKERS OF WA,3650.0,0.0,3650.0,0.0,0.0,0.0,0.0,0.0,0.0,0.0,3650.0,19664,Direct,,,View report (https://accesshub.pdc.wa.gov/node/111140),Financial institutions and insurance,Property/Casualty insurance regulation; rebating and inducement issues,House Business & Financial Services Cmte; Senate Financial Institutions & Insurance Cmte; OIC.
20093,111140-19665,111140,FE,17983,STAUFFACHER COMMUNICATIONS*,Employer,19665,LEGACY HEALTH SYSTEM,23-Nov,1/13/2024,16592,LEGACY HEALTH SYSTEM,5000.0,0.0,5000.0,0.0,0.0,0.0,0.0,0.0,0.0,0.0,5000.0,19665,Direct,,,View report (https://accesshub.pdc.wa.gov/node/111140),,,
20094,111140-19667,111140,FE,17983,STAUFFACHER COMMUNICATIONS*,Employer,19667,Northwest Pulp & Paper Association,23-Nov,1/13/2024,16717,Northwest Pulp & Paper Association,4000.0,0.0,4000.0,0.0,0.0,0.0,0.0,0.0,0.0,0.0,4000.0,19667,Direct,,,View report (https://accesshub.pdc.wa.gov/node/111140),Energy and utilities,Carbon reduction proposals,House Environment Cmte; Senate EET Cmte; House TED Cmte; legislators with pulp & paper mills in their districts.
20095,111140-19669,111140,FE,17983,STAUFFACHER COMMUNICATIONS*,Employer,19669,Rayonier,23-Nov,1/13/2024,16841,Rayonier,3500.0,0.0,3500.0,0.0,0.0,0.0,0.0,0.0,0.0,0.0,3500.0,19669,Direct,,,View report (https://accesshub.pdc.wa.gov/node/111140),Fiscal,Taxation,House Finance Committee; Senate Ways & Means Committee
20096,111140-19670,111140,FE,17983,STAUFFACHER COMMUNICATIONS*,Employer,19670,Securities Industry and Financial Markets Association,23-Nov,1/13/2024,16901,Securities Industry and Financial Markets Association,20000.0,0.0,20000.0,0.0,0.0,0.0,0.0,0.0,0.0,0.0,20000.0,19670,Direct,,,View report (https://accesshub.pdc.wa.gov/node/111140),Business and consumer affairs,State-based retirement marketplace.,"Dept. of Commerce; DFI, OIC; various legislators interested in the marketplace."
20097,111140-19671,111140,FE,17983,STAUFFACHER COMMUNICATIONS*,Employer,19671,TRUE BLUE INC,23-Nov,1/13/2024,16996,TRUE BLUE INC,2000.0,0.0,2000.0,0.0,0.0,13200.0,0.0,0.0,0.0,13200.0,15200.0,19671,Direct,,,View report (https://accesshub.pdc.wa.gov/node/111140),Labor,Minimum wage,"House Labor & Workforce Training Cmte; Senate Commerce, Labor and Sports Cmte."
20098,111140-20020,111140,FE,17983,STAUFFACHER COMMUNICATIONS*,Employer,20020,WA BEER & WINE DISTRIBUTORS ASSN (CIVIC GROUP*),23-Nov,1/13/2024,17067,WA BEER & WINE DISTRIBUTORS ASSN,4000.0,0.0,4000.0,0.0,0.0,0.0,0.0,0.0,0.0,0.0,4000.0,20020,Subcontract,17450.0,CIVIC GROUP*,View report (https://accesshub.pdc.wa.gov/node/111140),,,
20099,111140-52462,111140,FE,17983,STAUFFACHER COMMUNICATIONS*,Employer,52462,APPLE INC,23-Nov,1/13/2024,16131,APPLE INC,5000.0,0.0,5000.0,0.0,0.0,0.0,0.0,0.0,0.0,0.0,5000.0,52462,Direct,,,View report (https://accesshub.pdc.wa.gov/node/111140),,,
20100,111140-61784,111140,FE,17983,STAUFFACHER COMMUNICATIONS*,Employer,61784,U.S. Tire Manufacturers Association,23-Nov,1/13/2024,61770,U.S. Tire Manufacturers Association,3750.0,0.0,3750.0,0.0,0.0,0.0,0.0,0.0,0.0,0.0,3750.0,61784,Direct,,,View report (https://accesshub.pdc.wa.gov/node/111140),,,
20101,111140-78938,111140,FE,17983,STAUFFACHER COMMUNICATIONS*,Employer,78938,Northwest Wall and Ceiling Contractors Association,23-Nov,1/13/2024,78353,Northwest Wall and Ceiling Contractors Association,5000.0,0.0,5000.0,0.0,0.0,0.0,0.0,0.0,0.0,0.0,5000.0,78938,Direct,,,View report (https://accesshub.pdc.wa.gov/node/111140),,,
20102,111140-90626,111140,FE,17983,STAUFFACHER COMMUNICATIONS*,Employer,90626,"DirecTV, LLC",23-Nov,1/13/2024,88599,"DirecTV, LLC",3000.0,0.0,3000.0,0.0,0.0,7200.0,0.0,0.0,0.0,7200.0,10200.0,90626,Direct,,,View report (https://accesshub.pdc.wa.gov/node/111140),,,
20103,111140-94438,111140,FE,17983,STAUFFACHER COMMUNICATIONS*,Employer,94438,ALASKA AIRLINES,23-Nov,1/13/2024,16077,ALASKA AIRLINES,6000.0,0.0,6000.0,0.0,0.0,48400.0,0.0,0.0,0.0,48400.0,54400.0,94438,Direct,,,View report (https://accesshub.pdc.wa.gov/node/111140),Transportation,Transportation Issues,House Transportation Committee and Senate Transportation Committee
20104,112230-19910,112230,FE,18102,Bryce Yadon,Employer,19910,FUTUREWISE,23-Nov,1/13/2024,16054,FUTUREWISE,5416.67,0.0,5416.67,0.0,0.0,0.0,0.0,0.0,0.0,0.0,5416.67,19910,Direct,,,View report (https://accesshub.pdc.wa.gov/node/112230),Local government,Growth Management Updates and Housing Policy,"Rep. Shewmake, Rep. Lovelett, Rep. Short, Rep. Duerr,"
20105,112230-46896,112230,FE,18102,Bryce Yadon,Employer,46896,TRANSPORTATION CHOICES COALITION,23-Nov,1/13/2024,16990,TRANSPORTATION CHOICES COALITION,5500.0,0.0,5500.0,0.0,0.0,0.0,0.0,0.0,0.0,0.0,5500.0,46896,Direct,,,View report (https://accesshub.pdc.wa.gov/node/112230),Transportation,Transportation Funding and Jaywalking,"Rep. Timmons, Rep. Fey, Rep. Mena"
20106,112230-102976,112230,FE,18102,Bryce Yadon,Employer,102976,Via Transportation Inc.,23-Nov,1/13/2024,97569,Via Transportation Inc.,2000.0,0.0,2000.0,0.0,0.0,0.0,0.0,0.0,0.0,0.0,2000.0,102976,Direct,,,View report (https://accesshub.pdc.wa.gov/node/112230),Transportation,Transportation funding,"Sen. Nguyen, Sen. Shewmake"
20107,112230-110097,112230,FE,18102,Bryce Yadon,Employer,110097,DISABILITY RIGHTS WA,23-Nov,1/13/2024,17163,DISABILITY RIGHTS WA,2500.0,0.0,2500.0,0.0,0.0,0.0,0.0,0.0,0.0,0.0,2500.0,110097,Direct,,,View report (https://accesshub.pdc.wa.gov/node/112230),Transportation,"Transit Board Membership, transportation funding",Rep. Fey
20108,112231-19910,112231,FE,18102,Bryce Yadon,Employer,19910,FUTUREWISE,23-Dec,1/13/2024,16054,FUTUREWISE,5416.67,0.0,5416.67,0.0,0.0,0.0,0.0,0.0,0.0,0.0,5416.67,19910,Direct,,,View report (https://accesshub.pdc.wa.gov/node/112231),Local government,Growth Management Updates and Housing Policy,"Rep. Duerr, Rep. Bateman, Governor's Policy Staff"
20109,112231-46896,112231,FE,18102,Bryce Yadon,Employer,46896,TRANSPORTATION CHOICES COALITION,23-Dec,1/13/2024,16990,TRANSPORTATION CHOICES COALITION,5500.0,0.0,5500.0,0.0,0.0,0.0,0.0,0.0,0.0,0.0,5500.0,46896,Direct,,,View report (https://accesshub.pdc.wa.gov/node/112231),Transportation,"Transportation Funding, Jaywalking","Sen. Liias, Rep. Fey, Governor's Policy Office"
20110,112231-102976,112231,FE,18102,Bryce Yadon,Employer,102976,Via Transportation Inc.,23-Dec,1/13/2024,97569,Via Transportation Inc.,2000.0,0.0,2000.0,0.0,0.0,0.0,0.0,0.0,0.0,0.0,2000.0,102976,Direct,,,View report (https://accesshub.pdc.wa.gov/node/112231),Transportation,Transportation Funding,Governor's Policy Office
20111,112231-110097,112231,FE,18102,Bryce Yadon,Employer,110097,DISABILITY RIGHTS WA,23-Dec,1/13/2024,17163,DISABILITY RIGHTS WA,2500.0,0.0,2500.0,0.0,0.0,0.0,0.0,0.0,0.0,0.0,2500.0,110097,Direct,,,View report (https://accesshub.pdc.wa.gov/node/112231),Transportation,"Transit Board Membership, transportation funding","Rep. Timmons, Governor's Policy Office"
20112,111708-105716,111708,FE,105715,Jordan Mitchell,Employer,105716,"Airbnb, Inc.",23-Dec,1/13/2024,30820,"Airbnb, Inc.",533.65,0.0,533.65,0.0,0.0,0.0,0.0,0.0,0.0,0.0,533.65,105716,Direct,,,View report (https://accesshub.pdc.wa.gov/node/111708),State government,SB 5989,Legislature
20113,112227-107016,112227,FE,73771,David Namura,Employer,107016,Google LLC and its Affiliates,23-Dec,1/13/2024,16475,Google LLC and its Affiliates,213.46,0.0,213.46,0.0,0.0,66000.0,0.0,0.0,0.0,66000.0,66213.46,107016,Direct,,,View report (https://accesshub.pdc.wa.gov/node/112227),Technology,Campaign Ads; Artificial Intelligence,"Sen. Joe Nguyen, Rep. Amy Walen, Rep. Kristine Reeves"
20114,112234-52222,112234,FE,50060,Hometown Consulting,Employer,52222,"Plumbing-Heating-Cooling Contractors of Washington (Public Affairs Consulting, LLC)",23-Dec,1/13/2024,41058,Plumbing-Heating-Cooling Contractors of Washington,1750.0,0.0,1750.0,0.0,0.0,0.0,0.0,0.0,0.0,0.0,1750.0,52222,Subcontract,17358.0,"Public Affairs Consulting, LLC",View report (https://accesshub.pdc.wa.gov/node/112234),,,
20115,112234-64489,112234,FE,50060,Hometown Consulting,Employer,64489,City of Orting,23-Dec,1/13/2024,64473,City of Orting,1000.0,0.0,1000.0,0.0,0.0,0.0,0.0,0.0,0.0,0.0,1000.0,64489,Direct,,,View report (https://accesshub.pdc.wa.gov/node/112234),Local government,City Priorities,2nd Leg. District Legislators
20116,112234-111351,112234,FE,50060,Hometown Consulting,Employer,111351,City of McCleary,23-Dec,1/13/2024,111273,City of McCleary,500.0,0.0,500.0,0.0,0.0,0.0,0.0,0.0,0.0,0.0,500.0,111351,Direct,,,View report (https://accesshub.pdc.wa.gov/node/112234),Local government,City Priorities,19th Leg. District Legislators
20117,112235-19949,112235,FE,17553,JESSICA FORTESCUE,Employer,19949,WA ROUNDTABLE (PIERCE CONSULTING SVCS LLC*),23-Dec,1/13/2024,17178,WA ROUNDTABLE,359.28,0.0,359.28,0.0,0.0,0.0,0.0,0.0,0.0,0.0,359.28,19949,Subcontract,17597.0,PIERCE CONSULTING SVCS LLC*,View report (https://accesshub.pdc.wa.gov/node/112235),,,
20118,112235-19975,112235,FE,17553,JESSICA FORTESCUE,Employer,19975,RUSSELL INVESTMENT GROUP (PIERCE CONSULTING SVCS LLC*),23-Dec,1/13/2024,16456,RUSSELL INVESTMENT GROUP,495.55,0.0,495.55,0.0,0.0,0.0,0.0,0.0,0.0,0.0,495.55,19975,Subcontract,17597.0,PIERCE CONSULTING SVCS LLC*,View report (https://accesshub.pdc.wa.gov/node/112235),,,
20119,112235-19986,112235,FE,17553,JESSICA FORTESCUE,Employer,19986,WA FOREST PROTECTION ASSN (PIERCE CONSULTING SVCS LLC*),23-Dec,1/13/2024,17120,WA FOREST PROTECTION ASSN,330.37,0.0,330.37,0.0,0.0,0.0,0.0,0.0,0.0,0.0,330.37,19986,Subcontract,17597.0,PIERCE CONSULTING SVCS LLC*,View report (https://accesshub.pdc.wa.gov/node/112235),,,
20120,112235-20010,112235,FE,17553,JESSICA FORTESCUE,Employer,20010,Delta Dental of WA (PIERCE CONSULTING SVCS LLC*),23-Dec,1/13/2024,17096,Delta Dental of WA,495.55,0.0,495.55,0.0,0.0,0.0,0.0,0.0,0.0,0.0,495.55,20010,Subcontract,17597.0,PIERCE CONSULTING SVCS LLC*,View report (https://accesshub.pdc.wa.gov/node/112235),,,
20121,112235-20012,112235,FE,17553,JESSICA FORTESCUE,Employer,20012,BRISTOL-MYERS SQUIBB CO (PIERCE CONSULTING SVCS LLC*),23-Dec,1/13/2024,16208,BRISTOL-MYERS SQUIBB CO,412.96,0.0,412.96,0.0,0.0,0.0,0.0,0.0,0.0,0.0,412.96,20012,Subcontract,17597.0,PIERCE CONSULTING SVCS LLC*,View report (https://accesshub.pdc.wa.gov/node/112235),,,
20122,112235-27760,112235,FE,17553,JESSICA FORTESCUE,Employer,27760,Washington Mortgage Bankers Association,23-Dec,1/13/2024,17147,Washington Mortgage Bankers Association,2500.0,0.0,2500.0,0.0,0.0,1000.0,0.0,0.0,0.0,1000.0,3500.0,27760,Direct,,,View report (https://accesshub.pdc.wa.gov/node/112235),Financial institutions and insurance,"Banking, Housing","Fiscal, DFI, DOR"
20123,112235-27763,112235,FE,17553,JESSICA FORTESCUE,Employer,27763,ASSN of WA Housing Authorities,23-Dec,1/13/2024,16155,ASSN of WA Housing Authorities,1600.0,0.0,1600.0,0.0,0.0,0.0,0.0,0.0,0.0,0.0,1600.0,27763,Direct,,,View report (https://accesshub.pdc.wa.gov/node/112235),Human services,"Housing, local government","Housing, Local Government, fiscal"
20124,112235-35643,112235,FE,17553,JESSICA FORTESCUE,Employer,35643,Washington State Opportunity Scholarship (PIERCE CONSULTING SVCS LLC*),23-Dec,1/13/2024,30931,Washington State Opportunity Scholarship,330.37,0.0,330.37,0.0,0.0,0.0,0.0,0.0,0.0,0.0,330.37,35643,Subcontract,17597.0,PIERCE CONSULTING SVCS LLC*,View report (https://accesshub.pdc.wa.gov/node/112235),,,
20125,112235-70206,112235,FE,17553,JESSICA FORTESCUE,Employer,70206,MICROSOFT CORP,23-Dec,1/13/2024,16636,MICROSOFT CORP,3750.0,0.0,3750.0,291.3,291.3,0.0,0.0,0.0,0.0,582.6,4332.6,70206,Direct,,,View report (https://accesshub.pdc.wa.gov/node/112235),Technology,Technology,"Governor's office, ESD, LegTech, OSPI"
20126,112235-71332,112235,FE,17553,JESSICA FORTESCUE,Employer,71332,Mary's Place (PIERCE CONSULTING SVCS LLC*),23-Dec,1/13/2024,71253,Mary's Place,1250.0,0.0,1250.0,0.0,0.0,0.0,0.0,0.0,0.0,0.0,1250.0,71332,Subcontract,17597.0,PIERCE CONSULTING SVCS LLC*,View report (https://accesshub.pdc.wa.gov/node/112235),,,
20127,112235-71915,112235,FE,17553,JESSICA FORTESCUE,Employer,71915,WA CHARTERS ACTION,23-Dec,1/13/2024,17071,WA CHARTERS ACTION,4000.0,0.0,4000.0,0.0,0.0,0.0,0.0,0.0,0.0,0.0,4000.0,71915,Direct,,,View report (https://accesshub.pdc.wa.gov/node/112235),Education,Education,Education
20128,112235-83396,112235,FE,17553,JESSICA FORTESCUE,Employer,83396,PFIZER INC,23-Dec,1/13/2024,16774,PFIZER INC,4500.0,0.0,4500.0,0.0,0.0,7000.0,0.0,0.0,0.0,7000.0,11500.0,83396,Direct,,,View report (https://accesshub.pdc.wa.gov/node/112235),Health Care,Health care,Health care
20129,112235-83744,112235,FE,17553,JESSICA FORTESCUE,Employer,83744,Football Northwest LLC (PIERCE CONSULTING SVCS LLC*),23-Dec,1/13/2024,82450,Football Northwest LLC,371.66,0.0,371.66,0.0,0.0,0.0,0.0,0.0,0.0,0.0,371.66,83744,Subcontract,17597.0,PIERCE CONSULTING SVCS LLC*,View report (https://accesshub.pdc.wa.gov/node/112235),,,
20130,112235-107185,112235,FE,17553,JESSICA FORTESCUE,Employer,107185,WASTE CONNECTIONS INC (PIERCE CONSULTING SVCS LLC*),23-Dec,1/13/2024,17225,WASTE CONNECTIONS INC,1500.0,0.0,1500.0,0.0,0.0,0.0,0.0,0.0,0.0,0.0,1500.0,107185,Subcontract,17597.0,PIERCE CONSULTING SVCS LLC*,View report (https://accesshub.pdc.wa.gov/node/112235),,,
20131,112235-84678,112235,FE,17553,JESSICA FORTESCUE,Employer,84678,HEALTHCARE DISTRIBUTION ALLIANCE c/o MultiState Associates Inc (PIERCE CONSULTING SVCS LLC*),23-Dec,1/13/2024,16496,HEALTHCARE DISTRIBUTION ALLIANCE c/o MultiState Associates Inc,454.26,0.0,454.26,0.0,0.0,0.0,0.0,0.0,0.0,0.0,454.26,84678,Subcontract,17597.0,PIERCE CONSULTING SVCS LLC*,View report (https://accesshub.pdc.wa.gov/node/112235),,,
20133,112228-19655,112228,FE,17983,STAUFFACHER COMMUNICATIONS*,Employer,19655,AMERICAN FOREST & PAPER ASSN,23-Dec,1/14/2024,16104,AMERICAN FOREST & PAPER ASSN,9500.0,0.0,9500.0,0.0,0.0,0.0,0.0,0.0,0.0,0.0,9500.0,19655,Direct,,,View report (https://accesshub.pdc.wa.gov/node/112228),Energy and utilities,Carbon reduction policy,Senate EET Cmte; House TED Cmte; House Environment Cmtelegislators with pulp & paper mills in their districts.
20134,112228-19656,112228,FE,17983,STAUFFACHER COMMUNICATIONS*,Employer,19656,AMERICAN TRAFFIC SOLUTIONS INC,23-Dec,1/14/2024,16124,AMERICAN TRAFFIC SOLUTIONS INC,6000.0,-3000.0,3000.0,0.0,0.0,0.0,0.0,0.0,0.0,0.0,3000.0,19656,Direct,,,View report (https://accesshub.pdc.wa.gov/node/112228),Transportation,Traffic safety cameras,House & Senate Transportation Cmtes.
20135,112228-19658,112228,FE,17983,STAUFFACHER COMMUNICATIONS*,Employer,19658,BUILDING INDUSTRY ASSN OF WA,23-Dec,1/14/2024,16215,BUILDING INDUSTRY ASSN OF WA,6500.0,0.0,6500.0,0.0,0.0,0.0,0.0,0.0,0.0,0.0,6500.0,19658,Direct,,,View report (https://accesshub.pdc.wa.gov/node/112228),Local government,Schools and GMA,House Env and Sen Local Gov Committees.
20136,112228-19659,112228,FE,17983,STAUFFACHER COMMUNICATIONS*,Employer,19659,BURLINGTON NORTHERN SANTA FE RAILROAD,23-Dec,1/14/2024,16217,BURLINGTON NORTHERN SANTA FE RAILROAD,6250.0,0.0,6250.0,0.0,0.0,0.0,0.0,0.0,0.0,0.0,6250.0,19659,Direct,,,View report (https://accesshub.pdc.wa.gov/node/112228),Energy and utilities,Oil and coal export facilities,Senate EET Cmte; House TED Cmte.
20137,112228-19661,112228,FE,17983,STAUFFACHER COMMUNICATIONS*,Employer,19661,Centene Corporation on behalf of its affiliates and subsidiaries,23-Dec,1/14/2024,16367,Centene Corporation on behalf of its affiliates and subsidiaries,10000.0,0.0,10000.0,0.0,0.0,0.0,0.0,0.0,0.0,0.0,10000.0,19661,Direct,,,View report (https://accesshub.pdc.wa.gov/node/112228),Health Care,Medicaid rates; health insurer regulations and proposed legislation; HCA budget proposals.,House and Senate Health Care Cmtes; House Appropriations Cmte; Senate Ways & Means Cmte; HCA; OIC; OFM; Office of the Governor.
20138,112228-19662,112228,FE,17983,STAUFFACHER COMMUNICATIONS*,Employer,19662,DISH Network Corporation,23-Dec,1/14/2024,16390,DISH Network Corporation,3000.0,0.0,3000.0,0.0,0.0,0.0,0.0,0.0,0.0,0.0,3000.0,19662,Direct,,,View report (https://accesshub.pdc.wa.gov/node/112228),Fiscal,Taxation,House Finance Cmte; Senate Ways & Means Cmte; OFM; DOR.
20139,112228-19664,112228,FE,17983,STAUFFACHER COMMUNICATIONS*,Employer,19664,INDEPENDENT INS AGENTS & BROKERS OF WA,23-Dec,1/14/2024,16525,INDEPENDENT INS AGENTS & BROKERS OF WA,3650.0,0.0,3650.0,0.0,0.0,0.0,0.0,0.0,0.0,0.0,3650.0,19664,Direct,,,View report (https://accesshub.pdc.wa.gov/node/112228),Financial institutions and insurance,Property/Casualty insurance regulation; rebating and inducement issues,House Business & Financial Services Cmte; Senate Financial Institutions & Insurance Cmte; OIC.
20140,112228-19665,112228,FE,17983,STAUFFACHER COMMUNICATIONS*,Employer,19665,LEGACY HEALTH SYSTEM,23-Dec,1/14/2024,16592,LEGACY HEALTH SYSTEM,5000.0,0.0,5000.0,0.0,0.0,0.0,0.0,0.0,0.0,0.0,5000.0,19665,Direct,,,View report (https://accesshub.pdc.wa.gov/node/112228),,,
20141,112228-19667,112228,FE,17983,STAUFFACHER COMMUNICATIONS*,Employer,19667,Northwest Pulp & Paper Association,23-Dec,1/14/2024,16717,Northwest Pulp & Paper Association,4000.0,0.0,4000.0,0.0,0.0,0.0,0.0,0.0,0.0,0.0,4000.0,19667,Direct,,,View report (https://accesshub.pdc.wa.gov/node/112228),Energy and utilities,Carbon reduction proposals,House Environment Cmte; Senate EET Cmte; House TED Cmte; legislators with pulp & paper mills in their districts.
20142,112228-19669,112228,FE,17983,STAUFFACHER COMMUNICATIONS*,Employer,19669,Rayonier,23-Dec,1/14/2024,16841,Rayonier,3500.0,0.0,3500.0,0.0,0.0,0.0,0.0,0.0,0.0,0.0,3500.0,19669,Direct,,,View report (https://accesshub.pdc.wa.gov/node/112228),Fiscal,Taxation,House Finance Committee; Senate Ways & Means Committee
20143,112228-19671,112228,FE,17983,STAUFFACHER COMMUNICATIONS*,Employer,19671,TRUE BLUE INC,23-Dec,1/14/2024,16996,TRUE BLUE INC,2000.0,0.0,2000.0,0.0,0.0,0.0,0.0,0.0,0.0,0.0,2000.0,19671,Direct,,,View report (https://accesshub.pdc.wa.gov/node/112228),Labor,Minimum wage,"House Labor & Workforce Training Cmte; Senate Commerce, Labor and Sports Cmte."
20144,112228-20020,112228,FE,17983,STAUFFACHER COMMUNICATIONS*,Employer,20020,WA BEER & WINE DISTRIBUTORS ASSN (CIVIC GROUP*),23-Dec,1/14/2024,17067,WA BEER & WINE DISTRIBUTORS ASSN,4000.0,0.0,4000.0,0.0,0.0,0.0,0.0,0.0,0.0,0.0,4000.0,20020,Subcontract,17450.0,CIVIC GROUP*,View report (https://accesshub.pdc.wa.gov/node/112228),,,
20145,112228-52462,112228,FE,17983,STAUFFACHER COMMUNICATIONS*,Employer,52462,APPLE INC,23-Dec,1/14/2024,16131,APPLE INC,5000.0,0.0,5000.0,0.0,0.0,0.0,0.0,0.0,0.0,0.0,5000.0,52462,Direct,,,View report (https://accesshub.pdc.wa.gov/node/112228),,,
20146,112228-61784,112228,FE,17983,STAUFFACHER COMMUNICATIONS*,Employer,61784,U.S. Tire Manufacturers Association,23-Dec,1/14/2024,61770,U.S. Tire Manufacturers Association,3750.0,0.0,3750.0,0.0,0.0,0.0,0.0,0.0,0.0,0.0,3750.0,61784,Direct,,,View report (https://accesshub.pdc.wa.gov/node/112228),,,
20147,112228-78938,112228,FE,17983,STAUFFACHER COMMUNICATIONS*,Employer,78938,Northwest Wall and Ceiling Contractors Association,23-Dec,1/14/2024,78353,Northwest Wall and Ceiling Contractors Association,5000.0,0.0,5000.0,0.0,0.0,7200.0,0.0,0.0,0.0,7200.0,12200.0,78938,Direct,,,View report (https://accesshub.pdc.wa.gov/node/112228),,,
20148,112228-90626,112228,FE,17983,STAUFFACHER COMMUNICATIONS*,Employer,90626,"DirecTV, LLC",23-Dec,1/14/2024,88599,"DirecTV, LLC",3000.0,0.0,3000.0,0.0,0.0,0.0,0.0,0.0,0.0,0.0,3000.0,90626,Direct,,,View report (https://accesshub.pdc.wa.gov/node/112228),,,
20149,112228-94438,112228,FE,17983,STAUFFACHER COMMUNICATIONS*,Employer,94438,ALASKA AIRLINES,23-Dec,1/14/2024,16077,ALASKA AIRLINES,6000.0,0.0,6000.0,0.0,0.0,0.0,0.0,0.0,0.0,0.0,6000.0,94438,Direct,,,View report (https://accesshub.pdc.wa.gov/node/112228),Transportation,Transportation Issues,House Transportation Committee and Senate Transportation Committee
20150,112228-111457,112228,FE,17983,STAUFFACHER COMMUNICATIONS*,Employer,111457,Bulfinch Strategies Group LLC,23-Dec,1/14/2024,111455,Bulfinch Strategies Group LLC,5000.0,0.0,5000.0,0.0,0.0,0.0,0.0,0.0,0.0,0.0,5000.0,111457,Direct,,,View report (https://accesshub.pdc.wa.gov/node/112228),Transportation,Electric Vehicle Laws and Regulations,House and Senate Transportation committees and Dept. of Labor and Industries
20151,112238-39387,112238,FE,39386,Teresa Taylor,Employer,39387,WA ST COUNCIL OF POLICE & SHERIFFS,23-Dec,1/14/2024,17236,WA ST COUNCIL OF POLICE & SHERIFFS,3245.0,0.0,3245.0,0.0,0.0,0.0,0.0,0.0,0.0,0.0,3245.0,39387,Direct,,,View report (https://accesshub.pdc.wa.gov/node/112238),Law and justice,Law and Justice,Senate Law & Justice Committee; House Public Safety Committee
20152,111698-19049,111698,FE,17688,James P Justin (Government Relations Consulting Inc.),Employer,19049,AT&T SERVICES INC,23-Dec,1/14/2024,16175,AT&T SERVICES INC,3500.0,-1000.0,2500.0,0.0,0.0,0.0,0.0,0.0,0.0,0.0,2500.0,19049,Direct,,,View report (https://accesshub.pdc.wa.gov/node/111698),Technology,Artificial Intelligence proposals,"AG's Office, Governor's Office, House Innovation Committee members, Senate Tech Committee Members"
20153,111698-19054,111698,FE,17688,James P Justin (Government Relations Consulting Inc.),Employer,19054,MUNICIPAL RESEARCH & SERVICES CENTER,23-Dec,1/14/2024,16652,MUNICIPAL RESEARCH & SERVICES CENTER,1500.0,-500.0,1000.0,0.0,0.0,0.0,0.0,0.0,0.0,0.0,1000.0,19054,Direct,,,View report (https://accesshub.pdc.wa.gov/node/111698),Local government,State Operating Budget,OFM & Governor's Office
20154,111698-19058,111698,FE,17688,James P Justin (Government Relations Consulting Inc.),Employer,19058,TREEHOUSE,23-Dec,1/14/2024,16992,TREEHOUSE,1750.0,-250.0,1500.0,0.0,0.0,0.0,0.0,0.0,0.0,0.0,1500.0,19058,Direct,,,View report (https://accesshub.pdc.wa.gov/node/111698),Education,Operating Budget,OFM & Governor's Office
20155,111698-19059,111698,FE,17688,James P Justin (Government Relations Consulting Inc.),Employer,19059,UNIVERSITY OF WASHINGTON,23-Dec,1/14/2024,17021,UNIVERSITY OF WASHINGTON,7000.0,-1000.0,6000.0,0.0,0.0,0.0,0.0,0.0,0.0,0.0,6000.0,19059,Direct,,,View report (https://accesshub.pdc.wa.gov/node/111698),Health Care,Budget,"Governor's Office and OFM, House Approps and Senate Ways Leadership"
20156,111698-19060,111698,FE,17688,James P Justin (Government Relations Consulting Inc.),Employer,19060,WA ROUNDTABLE,23-Dec,1/14/2024,17178,WA ROUNDTABLE,2000.0,0.0,2000.0,0.0,0.0,0.0,0.0,0.0,0.0,0.0,2000.0,19060,Direct,,,View report (https://accesshub.pdc.wa.gov/node/111698),Education,Dual Credit Bills,"OFM, WSAC and the Governor's Office"
20157,111698-26337,111698,FE,17688,James P Justin (Government Relations Consulting Inc.),Employer,26337,LYFT INC (Insight Strategic Partners LLC),23-Dec,1/14/2024,16612,LYFT INC,2500.0,-1000.0,1500.0,0.0,0.0,0.0,0.0,0.0,0.0,0.0,1500.0,26337,Subcontract,25651.0,Insight Strategic Partners LLC,View report (https://accesshub.pdc.wa.gov/node/111698),,,
20158,111698-26338,111698,FE,17688,James P Justin (Government Relations Consulting Inc.),Employer,26338,WA TECHNOLOGY INDUSTRY ASSN (Insight Strategic Partners LLC),23-Dec,1/14/2024,17203,WA TECHNOLOGY INDUSTRY ASSN,2000.0,-1000.0,1000.0,0.0,0.0,0.0,0.0,0.0,0.0,0.0,1000.0,26338,Subcontract,25651.0,Insight Strategic Partners LLC,View report (https://accesshub.pdc.wa.gov/node/111698),,,
20159,111698-36764,111698,FE,17688,James P Justin (Government Relations Consulting Inc.),Employer,36764,COLLEGE SUCCESS FOUNDATION,23-Dec,1/14/2024,17104,COLLEGE SUCCESS FOUNDATION,2000.0,-500.0,1500.0,0.0,0.0,0.0,0.0,0.0,0.0,0.0,1500.0,36764,Direct,,,View report (https://accesshub.pdc.wa.gov/node/111698),Higher education,Access to College and Supports,"Governor's Office, OFM and OSPI Education leads in the Legislature as well as Budget Writers"
20160,111698-57532,111698,FE,17688,James P Justin (Government Relations Consulting Inc.),Employer,57532,Parametrix,23-Dec,1/14/2024,29803,Parametrix,5500.0,-1000.0,4500.0,0.0,0.0,0.0,0.0,0.0,0.0,0.0,4500.0,57532,Direct,,,View report (https://accesshub.pdc.wa.gov/node/111698),Transportation,Implementation of Transportation Budget & Associated Projects,"Governor's Office, DOT and Legislators serving on the Transportation Committees"
20161,111698-61437,111698,FE,17688,James P Justin (Government Relations Consulting Inc.),Employer,61437,BOEING EMPLOYEES CREDIT UNION,23-Dec,1/14/2024,16200,BOEING EMPLOYEES CREDIT UNION,2000.0,-1000.0,1000.0,0.0,0.0,0.0,0.0,0.0,0.0,0.0,1000.0,61437,Direct,,,View report (https://accesshub.pdc.wa.gov/node/111698),Financial institutions and insurance,Tax issues for Financial Institutions,OFM
20162,111698-71857,111698,FE,17688,James P Justin (Government Relations Consulting Inc.),Employer,71857,"DoorDash, Inc (Insight Strategic Partners LLC)",23-Dec,1/14/2024,70327,"DoorDash, Inc",2500.0,-1000.0,1500.0,0.0,0.0,0.0,0.0,0.0,0.0,0.0,1500.0,71857,Subcontract,25651.0,Insight Strategic Partners LLC,View report (https://accesshub.pdc.wa.gov/node/111698),,,
20163,111698-73551,111698,FE,17688,James P Justin (Government Relations Consulting Inc.),Employer,73551,Google LLC and its Affiliates,23-Dec,1/14/2024,16475,Google LLC and its Affiliates,3200.0,-1000.0,2200.0,0.0,0.0,0.0,0.0,0.0,0.0,0.0,2200.0,73551,Direct,,,View report (https://accesshub.pdc.wa.gov/node/111698),Technology,Artificial Intelligence Proposals,"House Innovation Committee Members, Senate Tech Committee and Governor's Office"
20164,111698-81695,111698,FE,17688,James P Justin (Government Relations Consulting Inc.),Employer,81695,Cypress Creek Renewables,23-Dec,1/14/2024,42906,Cypress Creek Renewables,4000.0,-500.0,3500.0,0.0,0.0,0.0,0.0,0.0,0.0,0.0,3500.0,81695,Direct,,,View report (https://accesshub.pdc.wa.gov/node/111698),Energy and utilities,Bills Impacting Solar Projects Siting,"Governor's Office, DOR & Reps serving on the Energy and Environment Committees"
20165,111698-90654,111698,FE,17688,James P Justin (Government Relations Consulting Inc.),Employer,90654,EarthGen ,23-Dec,1/14/2024,47838,EarthGen ,1500.0,-500.0,1000.0,0.0,0.0,0.0,0.0,0.0,0.0,0.0,1000.0,90654,Direct,,,View report (https://accesshub.pdc.wa.gov/node/111698),,,
20166,111698-92105,111698,FE,17688,James P Justin (Government Relations Consulting Inc.),Employer,92105,PARTNERSHIP FOR LEARNING,23-Dec,1/14/2024,16765,PARTNERSHIP FOR LEARNING,2250.0,-250.0,2000.0,0.0,0.0,0.0,0.0,0.0,0.0,0.0,2000.0,92105,Direct,,,View report (https://accesshub.pdc.wa.gov/node/111698),Higher education,Operating Budget,"OFM, WSAC, Governor's Office, Legislative Budget Writers and Education Leads"
20167,111698-92440,111698,FE,17688,James P Justin (Government Relations Consulting Inc.),Employer,92440,Fred Hutchinson Cancer Center,23-Dec,1/14/2024,91771,Fred Hutchinson Cancer Center,2875.0,0.0,2875.0,0.0,0.0,0.0,0.0,0.0,0.0,0.0,2875.0,92440,Direct,,,View report (https://accesshub.pdc.wa.gov/node/111698),Health Care,Fiscal Health of Hospitals and Cancer Treatment,"OFM & Governor's Office, House & Senate Health Committee Members"
20168,111698-98163,111698,FE,17688,James P Justin (Government Relations Consulting Inc.),Employer,98163,WA ECONOMIC DEVELOPMENT ASSN,23-Dec,1/14/2024,17102,WA ECONOMIC DEVELOPMENT ASSN,2000.0,0.0,2000.0,0.0,0.0,0.0,0.0,0.0,0.0,0.0,2000.0,98163,Direct,,,View report (https://accesshub.pdc.wa.gov/node/111698),State government,Economic Development Programs,OFM & the Governor's Office as well as House Innovation Committee Members
20169,111698-102005,111698,FE,17688,James P Justin (Government Relations Consulting Inc.),Employer,102005,Path with Art,23-Dec,1/14/2024,102004,Path with Art,1500.0,0.0,1500.0,0.0,0.0,0.0,0.0,0.0,0.0,0.0,1500.0,102005,Direct,,,View report (https://accesshub.pdc.wa.gov/node/111698),State government,Operating Budget,"OFM & the Art's Commission Staff, Senate Early Learning and K-12"
20170,111698-103408,111698,FE,17688,James P Justin (Government Relations Consulting Inc.),Employer,103408,Sagitec Solutions LLC,23-Dec,1/14/2024,103399,Sagitec Solutions LLC,1000.0,0.0,1000.0,0.0,0.0,0.0,0.0,0.0,0.0,0.0,1000.0,103408,Direct,,,View report (https://accesshub.pdc.wa.gov/node/111698),State government,State Government Procurement,DRS
20171,111698-111345,111698,FE,17688,James P Justin (Government Relations Consulting Inc.),Employer,111345,Teaching Strategies,23-Dec,1/14/2024,111338,Teaching Strategies,2500.0,0.0,2500.0,0.0,0.0,0.0,0.0,0.0,0.0,0.0,2500.0,111345,Direct,,,View report (https://accesshub.pdc.wa.gov/node/111698),Education,Financing of Education Programs including Early Learning,OSPI and DCYF
20172,111698-111672,111698,FE,17688,James P Justin (Government Relations Consulting Inc.),Employer,111672,Payactiv,23-Dec,1/14/2024,111671,Payactiv,2000.0,0.0,2000.0,0.0,0.0,0.0,0.0,0.0,0.0,0.0,2000.0,111672,Direct,,,View report (https://accesshub.pdc.wa.gov/node/111698),Business and consumer affairs,Financial Services,"House Consumer Protection and Business, Senate Business Financial Services, Gaming and Trade & Dept of Financial Institutions"
20173,111824-58489,111824,FE,58479,Coaxis Public Affairs ,Employer,58489,Maverick Gaming LLC,23-Dec,1/14/2024,58487,Maverick Gaming LLC,15125.0,-15125.0,0.0,0.0,0.0,0.0,0.0,0.0,0.0,0.0,0.0,58489,Direct,,,View report (https://accesshub.pdc.wa.gov/node/111824),Business and consumer affairs,various,various
20174,111808-19719,111808,FE,18003,ERIK STROM,Employer,19719,RUSSELL INVESTMENT GROUP,23-Dec,1/14/2024,16456,RUSSELL INVESTMENT GROUP,5000.0,0.0,5000.0,0.0,0.0,0.0,0.0,0.0,0.0,0.0,5000.0,19719,Direct,,,View report (https://accesshub.pdc.wa.gov/node/111808),State government,various,various
20175,112242-19639,112242,FE,17974,MELANIE J SMITH,Employer,19639,COMMITTEE FOR CHILDREN,23-Dec,1/14/2024,16347,COMMITTEE FOR CHILDREN,3200.0,0.0,3200.0,0.0,0.0,0.0,0.0,0.0,0.0,0.0,3200.0,19639,Direct,,,View report (https://accesshub.pdc.wa.gov/node/112242),Education,education,education / social emotional learning
20176,112242-25635,112242,FE,17974,MELANIE J SMITH,Employer,25635,MULTI-SERVICE CENTER LONG TERM CARE OMBUDSMAN PROGRAM,23-Dec,1/14/2024,16932,MULTI-SERVICE CENTER LONG TERM CARE OMBUDSMAN PROGRAM,3000.0,0.0,3000.0,0.0,0.0,0.0,0.0,0.0,0.0,0.0,3000.0,25635,Direct,,,View report (https://accesshub.pdc.wa.gov/node/112242),Health Care,long term care,healthcare
20177,112242-60575,112242,FE,17974,MELANIE J SMITH,Employer,60575,WA ST PSYCHOLOGICAL ASSN,23-Dec,1/14/2024,17269,WA ST PSYCHOLOGICAL ASSN,3200.0,0.0,3200.0,0.0,0.0,0.0,0.0,0.0,0.0,0.0,3200.0,60575,Direct,,,View report (https://accesshub.pdc.wa.gov/node/112242),Health Care,healthcare,healthcare
20178,112242-74682,112242,FE,17974,MELANIE J SMITH,Employer,74682,Seattle/King County Coalition on Homelessness,23-Dec,1/14/2024,74671,Seattle/King County Coalition on Homelessness,1600.0,0.0,1600.0,0.0,0.0,0.0,0.0,0.0,0.0,0.0,1600.0,74682,Direct,,,View report (https://accesshub.pdc.wa.gov/node/112242),,,
20179,112242-76546,112242,FE,17974,MELANIE J SMITH,Employer,76546,Cascade AIDS Project,23-Dec,1/14/2024,76460,Cascade AIDS Project,1000.0,0.0,1000.0,0.0,0.0,0.0,0.0,0.0,0.0,0.0,1000.0,76546,Direct,,,View report (https://accesshub.pdc.wa.gov/node/112242),Health Care,HIV,healthcare
20180,112242-79980,112242,FE,17974,MELANIE J SMITH,Employer,79980,ALZHEIMERS ASSN WA ST CHAPTER,23-Dec,1/14/2024,16086,ALZHEIMERS ASSN WA ST CHAPTER,1400.0,0.0,1400.0,0.0,0.0,0.0,0.0,0.0,0.0,0.0,1400.0,79980,Direct,,,View report (https://accesshub.pdc.wa.gov/node/112242),Health Care,alzheimers,healthcare
20181,112242-83916,112242,FE,17974,MELANIE J SMITH,Employer,83916,Wonderland Child & Family Services,23-Dec,1/14/2024,83795,Wonderland Child & Family Services,2000.0,0.0,2000.0,0.0,0.0,0.0,0.0,0.0,0.0,0.0,2000.0,83916,Direct,,,View report (https://accesshub.pdc.wa.gov/node/112242),Health Care,healthcare,healthcare /
20182,112242-96768,112242,FE,17974,MELANIE J SMITH,Employer,96768,Coalition of ACHs,23-Dec,1/14/2024,96736,Coalition of ACHs,1000.0,0.0,1000.0,0.0,0.0,0.0,0.0,0.0,0.0,0.0,1000.0,96768,Direct,,,View report (https://accesshub.pdc.wa.gov/node/112242),Fiscal,healthcare /budget,healthcare / Finance / budget
20183,112215-110925,112215,FE,110923,James Riley Benge,Employer,110925,WA ASSN OF REALTORS,23-Dec,1/14/2024,17059,WA ASSN OF REALTORS,4000.0,0.0,4000.0,0.0,0.0,0.0,0.0,0.0,0.0,0.0,4000.0,110925,Direct,,,View report (https://accesshub.pdc.wa.gov/node/112215),Business and consumer affairs,Housing & Real Estate,"Senate & House Housing Committees, Senate Business, Financial Services and Trade Committee, and DFI"
20184,112243-98258,112243,FE,98257,Emily (Em) Stone,Employer,98258,WA ST COALITION  AGAINST DOMESTIC VIOLENCE,23-Dec,1/14/2024,17227,WA ST COALITION  AGAINST DOMESTIC VIOLENCE,1080.0,0.0,1080.0,625.65,0.0,0.0,0.0,0.0,0.0,625.65,1705.65,98258,Direct,,,View report (https://accesshub.pdc.wa.gov/node/112243),,,
20185,111811-18515,111811,FE,17472,AHNE PLLC*,Employer,18515,CGI TECHNOLOGIES & SOLUTIONS INC,23-Dec,1/14/2024,16250,CGI TECHNOLOGIES & SOLUTIONS INC,5000.0,0.0,5000.0,0.0,0.0,0.0,0.0,0.0,0.0,0.0,5000.0,18515,Direct,,,View report (https://accesshub.pdc.wa.gov/node/111811),Technology,various,various
20186,111811-18516,111811,FE,17472,AHNE PLLC*,Employer,18516,OVERTON & ASSOC,23-Dec,1/14/2024,16744,OVERTON & ASSOC,2500.0,0.0,2500.0,0.0,0.0,0.0,0.0,0.0,0.0,0.0,2500.0,18516,Direct,,,View report (https://accesshub.pdc.wa.gov/node/111811),Environmental Affairs - natural resources - parks,various,various
20187,111811-19935,111811,FE,17472,AHNE PLLC*,Employer,19935,PORT GAMBLE S'KLALLAM TRIBE (DAVOR GJURASIC),23-Dec,1/14/2024,16799,PORT GAMBLE S'KLALLAM TRIBE,3333.33,0.0,3333.33,0.0,0.0,0.0,0.0,0.0,0.0,0.0,3333.33,19935,Subcontract,17575.0,DAVOR GJURASIC,View report (https://accesshub.pdc.wa.gov/node/111811),,,
20188,111811-94172,111811,FE,17472,AHNE PLLC*,Employer,94172,SPOKANE TRIBE OF INDIANS (MICHAEL TEMPLE),23-Dec,1/14/2024,16944,SPOKANE TRIBE OF INDIANS,2500.0,0.0,2500.0,0.0,0.0,0.0,0.0,0.0,0.0,0.0,2500.0,94172,Subcontract,18019.0,MICHAEL TEMPLE,View report (https://accesshub.pdc.wa.gov/node/111811),,,
20189,112236-18158,112236,FE,17342,DAVID C ARBAUGH,Employer,18158,CHELAN CO PUBLIC UTILITY DIST #1,23-Dec,1/14/2024,16254,CHELAN CO PUBLIC UTILITY DIST #1,10447.5,-1000.0,9447.5,0.0,0.0,0.0,0.0,0.0,0.0,0.0,9447.5,18158,Direct,,,View report (https://accesshub.pdc.wa.gov/node/112236),Energy and utilities,Energy and Water,EWE
20190,112236-18159,112236,FE,17342,DAVID C ARBAUGH,Employer,18159,CITY OF RICHLAND,23-Dec,1/14/2024,16308,CITY OF RICHLAND,3500.0,0.0,3500.0,0.0,0.0,0.0,0.0,0.0,0.0,0.0,3500.0,18159,Direct,,,View report (https://accesshub.pdc.wa.gov/node/112236),Local government,Local Government,Government Operations Local
20191,112236-48559,112236,FE,17342,DAVID C ARBAUGH,Employer,48559,ENERGY NORTHWEST,23-Dec,1/14/2024,17173,ENERGY NORTHWEST,11000.0,-1000.0,10000.0,0.0,0.0,0.0,0.0,0.0,0.0,0.0,10000.0,48559,Direct,,,View report (https://accesshub.pdc.wa.gov/node/112236),Environmental Affairs - natural resources - parks,Environment,Senate/House Environment and Energy Committees
20192,112236-53945,112236,FE,17342,DAVID C ARBAUGH,Employer,53945,Sierra Pacific Industries,23-Dec,1/14/2024,16916,Sierra Pacific Industries,3000.0,0.0,3000.0,0.0,0.0,0.0,0.0,0.0,0.0,0.0,3000.0,53945,Direct,,,View report (https://accesshub.pdc.wa.gov/node/112236),Fiscal,Natural Resource - Timber Issues; Tax Policy,"Environment & Energy; Finance; Appropriations; Labor & Workplace Standards; Rural Development, Agriculture & Natural Resources; Agriculture, Water, Natural Resources & Parks; Environment, Energy & Technology; Labor & Commerce; Ways & Means."
20193,112236-73112,112236,FE,17342,DAVID C ARBAUGH,Employer,73112,Mason County PUD No. 3,23-Dec,1/14/2024,73063,Mason County PUD No. 3,4000.0,-500.0,3500.0,0.0,0.0,0.0,0.0,0.0,0.0,0.0,3500.0,73112,Direct,,,View report (https://accesshub.pdc.wa.gov/node/112236),Environmental Affairs - natural resources - parks,Environmental,Environmental Committees
20194,112236-98781,112236,FE,17342,DAVID C ARBAUGH,Employer,98781,Renewable Hydrogen Alliance,23-Dec,1/14/2024,52076,Renewable Hydrogen Alliance,4000.0,-500.0,3500.0,0.0,0.0,0.0,0.0,0.0,0.0,0.0,3500.0,98781,Direct,,,View report (https://accesshub.pdc.wa.gov/node/112236),,,
20195,112236-100543,112236,FE,17342,DAVID C ARBAUGH,Employer,100543,Elmhurst Mutual Power & Light Company,23-Dec,1/14/2024,100526,Elmhurst Mutual Power & Light Company,500.0,0.0,500.0,0.0,0.0,0.0,0.0,0.0,0.0,0.0,500.0,100543,Direct,,,View report (https://accesshub.pdc.wa.gov/node/112236),Energy and utilities,Energy Policy,"Environment, Energy & Technology, Ways and Means/Appropriations"
20196,112236-103414,112236,FE,17342,DAVID C ARBAUGH,Employer,103414,Ohop Mutual Light Company,23-Dec,1/14/2024,100520,Ohop Mutual Light Company,500.0,0.0,500.0,0.0,0.0,0.0,0.0,0.0,0.0,0.0,500.0,103414,Direct,,,View report (https://accesshub.pdc.wa.gov/node/112236),Energy and utilities,Energy Policy,"Environment, Energy & Technology, Ways and Means/Appropriations"
20197,112236-110505,112236,FE,17342,DAVID C ARBAUGH,Employer,110505,Public Utility Risk Management Services,23-Dec,1/14/2024,110493,Public Utility Risk Management Services,4000.0,0.0,4000.0,0.0,0.0,0.0,0.0,0.0,0.0,0.0,4000.0,110505,Direct,,,View report (https://accesshub.pdc.wa.gov/node/112236),Energy and utilities,Utility wildfire liability issues,"Ag & Natural Resources, Appropriations, Consumer Protection & Business, and Environment & Energy; Ag, Water, Natural Resources & Parks; Business, Financial Services, Gaming & Trade; Environment, Energy & Technology; and Ways & Means"
20198,111810-18329,111810,FE,17416,BETTY BUCKLEY,Employer,18329,WA INDEPENDENT TELECOMMUNICATIONS ASSN,23-Dec,1/14/2024,17138,WA INDEPENDENT TELECOMMUNICATIONS ASSN,500.0,0.0,500.0,0.0,0.0,0.0,0.0,0.0,0.0,0.0,500.0,18329,Direct,,,View report (https://accesshub.pdc.wa.gov/node/111810),Technology,various,various
20199,111807-96793,111807,FE,60449,Desimone Consulting Group,Employer,96793,LIFELONG,23-Dec,1/14/2024,16697,LIFELONG,4000.0,0.0,4000.0,0.0,0.0,0.0,0.0,0.0,0.0,0.0,4000.0,96793,Direct,,,View report (https://accesshub.pdc.wa.gov/node/111807),Health Care,various,various
20200,111807-101019,111807,FE,60449,Desimone Consulting Group,Employer,101019,Washington Independent Physicians Practice Association,23-Dec,1/14/2024,101018,Washington Independent Physicians Practice Association,10000.0,-5000.0,5000.0,0.0,0.0,0.0,0.0,0.0,0.0,0.0,5000.0,101019,Direct,,,View report (https://accesshub.pdc.wa.gov/node/111807),Health Care,various,various
20201,111807-101773,111807,FE,60449,Desimone Consulting Group,Employer,101773,Northwest RiverPartners,23-Dec,1/14/2024,100091,Northwest RiverPartners,3000.0,0.0,3000.0,0.0,0.0,0.0,0.0,0.0,0.0,0.0,3000.0,101773,Direct,,,View report (https://accesshub.pdc.wa.gov/node/111807),Energy and utilities,various,various
20202,111807-102977,111807,FE,60449,Desimone Consulting Group,Employer,102977,NW Rare Disease Coalition,23-Dec,1/14/2024,101767,NW Rare Disease Coalition,5000.0,0.0,5000.0,0.0,0.0,0.0,0.0,0.0,0.0,0.0,5000.0,102977,Direct,,,View report (https://accesshub.pdc.wa.gov/node/111807),Health Care,various,various
20203,111807-107002,111807,FE,60449,Desimone Consulting Group,Employer,107002,Seattle Sports Commission,23-Dec,1/14/2024,106998,Seattle Sports Commission,1000.0,0.0,1000.0,0.0,0.0,0.0,0.0,0.0,0.0,0.0,1000.0,107002,Direct,,,View report (https://accesshub.pdc.wa.gov/node/111807),Business and consumer affairs,Tourism,various
20204,112222-19404,112222,FE,17872,OYSTER BAY PUBLIC AFFAIRS*,Employer,19404,VERTEX PHARMACEUTICALS INC,23-Dec,1/14/2024,17033,VERTEX PHARMACEUTICALS INC,4000.0,-650.0,3350.0,0.0,0.0,0.0,0.0,0.0,0.0,0.0,3350.0,19404,Direct,,,View report (https://accesshub.pdc.wa.gov/node/112222),Health Care,Health Care,"Health Care, Budget"
20205,112222-29738,112222,FE,17872,OYSTER BAY PUBLIC AFFAIRS*,Employer,29738,Washington State Public Health Association,23-Dec,1/14/2024,29517,Washington State Public Health Association,2000.0,-650.0,1350.0,0.0,0.0,0.0,0.0,0.0,0.0,0.0,1350.0,29738,Direct,,,View report (https://accesshub.pdc.wa.gov/node/112222),Health Care,"Health Care, Budget","Health Care, Budget"
20206,112222-39142,112222,FE,17872,OYSTER BAY PUBLIC AFFAIRS*,Employer,39142,WA BEER & WINE DISTRIBUTORS ASSN (CIVIC GROUP*),23-Dec,1/14/2024,17067,WA BEER & WINE DISTRIBUTORS ASSN,4000.0,-650.0,3350.0,0.0,0.0,0.0,0.0,0.0,0.0,0.0,3350.0,39142,Subcontract,17450.0,CIVIC GROUP*,View report (https://accesshub.pdc.wa.gov/node/112222),,,
20207,112222-68128,112222,FE,17872,OYSTER BAY PUBLIC AFFAIRS*,Employer,68128,WA ST SOCIETY OF ANESTHESIOLOGISTS,23-Dec,1/14/2024,17283,WA ST SOCIETY OF ANESTHESIOLOGISTS,7000.0,-650.0,6350.0,0.0,0.0,0.0,0.0,0.0,0.0,0.0,6350.0,68128,Direct,,,View report (https://accesshub.pdc.wa.gov/node/112222),Health Care,Health Care,"Health Care, OIC"
20208,112222-73989,112222,FE,17872,OYSTER BAY PUBLIC AFFAIRS*,Employer,73989,ASTRAZENECA PHARMACEUTICALS LP,23-Dec,1/14/2024,17328,ASTRAZENECA PHARMACEUTICALS LP,3750.0,-650.0,3100.0,0.0,0.0,0.0,0.0,0.0,0.0,0.0,3100.0,73989,Direct,,,View report (https://accesshub.pdc.wa.gov/node/112222),Health Care,Health Care,"Health Care, Budget"
20209,112222-86164,112222,FE,17872,OYSTER BAY PUBLIC AFFAIRS*,Employer,86164,"JOHNSON & JOHNSON SERVICES, INC.",23-Dec,1/14/2024,16562,"JOHNSON & JOHNSON SERVICES, INC.",4166.67,-650.0,3516.67,0.0,0.0,0.0,0.0,0.0,0.0,0.0,3516.67,86164,Direct,,,View report (https://accesshub.pdc.wa.gov/node/112222),Health Care,"Health Care, Environment","Health Care, Fiscal, Environment"
20210,112222-96974,112222,FE,17872,OYSTER BAY PUBLIC AFFAIRS*,Employer,96974,WA ST MEDICAL ASSN,23-Dec,1/14/2024,17261,WA ST MEDICAL ASSN,6000.0,0.0,6000.0,0.0,0.0,0.0,0.0,0.0,0.0,0.0,6000.0,96974,Direct,,,View report (https://accesshub.pdc.wa.gov/node/112222),Health Care,Health Care,Health Care
20211,112222-106294,112222,FE,17872,OYSTER BAY PUBLIC AFFAIRS*,Employer,106294,Novocure,23-Dec,1/14/2024,106293,Novocure,6000.0,0.0,6000.0,0.0,0.0,0.0,0.0,0.0,0.0,0.0,6000.0,106294,Direct,,,View report (https://accesshub.pdc.wa.gov/node/112222),Health Care,"Health Care, Budget","Health Care, Budget"
20212,112222-109605,112222,FE,17872,OYSTER BAY PUBLIC AFFAIRS*,Employer,109605,"Moderna, Inc.",23-Dec,1/14/2024,109558,"Moderna, Inc.",5000.0,-650.0,4350.0,0.0,0.0,0.0,0.0,0.0,0.0,0.0,4350.0,109605,Direct,,,View report (https://accesshub.pdc.wa.gov/node/112222),Health Care,"Health Care, Budget","Health Care, Budget"
20225,112244-18155,112244,FE,17340,LIZ ANDERSON,Employer,18155,WA PUBLIC UTILITIES DISTS ASSN,23-Dec,1/14/2024,17176,WA PUBLIC UTILITIES DISTS ASSN,300.0,0.0,300.0,0.0,0.0,0.0,0.0,0.0,0.0,0.0,300.0,18155,Direct,,,View report (https://accesshub.pdc.wa.gov/node/112244),Energy and utilities,"Foster decision legislation, low income provision in CETA, culvert repair utility relocates, broadband funding","Reps. Ybarra, Street, & Chapman"
20266,112254-18958,112254,FE,17630,Matthew A Hepner,Employer,18958,CERTIFIED ELECTRICAL WORKERS OF WA,23-Dec,1/14/2024,16249,CERTIFIED ELECTRICAL WORKERS OF WA,11041.6,0.0,11041.6,0.0,0.0,0.0,0.0,0.0,0.0,0.0,11041.6,18958,Direct,,,View report (https://accesshub.pdc.wa.gov/node/112254),Labor,"Public Safety, Prevailing Wage, Worker Comp, UI, Safety and Health,Transportation, Sick Leave, Wage and Hour, Environmental, Capital Budget, COVID-19","L&I, ESD,DOT, Attorney General's Office,Senate Labor & Commerce,Senate Transportation,Senate Ways and Means,House Labor and Workplace Standards,House Appropriations,House Transportation,House Capital Bud"
20267,112255-19636,112255,FE,17972,GLEN R SMITH,Employer,19636,WA ST GROUND WATER ASSN,23-Dec,1/14/2024,17240,WA ST GROUND WATER ASSN,2200.0,0.0,2200.0,282.51,0.0,0.0,0.0,0.0,0.0,282.51,2482.51,19636,Direct,,,View report (https://accesshub.pdc.wa.gov/node/112255),Environmental Affairs - natural resources - parks,Out of session. No specific legislative bills to report.,Out of session. Not applicable.
20268,112246-38147,112246,FE,38146,RNJ Strategies,Employer,38147,WA ST ASSN FOR JUSTICE,23-Dec,1/14/2024,17289,WA ST ASSN FOR JUSTICE,12500.0,0.0,12500.0,0.0,0.0,0.0,0.0,0.0,0.0,0.0,12500.0,38147,Direct,,,View report (https://accesshub.pdc.wa.gov/node/112246),Law and justice,Law and Justice,All House Senate
20269,112246-38845,112246,FE,38146,RNJ Strategies,Employer,38845,Alliance for Gun Responsibility,23-Dec,1/14/2024,16083,Alliance for Gun Responsibility,13800.0,0.0,13800.0,0.0,0.0,0.0,0.0,0.0,0.0,0.0,13800.0,38845,Direct,,,View report (https://accesshub.pdc.wa.gov/node/112246),Law and justice,Gun Responsibility,All House Senate
20270,112246-39052,112246,FE,38146,RNJ Strategies,Employer,39052,CITY OF SEATTLE,23-Dec,1/14/2024,16311,CITY OF SEATTLE,6650.0,0.0,6650.0,0.0,0.0,0.0,0.0,0.0,0.0,0.0,6650.0,39052,Direct,,,View report (https://accesshub.pdc.wa.gov/node/112246),Transportation,Transportation,All House Senate
20271,112246-40398,112246,FE,38146,RNJ Strategies,Employer,40398,UNITED FOOD & COMM WRKRS # 3000,23-Dec,1/14/2024,17005,UNITED FOOD & COMM WRKRS # 3000,5000.0,0.0,5000.0,0.0,0.0,0.0,0.0,0.0,0.0,0.0,5000.0,40398,Direct,,,View report (https://accesshub.pdc.wa.gov/node/112246),Labor,Labor,All House Senate
20272,112246-56719,112246,FE,38146,RNJ Strategies,Employer,56719,KING CO SEXUAL ASSAULT RESOURCE CENTER,23-Dec,1/14/2024,16578,KING CO SEXUAL ASSAULT RESOURCE CENTER,4000.0,0.0,4000.0,0.0,0.0,0.0,0.0,0.0,0.0,0.0,4000.0,56719,Direct,,,View report (https://accesshub.pdc.wa.gov/node/112246),Law and justice,Law and Justice,All House Senate
20273,112246-72995,112246,FE,38146,RNJ Strategies,Employer,72995,PUBLIC SCHOOL EMPLOYEES OF WA,23-Dec,1/14/2024,16824,PUBLIC SCHOOL EMPLOYEES OF WA,3500.0,0.0,3500.0,0.0,0.0,0.0,0.0,0.0,0.0,0.0,3500.0,72995,Direct,,,View report (https://accesshub.pdc.wa.gov/node/112246),,,
20274,112246-80843,112246,FE,38146,RNJ Strategies,Employer,80843,Intl Assn of Machinists & Aerospace Workers Dist Lodge 751,23-Dec,1/14/2024,16072,Intl Assn of Machinists & Aerospace Workers Dist Lodge 751,10125.0,0.0,10125.0,0.0,0.0,0.0,0.0,0.0,0.0,0.0,10125.0,80843,Direct,,,View report (https://accesshub.pdc.wa.gov/node/112246),Labor,Labor,All House Senate
20275,112246-95970,112246,FE,38146,RNJ Strategies,Employer,95970,AFT Washington,23-Dec,1/14/2024,17122,AFT Washington,10500.0,0.0,10500.0,0.0,0.0,0.0,0.0,0.0,0.0,0.0,10500.0,95970,Direct,,,View report (https://accesshub.pdc.wa.gov/node/112246),,,
20276,112246-97395,112246,FE,38146,RNJ Strategies,Employer,97395,Anti-Defamation League (ADL) Pacific Northwest Office,23-Dec,1/14/2024,97394,Anti-Defamation League (ADL) Pacific Northwest Office,6000.0,0.0,6000.0,0.0,0.0,0.0,0.0,0.0,0.0,0.0,6000.0,97395,Direct,,,View report (https://accesshub.pdc.wa.gov/node/112246),,,
20277,112247-18342,112247,FE,17427,Sheri Call,Employer,18342,WA TRUCKING ASSN,23-Dec,1/14/2024,17199,WA TRUCKING ASSN,1666.67,0.0,1666.67,0.0,0.0,0.0,0.0,0.0,0.0,0.0,1666.67,18342,Direct,,,View report (https://accesshub.pdc.wa.gov/node/112247),Transportation,HB 2077,House Transportation Committee
20278,112249-93162,112249,FE,17483,Thomas M Davis,Employer,93162,WA FOREST PROTECTION ASSN,23-Dec,1/14/2024,17120,WA FOREST PROTECTION ASSN,4000.0,0.0,4000.0,0.0,0.0,1800.0,0.0,0.0,0.0,1800.0,5800.0,93162,Direct,,,View report (https://accesshub.pdc.wa.gov/node/112249),Environmental Affairs - natural resources - parks,various,various
20279,112250-18983,112250,FE,17654,Trent M House,Employer,18983,AEROSPACE FUTURES ALLIANCE OF WASHINGTON LTD,23-Dec,1/14/2024,16071,AEROSPACE FUTURES ALLIANCE OF WASHINGTON LTD,4000.0,0.0,4000.0,0.0,0.0,0.0,0.0,0.0,0.0,0.0,4000.0,18983,Direct,,,View report (https://accesshub.pdc.wa.gov/node/112250),Labor,"Workers Compensation, Taxes",Commerce and Labor Committees
20280,112250-18987,112250,FE,17654,Trent M House,Employer,18987,PORT OF SEATTLE,23-Dec,1/14/2024,16805,PORT OF SEATTLE,7000.0,0.0,7000.0,0.0,0.0,0.0,0.0,0.0,0.0,0.0,7000.0,18987,Direct,,,View report (https://accesshub.pdc.wa.gov/node/112250),Transportation,"Real ID, TNC's, Taxi Cabs, Elections","Transportation Committees, Local Government Committees"
20281,112250-18988,112250,FE,17654,Trent M House,Employer,18988,PROVIDENCE HEALTH & SERVICES- WA,23-Dec,1/14/2024,16821,PROVIDENCE HEALTH & SERVICES- WA,6000.0,0.0,6000.0,0.0,0.0,0.0,0.0,0.0,0.0,0.0,6000.0,18988,Direct,,,View report (https://accesshub.pdc.wa.gov/node/112250),Health Care,Dental Residencies,Health Care Committee
20282,112250-39392,112250,FE,17654,Trent M House,Employer,39392,WA BANKERS ASSN,23-Dec,1/14/2024,17061,WA BANKERS ASSN,10000.0,0.0,10000.0,0.0,0.0,0.0,0.0,0.0,0.0,0.0,10000.0,39392,Direct,,,View report (https://accesshub.pdc.wa.gov/node/112250),Financial institutions and insurance,Banking,"House Finance, Senate Financial Institutions"
20283,112250-48852,112250,FE,17654,Trent M House,Employer,48852,WA Hospitality Assn,23-Dec,1/14/2024,26557,WA Hospitality Assn,5000.0,0.0,5000.0,0.0,0.0,0.0,0.0,0.0,0.0,0.0,5000.0,48852,Direct,,,View report (https://accesshub.pdc.wa.gov/node/112250),Business and consumer affairs,Covid,All House Senate + Gov
20284,112250-50936,112250,FE,17654,Trent M House,Employer,50936,Sodexo,23-Dec,1/14/2024,50903,Sodexo,4500.0,0.0,4500.0,0.0,0.0,0.0,0.0,0.0,0.0,0.0,4500.0,50936,Direct,,,View report (https://accesshub.pdc.wa.gov/node/112250),Business and consumer affairs,Facilities,All House Senate
20285,112250-77950,112250,FE,17654,Trent M House,Employer,77950,American Cleaning Institute,23-Dec,1/14/2024,77949,American Cleaning Institute,3000.0,0.0,3000.0,0.0,0.0,0.0,0.0,0.0,0.0,0.0,3000.0,77950,Direct,,,View report (https://accesshub.pdc.wa.gov/node/112250),,,
20286,112250-83466,112250,FE,17654,Trent M House,Employer,83466,Aerospace Machinists Joint Training Committee,23-Dec,1/14/2024,83460,Aerospace Machinists Joint Training Committee,4500.0,0.0,4500.0,0.0,0.0,0.0,0.0,0.0,0.0,0.0,4500.0,83466,Direct,,,View report (https://accesshub.pdc.wa.gov/node/112250),Transportation,Transportation,All House Senate Transportation
20287,112250-91880,112250,FE,17654,Trent M House,Employer,91880,Sports Betting Alliance,23-Dec,1/14/2024,91879,Sports Betting Alliance,5000.0,0.0,5000.0,0.0,0.0,0.0,0.0,0.0,0.0,0.0,5000.0,91880,Direct,,,View report (https://accesshub.pdc.wa.gov/node/112250),,,
20289,112252-54193,112252,FE,54165,Molecule Team,Employer,54193,Neste US Inc,23-Dec,1/14/2024,54183,Neste US Inc,7500.0,0.0,7500.0,0.0,0.0,0.0,0.0,0.0,0.0,0.0,7500.0,54193,Direct,,,View report (https://accesshub.pdc.wa.gov/node/112252),Energy and utilities,Energy,"House and Senate Energy Committee, House and Senate Transportation Committee"
20290,112253-19796,112253,FE,18037,Michael Transue,Employer,19796,NOVO NORDISK INC,23-Dec,1/14/2024,16726,NOVO NORDISK INC,4500.0,0.0,4500.0,0.0,0.0,0.0,0.0,0.0,0.0,0.0,4500.0,19796,Direct,,,View report (https://accesshub.pdc.wa.gov/node/112253),Health Care,life scienes issues,leg gov doh hca
20291,112253-19799,112253,FE,18037,Michael Transue,Employer,19799,Key Recovery & Life Skills Center,23-Dec,1/14/2024,16886,Key Recovery & Life Skills Center,2000.0,0.0,2000.0,0.0,0.0,0.0,0.0,0.0,0.0,0.0,2000.0,19799,Direct,,,View report (https://accesshub.pdc.wa.gov/node/112253),Health Care,SUD issues,"leg, gov, hca, doh, dbhr"
20292,112253-19800,112253,FE,18037,Michael Transue,Employer,19800,TPCC,23-Dec,1/14/2024,16966,TPCC,3000.0,0.0,3000.0,0.0,0.0,0.0,0.0,0.0,0.0,0.0,3000.0,19800,Direct,,,View report (https://accesshub.pdc.wa.gov/node/112253),Business and consumer affairs,business association issues,leg gov
20293,112253-26877,112253,FE,18037,Michael Transue,Employer,26877,LeMay-America's Car Museum,23-Dec,1/14/2024,26876,LeMay-America's Car Museum,3125.0,0.0,3125.0,0.0,0.0,0.0,0.0,0.0,0.0,0.0,3125.0,26877,Direct,,,View report (https://accesshub.pdc.wa.gov/node/112253),,,
20294,112253-30490,112253,FE,18037,Michael Transue,Employer,30490,Oregon Biosciences Assn,23-Dec,1/14/2024,30489,Oregon Biosciences Assn,2000.0,0.0,2000.0,0.0,0.0,0.0,0.0,0.0,0.0,0.0,2000.0,30490,Direct,,,View report (https://accesshub.pdc.wa.gov/node/112253),Health Care,Health Care,leg gov doh hca
20295,112253-34619,112253,FE,18037,Michael Transue,Employer,34619,MECHANICAL CONTRACTORS ASSN WESTERN WA,23-Dec,1/14/2024,16629,MECHANICAL CONTRACTORS ASSN WESTERN WA,5400.0,0.0,5400.0,0.0,0.0,0.0,0.0,0.0,0.0,0.0,5400.0,34619,Direct,,,View report (https://accesshub.pdc.wa.gov/node/112253),Business and consumer affairs,Construction,"Leg, Gov"
20296,112253-47849,112253,FE,18037,Michael Transue,Employer,47849,FRATERNAL ORDER OF POLICE,23-Dec,1/14/2024,16457,FRATERNAL ORDER OF POLICE,5000.0,0.0,5000.0,0.0,0.0,0.0,0.0,0.0,0.0,0.0,5000.0,47849,Direct,,,View report (https://accesshub.pdc.wa.gov/node/112253),Law and justice,Law and Justice,Law and Justice
20297,112253-51003,112253,FE,18037,Michael Transue,Employer,51003,"Axon Enterprise, Inc.",23-Dec,1/14/2024,16972,"Axon Enterprise, Inc.",5500.0,0.0,5500.0,0.0,0.0,0.0,0.0,0.0,0.0,0.0,5500.0,51003,Direct,,,View report (https://accesshub.pdc.wa.gov/node/112253),Law and justice,Law and Justice,Law and Justice
20298,112253-86408,112253,FE,18037,Michael Transue,Employer,86408,"Connections Health Solutions (thru National Strategies, LLC)",23-Dec,1/14/2024,86407,"Connections Health Solutions (thru National Strategies, LLC)",5525.0,0.0,5525.0,0.0,0.0,0.0,0.0,0.0,0.0,0.0,5525.0,86408,Direct,,,View report (https://accesshub.pdc.wa.gov/node/112253),,,
20299,112253-93808,112253,FE,18037,Michael Transue,Employer,93808,"Drivewyze, Inc. (thru National Strategies, LLC)",23-Dec,1/14/2024,93803,"Drivewyze, Inc. (thru National Strategies, LLC)",5500.0,0.0,5500.0,0.0,0.0,0.0,0.0,0.0,0.0,0.0,5500.0,93808,Direct,,,View report (https://accesshub.pdc.wa.gov/node/112253),Transportation,Transportation and Tech,All House Senate Transportation
20300,112253-97436,112253,FE,18037,Michael Transue,Employer,97436,CITY OF FIFE,23-Dec,1/14/2024,16283,CITY OF FIFE,4400.0,0.0,4400.0,0.0,0.0,0.0,0.0,0.0,0.0,0.0,4400.0,97436,Direct,,,View report (https://accesshub.pdc.wa.gov/node/112253),Local government,Local Gov't Committees,Local Gov't Committees
20301,112253-107052,112253,FE,18037,Michael Transue,Employer,107052,NAMI WA,23-Dec,1/14/2024,16654,NAMI WA,2916.0,0.0,2916.0,0.0,0.0,0.0,0.0,0.0,0.0,0.0,2916.0,107052,Direct,,,View report (https://accesshub.pdc.wa.gov/node/112253),,,
20302,112259-19919,112259,FE,18108,JENNIFER ZIEGLER,Employer,19919,HNTB CORP,23-Dec,1/14/2024,16507,HNTB CORP,4000.0,0.0,4000.0,0.0,0.0,0.0,0.0,0.0,0.0,0.0,4000.0,19919,Direct,,,View report (https://accesshub.pdc.wa.gov/node/112259),Fiscal,Transportation Funding,Transportation Committee
20303,112259-19931,112259,FE,18108,JENNIFER ZIEGLER,Employer,19931,LES SCHWAB TIRE CENTERS (PATRICK DUNN & ASSOCIATES LTD*),23-Dec,1/14/2024,16596,LES SCHWAB TIRE CENTERS,250.0,0.0,250.0,0.0,0.0,0.0,0.0,0.0,0.0,0.0,250.0,19931,Subcontract,17505.0,PATRICK DUNN & ASSOCIATES LTD*,View report (https://accesshub.pdc.wa.gov/node/112259),,,
20304,112259-19938,112259,FE,18108,JENNIFER ZIEGLER,Employer,19938,Sanitary Service Co (PATRICK DUNN & ASSOCIATES LTD*),23-Dec,1/14/2024,16872,Sanitary Service Co,250.0,0.0,250.0,0.0,0.0,1200.0,0.0,0.0,0.0,1200.0,1450.0,19938,Subcontract,17505.0,PATRICK DUNN & ASSOCIATES LTD*,View report (https://accesshub.pdc.wa.gov/node/112259),,,
20305,112259-19999,112259,FE,18108,JENNIFER ZIEGLER,Employer,19999,BENTON RURAL ELECTRIC ASSN (PATRICK DUNN & ASSOCIATES LTD*),23-Dec,1/14/2024,16189,BENTON RURAL ELECTRIC ASSN,250.0,0.0,250.0,0.0,0.0,0.0,0.0,0.0,0.0,0.0,250.0,19999,Subcontract,17505.0,PATRICK DUNN & ASSOCIATES LTD*,View report (https://accesshub.pdc.wa.gov/node/112259),,,
20306,112258-18131,112258,FE,17336,ALLIANCES NORTHWEST*,Employer,18131,AMAZON.COM SERVICES LLC,23-Dec,1/14/2024,16088,AMAZON.COM SERVICES LLC,17916.66,0.0,17916.66,0.0,0.0,0.0,0.0,0.0,0.0,0.0,17916.66,18131,Direct,,,View report (https://accesshub.pdc.wa.gov/node/112258),Technology,"All matters relating to business, commercial development, the environment, internet, insurance, finance, retail, tax and transportation issues.","All committees of the Legislature, the Executive, CTED, DOE, DOH, DOR, DFI, DOT, DSHS, DNR, GA, the and the Secretary of State."
20307,112258-18132,112258,FE,17336,ALLIANCES NORTHWEST*,Employer,18132,BP AMERICA INC,23-Dec,1/14/2024,16139,BP AMERICA INC,11000.0,0.0,11000.0,42.58,0.0,0.0,0.0,0.0,0.0,42.58,11042.58,18132,Direct,,,View report (https://accesshub.pdc.wa.gov/node/112258),Business and consumer affairs,"All matters relating to business, commercial development, the environment, energy, Hanford, health care, insurance, finance, retail, tax and transportation issues.","All committees of the Legislature, the Executive, DOE, DOH, DOR, DFI, DOT, DSHS, DNR, GA, the Insurance Commissioner, the Treasurer, and the Secretary of State."
20308,112258-18133,112258,FE,17336,ALLIANCES NORTHWEST*,Employer,18133,Delta Air Lines,23-Dec,1/14/2024,16385,Delta Air Lines,5000.0,0.0,5000.0,42.58,0.0,0.0,0.0,0.0,0.0,42.58,5042.58,18133,Direct,,,View report (https://accesshub.pdc.wa.gov/node/112258),Transportation,"All matters relating to business, commercial development, the environment, energy, health care, insurance, finance, retail, tax and transportation issues.","All committees of the Legislature, the E"
20309,112258-18134,112258,FE,17336,ALLIANCES NORTHWEST*,Employer,18134,NINTENDO OF AMERICA,23-Dec,1/14/2024,16686,NINTENDO OF AMERICA,6500.0,0.0,6500.0,42.58,0.0,0.0,0.0,0.0,0.0,42.58,6542.58,18134,Direct,,,View report (https://accesshub.pdc.wa.gov/node/112258),Technology,"All matters relating to business, commercial development, the environment, health care, insurance, finance, technology, retail, tax and transportation issues.","All committees of the Legislature, the Executive, CTED, DOE, DOH, DOR, DFI, DOT, DSHS, DNR, GA, L&I, and the Secretary of State."
20310,112258-18135,112258,FE,17336,ALLIANCES NORTHWEST*,Employer,18135,PUGET SOUND ENERGY INC,23-Dec,1/14/2024,16828,PUGET SOUND ENERGY INC,10000.0,0.0,10000.0,0.0,0.0,0.0,0.0,0.0,0.0,0.0,10000.0,18135,Direct,,,View report (https://accesshub.pdc.wa.gov/node/112258),Energy and utilities,"All matters relating to business, commercial development, the environment, energy, Hanford, insurance, finance, local government, retail, tax and transportation issues.","All committees of the Legislature, the Executive, CTED, DOE, DOH, DOR, DFI, DOT, DSHS, DNR, GA, the UTC, the Treasurer, and the Secretary of State."
20311,112258-18137,112258,FE,17336,ALLIANCES NORTHWEST*,Employer,18137,STARBUCKS,23-Dec,1/14/2024,16950,STARBUCKS,7000.0,0.0,7000.0,42.58,0.0,0.0,0.0,0.0,0.0,42.58,7042.58,18137,Direct,,,View report (https://accesshub.pdc.wa.gov/node/112258),Business and consumer affairs,"All matters relating to business, commercial development, the environment, health care, insurance, finance, restaurant, retail, tax and transportation issues.","All committees of the Legislature, the Executive, DOE, DOH, DOR, DOR, DFI, DOT, DSHS, GA, the Insurance Commissioner, the Treasurer, and the Secretary of State."
20312,112258-18139,112258,FE,17336,ALLIANCES NORTHWEST*,Employer,18139,Delta Dental of WA,23-Dec,1/14/2024,17096,Delta Dental of WA,10800.0,0.0,10800.0,42.58,0.0,0.0,0.0,0.0,0.0,42.58,10842.58,18139,Direct,,,View report (https://accesshub.pdc.wa.gov/node/112258),Health Care,"All matters relating to business, the environment, health care, insurance, finance, and tax issues.","All committees of the Legislature, the Executive, DOH, DOR, DFI, DSHS, the Insurance Commissioner, the Treasurer, and the Secretary of State."
20313,112258-26591,112258,FE,17336,ALLIANCES NORTHWEST*,Employer,26591,WA Hospitality Assn,23-Dec,1/14/2024,26557,WA Hospitality Assn,10000.0,0.0,10000.0,42.58,0.0,0.0,0.0,0.0,0.0,42.58,10042.58,26591,Direct,,,View report (https://accesshub.pdc.wa.gov/node/112258),Business and consumer affairs,"All matters relating to business, commercial development, the environment, health care, insurance, finance, restaurant, retail, tax and transportation issues.","All committees of the Legislature, the Executive, DOE, DOH, DOR, DOR, DFI, DOT, DSHS, GA, the Insurance Commissioner, the Treasurer, and the Secretary of State."
20314,112258-27286,112258,FE,17336,ALLIANCES NORTHWEST*,Employer,27286,VERIZON,23-Dec,1/14/2024,17030,VERIZON,6000.0,0.0,6000.0,42.58,0.0,0.0,0.0,0.0,0.0,42.58,6042.58,27286,Direct,,,View report (https://accesshub.pdc.wa.gov/node/112258),Technology,"All matters relating to business, commercial development, the environment, energy, Hanford, insurance, finance, local government, retail, tax, telecommunications, and transportation issues.","All committees of the Legislature, the Executive, CTED, DOE, DOH, DOR, DFI, DOT, DSHS, DNR, GA, the UTC, the Treasurer, and the Secretary of State."
20315,112258-38837,112258,FE,17336,ALLIANCES NORTHWEST*,Employer,38837,WA ASSN OF REALTORS,23-Dec,1/14/2024,17059,WA ASSN OF REALTORS,10000.0,0.0,10000.0,42.58,0.0,0.0,0.0,0.0,0.0,42.58,10042.58,38837,Direct,,,View report (https://accesshub.pdc.wa.gov/node/112258),Business and consumer affairs,"All matters relating to financial institutions, business, commercial development, the environment, health care, , housing, insurance, finance, licensing, retail, tax and transportation issues.","All committees of the Legislature, the Executive, DOE, DOH, DOR, DFI, DOL, DOT, DSHS, DNR, GA, the Insurance Commissioner, the Treasurer, and the Secretary of State."
20316,112258-73501,112258,FE,17336,ALLIANCES NORTHWEST*,Employer,73501,"Fiserv, Inc.",23-Dec,1/14/2024,73020,"Fiserv, Inc.",5000.0,0.0,5000.0,42.58,0.0,0.0,0.0,0.0,0.0,42.58,5042.58,73501,Direct,,,View report (https://accesshub.pdc.wa.gov/node/112258),Fiscal,All matters relating to taxation and retail issues.,"All members of the Legislature, the Executive Branch and the Department of Revenue."
20317,112258-76739,112258,FE,17336,ALLIANCES NORTHWEST*,Employer,76739,PHARMACEUTICAL RSRCH/MFG OF AMERICA,23-Dec,1/14/2024,16776,PHARMACEUTICAL RSRCH/MFG OF AMERICA,2727.27,0.0,2727.27,0.0,0.0,0.0,0.0,0.0,0.0,0.0,2727.27,76739,Direct,,,View report (https://accesshub.pdc.wa.gov/node/112258),Health Care,"All matters relating to business, pharmaceutical, the environment, health care, insurance, finance, and tax issues.","All committees of the Legislature, the Executive, DOH, DOR, DFI, DSHS, the Insurance Commissioner, the Treasurer, and the Secretary of State."
20318,112258-78951,112258,FE,17336,ALLIANCES NORTHWEST*,Employer,78951,New York Life Insurance Company,23-Dec,1/14/2024,78906,New York Life Insurance Company,5000.0,0.0,5000.0,42.58,0.0,0.0,0.0,0.0,0.0,42.58,5042.58,78951,Direct,,,View report (https://accesshub.pdc.wa.gov/node/112258),Financial institutions and insurance,"All matters relating to business, health care, insurance, finance, and tax issues.","All committees of the Legislature, the Executive, DOH, DOR, DFI, DSHS, the Insurance Commissioner, the Treasurer, and the Secretary of State."
20319,112258-95272,112258,FE,17336,ALLIANCES NORTHWEST*,Employer,95272,"Trupanion, Inc.",23-Dec,1/14/2024,86389,"Trupanion, Inc.",5000.0,0.0,5000.0,42.58,0.0,0.0,0.0,0.0,0.0,42.58,5042.58,95272,Direct,,,View report (https://accesshub.pdc.wa.gov/node/112258),Financial institutions and insurance,"All matters relating to business, health care, insurance, finance, and tax issues.","All committees of the Legislature, the Executive, DOH, DOR, DFI, DSHS, the Insurance Commissioner, the Treasurer, and the Secretary of State."
20320,112257-19887,112257,FE,18088,White Tudor LLC,Employer,19887,WA ASSN FOR COMMUNITY HEALTH,23-Dec,1/14/2024,17084,WA ASSN FOR COMMUNITY HEALTH,7000.0,0.0,7000.0,0.0,0.0,0.0,0.0,0.0,0.0,0.0,7000.0,19887,Direct,,,View report (https://accesshub.pdc.wa.gov/node/112257),Health Care,"dental, school based health, increasing access to coverage","health, human services, workforce, fiscal, HCA, OIC"
20321,112257-19888,112257,FE,18088,White Tudor LLC,Employer,19888,WA OCCUPATIONAL THERAPY ASSN,23-Dec,1/14/2024,17161,WA OCCUPATIONAL THERAPY ASSN,3000.0,0.0,3000.0,0.0,0.0,0.0,0.0,0.0,0.0,0.0,3000.0,19888,Direct,,,View report (https://accesshub.pdc.wa.gov/node/112257),Health Care,"behavioral health, insurance","health, fiscal committees, HCA"
20322,112257-24893,112257,FE,18088,White Tudor LLC,Employer,24893,WA ASSN OF AREA AGENCIES ON AGING,23-Dec,1/14/2024,17044,WA ASSN OF AREA AGENCIES ON AGING,5500.0,0.0,5500.0,0.0,0.0,0.0,0.0,0.0,0.0,0.0,5500.0,24893,Direct,,,View report (https://accesshub.pdc.wa.gov/node/112257),Health Care,"case management, nutrition, human services","healthcare human services, fiscal, ALTSA"
20323,112257-25642,112257,FE,18088,White Tudor LLC,Employer,25642,CENTER FOR DIAGNOSTIC IMAGING,23-Dec,1/14/2024,16242,CENTER FOR DIAGNOSTIC IMAGING,2500.0,0.0,2500.0,0.0,0.0,0.0,0.0,0.0,0.0,0.0,2500.0,25642,Direct,,,View report (https://accesshub.pdc.wa.gov/node/112257),Health Care,"workforce, licensure, access to care","healthcare fiscal, DOH"
20324,112257-62012,112257,FE,18088,White Tudor LLC,Employer,62012,NATURAL RESOURCES DEFENSE COUNCIL INC. AND ITS AFFILIATES,23-Dec,1/14/2024,16679,NATURAL RESOURCES DEFENSE COUNCIL INC. AND ITS AFFILIATES,1000.0,0.0,1000.0,0.0,0.0,0.0,0.0,0.0,0.0,0.0,1000.0,62012,Direct,,,View report (https://accesshub.pdc.wa.gov/node/112257),Energy and utilities,"climate crisis, refrigerants, gas transition","Energy & environment, fiscal, Ecology"
20325,112257-111603,112257,FE,18088,White Tudor LLC,Employer,111603,PacCLEAN.org,23-Dec,1/14/2024,111024,PacCLEAN.org,5000.0,0.0,5000.0,0.0,0.0,0.0,0.0,0.0,0.0,0.0,5000.0,111603,Direct,,,View report (https://accesshub.pdc.wa.gov/node/112257),Technology,carbon dioxide removal,"fiscal committees, Ecology, Commerce"
20326,112259-28263,112259,FE,18108,JENNIFER ZIEGLER,Employer,28263,School Alliance,23-Dec,1/14/2024,16879,School Alliance,825.0,0.0,825.0,0.0,0.0,0.0,0.0,0.0,0.0,0.0,825.0,28263,Direct,,,View report (https://accesshub.pdc.wa.gov/node/112259),,,
20327,112259-46288,112259,FE,18108,JENNIFER ZIEGLER,Employer,46288,WA ALLIANCE OF BOYS & GIRLS CLUB,23-Dec,1/14/2024,16204,WA ALLIANCE OF BOYS & GIRLS CLUB,5000.0,0.0,5000.0,0.0,0.0,0.0,0.0,0.0,0.0,0.0,5000.0,46288,Direct,,,View report (https://accesshub.pdc.wa.gov/node/112259),Fiscal,Funding,"Fiscal Committees, State Agencies, Governor's Office"
20328,112259-47807,112259,FE,18108,JENNIFER ZIEGLER,Employer,47807,WA ROUNDTABLE,23-Dec,1/14/2024,17178,WA ROUNDTABLE,1500.0,0.0,1500.0,0.0,0.0,0.0,0.0,0.0,0.0,0.0,1500.0,47807,Direct,,,View report (https://accesshub.pdc.wa.gov/node/112259),Transportation,Transportation Funding,Transportation Committees
20329,112256-19636,112256,FE,17972,GLEN R SMITH,Employer,19636,WA ST GROUND WATER ASSN,23-Nov,1/14/2024,17240,WA ST GROUND WATER ASSN,2200.0,0.0,2200.0,0.0,0.0,0.0,0.0,0.0,0.0,0.0,2200.0,19636,Direct,,,View report (https://accesshub.pdc.wa.gov/node/112256),Environmental Affairs - natural resources - parks,Out of session. No specific legislative bills to report.,Out of session. Not applicable.
20330,112259-50740,112259,FE,18108,JENNIFER ZIEGLER,Employer,50740,PUGET SOUND SCHOOL COALITION/KING CO SCHOOL COALITION (THRU K AND L GATES),23-Dec,1/14/2024,16832,PUGET SOUND SCHOOL COALITION/KING CO SCHOOL COALITION (THRU K AND L GATES),2450.0,0.0,2450.0,0.0,0.0,0.0,0.0,0.0,0.0,0.0,2450.0,50740,Direct,,,View report (https://accesshub.pdc.wa.gov/node/112259),,,
20331,112259-53836,112259,FE,18108,JENNIFER ZIEGLER,Employer,53836,"Toyota Motor North America, Inc.",23-Dec,1/14/2024,49816,"Toyota Motor North America, Inc.",5000.0,0.0,5000.0,0.0,0.0,0.0,0.0,0.0,0.0,0.0,5000.0,53836,Direct,,,View report (https://accesshub.pdc.wa.gov/node/112259),Transportation,Transportation Funding,Transportation Committee
