,id,report_number,origin,filer_id,filer_name,type,funding_source_id,funding_source_name,filing_period,receipt_date,employer_id,employer_name,compensation,sub_lobbyist_compensation,net_compensation,personal_expenses,entertainment,contributions,advertising,political_ads,other,total_expenses,net_total,employment_registration_id,employment_type,contractor_id,contractor_name,url,legislation_subject_matter,issue_bill_number,committee_lobbied
110000,92324-73796,92324,FE,67155,FMS Global Strategies,Employer,73796,WA Build Back Black Alliance,22-Apr,6/3/2022,73022.0,WA Build Back Black Alliance,12000.0,0.0,12000.0,0.0,0.0,2000.0,0.0,0.0,0.0,2000.0,14000.0,73796.0,Direct,,,View report (https://accesshub.pdc.wa.gov/node/92324),Business and consumer affairs,Various,Rep. Bergquist
110001,92670-87238,92670,FE,17372,BRUCE K BECKETT,Employer,87238,Port of Olympia,22-May,6/3/2022,74038.0,Port of Olympia,3000.0,0.0,3000.0,0.0,0.0,0.0,0.0,0.0,0.0,0.0,3000.0,87238.0,Direct,,,View report (https://accesshub.pdc.wa.gov/node/92670),State government,Marine Center Bldg; Budd Inlet Cleanup; Capital Lake,22nd District Legislators; House/Senate Natural Resource Committees; Senate Environment Committee
110003,92664-79391,92664,FE,37395,The Arledge Group,Employer,79391,Northwest Regional Council of SMART,22-May,6/3/2022,79368.0,Northwest Regional Council of SMART,11422.6,-2000.0,9422.6,0.0,0.0,0.0,0.0,0.0,0.0,0.0,9422.6,79391.0,Direct,,,View report (https://accesshub.pdc.wa.gov/node/92664),Fiscal,Fiscal,House & Senate All
110004,92672-84326,92672,FE,83766,Resource Public Affairs LLC,Employer,84326,Blue Wolf Capital Partners LLC,22-May,6/3/2022,84299.0,Blue Wolf Capital Partners LLC,10000.0,0.0,10000.0,0.0,0.0,0.0,0.0,0.0,0.0,0.0,10000.0,84326.0,Direct,,,View report (https://accesshub.pdc.wa.gov/node/92672),Energy and utilities,Industrial Restart/Energy,"Governor's Office, WA Commerce, Capital Budget"
110005,92672-85177,92672,FE,83766,Resource Public Affairs LLC,Employer,85177,"Fire Boss, LLC",22-May,6/3/2022,85160.0,"Fire Boss, LLC",2500.0,0.0,2500.0,0.0,0.0,0.0,0.0,0.0,0.0,0.0,2500.0,85177.0,Direct,,,View report (https://accesshub.pdc.wa.gov/node/92672),Environmental Affairs - natural resources - parks,Wildland Fire,"Governor's Office, WA DNR, Wildland Fire Caucus"
110006,92324-91396,92324,FE,67155,FMS Global Strategies,Employer,91396,BTA Holdings LLC,22-Apr,6/3/2022,91395.0,BTA Holdings LLC,4167.0,0.0,4167.0,0.0,0.0,0.0,0.0,0.0,0.0,0.0,4167.0,91396.0,Direct,,,View report (https://accesshub.pdc.wa.gov/node/92324),,,
110007,92697-19857,92697,FE,18071,WA ST NURSES ASSN,Employer,19857,SCHOOL NURSES ORGANIZATION OF WA,22-May,6/4/2022,16882.0,SCHOOL NURSES ORGANIZATION OF WA,500.0,0.0,500.0,0.0,0.0,0.0,0.0,0.0,0.0,0.0,500.0,19857.0,Direct,,,View report (https://accesshub.pdc.wa.gov/node/92697),Health Care,Nursing/Health Care Issues,"Healthcare, Labor, Budget Committees, Dept of Health, Labor and Industries"
110008,92694-50339,92694,FE,50337,Dan Bertolet,Employer,50339,Sightline Institute,22-May,6/4/2022,37788.0,Sightline Institute,558.41,0.0,558.41,0.0,0.0,0.0,0.0,0.0,0.0,0.0,558.41,50339.0,Direct,,,View report (https://accesshub.pdc.wa.gov/node/92694),Environmental Affairs - natural resources - parks,no official bills yet,"Rep Bateman, Inslee staffer John Flanagan"
110009,92657-18983,92657,FE,17654,Trent M House,Employer,18983,AEROSPACE FUTURES ALLIANCE OF WASHINGTON LTD,22-May,6/5/2022,16071.0,AEROSPACE FUTURES ALLIANCE OF WASHINGTON LTD,4000.0,0.0,4000.0,0.0,0.0,0.0,0.0,0.0,0.0,0.0,4000.0,18983.0,Direct,,,View report (https://accesshub.pdc.wa.gov/node/92657),Labor,"Workers Compensation, Taxes",Commerce and Labor Committees
110010,92706-87241,92706,FE,87240,Donald Donovan,Employer,87241,Intl Assn of Machinists & Aerospace Workers Dist Lodge 751,22-May,6/5/2022,16072.0,Intl Assn of Machinists & Aerospace Workers Dist Lodge 751,2000.0,0.0,2000.0,0.0,0.0,0.0,0.0,0.0,0.0,0.0,2000.0,87241.0,Direct,,,View report (https://accesshub.pdc.wa.gov/node/92706),Transportation,Aerospace,All House Senate Transportation / Commerce
110011,92701-35034,92701,FE,18045,Amber Ulvenes,Employer,35034,AMERICAN ACADEMY OF PEDIATRICS-WA CHAPTER,22-May,6/5/2022,16090.0,AMERICAN ACADEMY OF PEDIATRICS-WA CHAPTER,3400.0,0.0,3400.0,0.0,0.0,0.0,0.0,0.0,0.0,0.0,3400.0,35034.0,Direct,,,View report (https://accesshub.pdc.wa.gov/node/92701),Health Care,"Medicaid reimbursement, children's mental health","HCA, Health Care Committees, appropriation committees"
110012,91946-18813,91946,FE,17579,Melissa M Gombosky,Employer,18813,ASSN OF AMERICAN PUBLISHERS,22-May,6/5/2022,16116.0,ASSN OF AMERICAN PUBLISHERS,4000.0,0.0,4000.0,0.0,0.0,0.0,0.0,0.0,0.0,0.0,4000.0,18813.0,Direct,,,View report (https://accesshub.pdc.wa.gov/node/91946),Education,Education Issues,Education Committees
110013,89979-18709,89979,FE,17543,H2 Government Relations,Employer,18709,ASSN OF WA ST PUBLIC FACILITIES DISTS,22-Mar,6/5/2022,16171.0,ASSN OF WA ST PUBLIC FACILITIES DISTS,2000.0,0.0,2000.0,0.0,0.0,0.0,0.0,0.0,0.0,0.0,2000.0,18709.0,Direct,,,View report (https://accesshub.pdc.wa.gov/node/89979),,,
110014,91647-18709,91647,FE,17543,H2 Government Relations,Employer,18709,ASSN OF WA ST PUBLIC FACILITIES DISTS,22-Apr,6/5/2022,16171.0,ASSN OF WA ST PUBLIC FACILITIES DISTS,500.0,0.0,500.0,0.0,0.0,0.0,0.0,0.0,0.0,0.0,500.0,18709.0,Direct,,,View report (https://accesshub.pdc.wa.gov/node/91647),,,
110015,91775-18709,91775,FE,17543,H2 Government Relations,Employer,18709,ASSN OF WA ST PUBLIC FACILITIES DISTS,22-May,6/5/2022,16171.0,ASSN OF WA ST PUBLIC FACILITIES DISTS,500.0,0.0,500.0,0.0,0.0,0.0,0.0,0.0,0.0,0.0,500.0,18709.0,Direct,,,View report (https://accesshub.pdc.wa.gov/node/91775),,,
110016,89451-73534,89451,FE,18008,Eileen Sullivan,Employer,73534,BIOGEN,22-Feb,6/5/2022,16192.0,BIOGEN,6500.0,0.0,6500.0,0.0,0.0,0.0,0.0,0.0,0.0,0.0,6500.0,73534.0,Direct,,,View report (https://accesshub.pdc.wa.gov/node/89451),Health Care,Health Care,Health Care Committees
110017,90737-73534,90737,FE,18008,Eileen Sullivan,Employer,73534,BIOGEN,22-Mar,6/5/2022,16192.0,BIOGEN,6500.0,0.0,6500.0,0.0,0.0,0.0,0.0,0.0,0.0,0.0,6500.0,73534.0,Direct,,,View report (https://accesshub.pdc.wa.gov/node/90737),Health Care,Health Care,Health Care Committees
110018,91649-73534,91649,FE,18008,Eileen Sullivan,Employer,73534,BIOGEN,22-Apr,6/5/2022,16192.0,BIOGEN,6500.0,0.0,6500.0,0.0,0.0,0.0,0.0,0.0,0.0,0.0,6500.0,73534.0,Direct,,,View report (https://accesshub.pdc.wa.gov/node/91649),Health Care,Health Care,Health Care Committees
110019,92705-73534,92705,FE,18008,Eileen Sullivan,Employer,73534,BIOGEN,22-May,6/5/2022,16192.0,BIOGEN,6500.0,0.0,6500.0,0.0,0.0,0.0,0.0,0.0,0.0,0.0,6500.0,73534.0,Direct,,,View report (https://accesshub.pdc.wa.gov/node/92705),Health Care,Health Care,Health Care Committees
110020,92709-18958,92709,FE,17630,Matthew A Hepner,Employer,18958,CERTIFIED ELECTRICAL WORKERS OF WA,22-May,6/5/2022,16249.0,CERTIFIED ELECTRICAL WORKERS OF WA,11041.6,0.0,11041.6,0.0,0.0,0.0,0.0,0.0,0.0,0.0,11041.6,18958.0,Direct,,,View report (https://accesshub.pdc.wa.gov/node/92709),Labor,"Public Safety, Prevailing Wage, Worker Comp, UI, Safety and Health,Transportation, Sick Leave, Wage and Hour, Environmental, Capital Budget, COVID-19","L&I, ESD,DOT, Attorney General's Office,Senate Labor & Commerce,Senate Transportation,Senate Ways and Means,House Labor and Workplace Standards,House Appropriations,House Transportation,House Capital Bud"
110021,89979-75459,89979,FE,17543,H2 Government Relations,Employer,75459,CITY OF FEDERAL WAY,22-Mar,6/5/2022,16282.0,CITY OF FEDERAL WAY,3000.0,0.0,3000.0,0.0,0.0,0.0,0.0,0.0,0.0,0.0,3000.0,75459.0,Direct,,,View report (https://accesshub.pdc.wa.gov/node/89979),Local government,Local Gov't Committees,Local Gov't Committees
110022,91647-75459,91647,FE,17543,H2 Government Relations,Employer,75459,CITY OF FEDERAL WAY,22-Apr,6/5/2022,16282.0,CITY OF FEDERAL WAY,3000.0,0.0,3000.0,0.0,0.0,0.0,0.0,0.0,0.0,0.0,3000.0,75459.0,Direct,,,View report (https://accesshub.pdc.wa.gov/node/91647),Local government,Local Gov't Committees,Local Gov't Committees
110023,91775-75459,91775,FE,17543,H2 Government Relations,Employer,75459,CITY OF FEDERAL WAY,22-May,6/5/2022,16282.0,CITY OF FEDERAL WAY,3000.0,0.0,3000.0,0.0,0.0,0.0,0.0,0.0,0.0,0.0,3000.0,75459.0,Direct,,,View report (https://accesshub.pdc.wa.gov/node/91775),Local government,Local Gov't Committees,Local Gov't Committees
110024,92711-19862,92711,FE,18074,Waypoint Consulting Group,Employer,19862,CITY OF KIRKLAND,22-May,6/5/2022,16289.0,CITY OF KIRKLAND,6000.0,0.0,6000.0,0.0,0.0,0.0,0.0,0.0,0.0,0.0,6000.0,19862.0,Direct,,,View report (https://accesshub.pdc.wa.gov/node/92711),Local government,Local Govt,"Local Govt, State Government, Finance, DOT, Commerce"
110025,89979-18710,89979,FE,17543,H2 Government Relations,Employer,18710,City of Maple Valley,22-Mar,6/5/2022,16300.0,City of Maple Valley,3300.0,0.0,3300.0,0.0,0.0,0.0,0.0,0.0,0.0,0.0,3300.0,18710.0,Direct,,,View report (https://accesshub.pdc.wa.gov/node/89979),Local government,Transportation and Land Use,"H Local Government, S Gov Ops, H Trans, S Trans"
110026,91647-18710,91647,FE,17543,H2 Government Relations,Employer,18710,City of Maple Valley,22-Apr,6/5/2022,16300.0,City of Maple Valley,3300.0,0.0,3300.0,0.0,0.0,0.0,0.0,0.0,0.0,0.0,3300.0,18710.0,Direct,,,View report (https://accesshub.pdc.wa.gov/node/91647),Local government,Transportation and Land Use,"H Local Government, S Gov Ops, H Trans, S Trans"
110027,91775-18710,91775,FE,17543,H2 Government Relations,Employer,18710,City of Maple Valley,22-May,6/5/2022,16300.0,City of Maple Valley,3300.0,0.0,3300.0,0.0,0.0,0.0,0.0,0.0,0.0,0.0,3300.0,18710.0,Direct,,,View report (https://accesshub.pdc.wa.gov/node/91775),Local government,Transportation and Land Use,"H Local Government, S Gov Ops, H Trans, S Trans"
110028,89979-49524,89979,FE,17543,H2 Government Relations,Employer,49524,CITY OF PUYALLUP,22-Mar,6/5/2022,16302.0,CITY OF PUYALLUP,2250.0,0.0,2250.0,0.0,0.0,0.0,0.0,0.0,0.0,0.0,2250.0,49524.0,Direct,,,View report (https://accesshub.pdc.wa.gov/node/89979),,,
110029,91647-49524,91647,FE,17543,H2 Government Relations,Employer,49524,CITY OF PUYALLUP,22-Apr,6/5/2022,16302.0,CITY OF PUYALLUP,2250.0,0.0,2250.0,0.0,0.0,0.0,0.0,0.0,0.0,0.0,2250.0,49524.0,Direct,,,View report (https://accesshub.pdc.wa.gov/node/91647),,,
110030,91775-49524,91775,FE,17543,H2 Government Relations,Employer,49524,CITY OF PUYALLUP,22-May,6/5/2022,16302.0,CITY OF PUYALLUP,2250.0,0.0,2250.0,0.0,0.0,0.0,0.0,0.0,0.0,0.0,2250.0,49524.0,Direct,,,View report (https://accesshub.pdc.wa.gov/node/91775),,,
110031,92711-19863,92711,FE,18074,Waypoint Consulting Group,Employer,19863,CLIMATE SOLUTIONS,22-May,6/5/2022,16327.0,CLIMATE SOLUTIONS,4500.0,0.0,4500.0,0.0,0.0,0.0,0.0,0.0,0.0,0.0,4500.0,19863.0,Direct,,,View report (https://accesshub.pdc.wa.gov/node/92711),Environmental Affairs - natural resources - parks,Enviroment,"Environment, Transportation, TED, WEE, DOE, Finance"
110032,89451-73123,89451,FE,18008,Eileen Sullivan,Employer,73123,COMCAST CABLE COMMUNICATIONS,22-Feb,6/5/2022,16344.0,COMCAST CABLE COMMUNICATIONS,8000.0,0.0,8000.0,0.0,0.0,0.0,0.0,0.0,0.0,0.0,8000.0,73123.0,Direct,,,View report (https://accesshub.pdc.wa.gov/node/89451),Technology,Privacy,"H Innovation, Technology & Economic Development, S Environment, Energy & Technology"
110033,90737-73123,90737,FE,18008,Eileen Sullivan,Employer,73123,COMCAST CABLE COMMUNICATIONS,22-Mar,6/5/2022,16344.0,COMCAST CABLE COMMUNICATIONS,8000.0,0.0,8000.0,0.0,0.0,0.0,0.0,0.0,0.0,0.0,8000.0,73123.0,Direct,,,View report (https://accesshub.pdc.wa.gov/node/90737),Technology,Privacy,"H Innovation, Technology & Economic Development, S Environment, Energy & Technology"
110034,91649-73123,91649,FE,18008,Eileen Sullivan,Employer,73123,COMCAST CABLE COMMUNICATIONS,22-Apr,6/5/2022,16344.0,COMCAST CABLE COMMUNICATIONS,8000.0,0.0,8000.0,0.0,0.0,0.0,0.0,0.0,0.0,0.0,8000.0,73123.0,Direct,,,View report (https://accesshub.pdc.wa.gov/node/91649),Technology,Privacy,"H Innovation, Technology & Economic Development, S Environment, Energy & Technology"
110035,92705-73123,92705,FE,18008,Eileen Sullivan,Employer,73123,COMCAST CABLE COMMUNICATIONS,22-May,6/5/2022,16344.0,COMCAST CABLE COMMUNICATIONS,8000.0,0.0,8000.0,0.0,0.0,0.0,0.0,0.0,0.0,0.0,8000.0,73123.0,Direct,,,View report (https://accesshub.pdc.wa.gov/node/92705),Technology,Privacy,"H Innovation, Technology & Economic Development, S Environment, Energy & Technology"
110036,89979-18711,89979,FE,17543,H2 Government Relations,Employer,18711,COMMUNITY ASSOC INSTITUTE,22-Mar,6/5/2022,16346.0,COMMUNITY ASSOC INSTITUTE,3750.0,0.0,3750.0,0.0,0.0,0.0,0.0,0.0,0.0,0.0,3750.0,18711.0,Direct,,,View report (https://accesshub.pdc.wa.gov/node/89979),Business and consumer affairs,Condo and Homeowner,"House Judiciary, Senate FII, Ways & Means, Senate Judiciary"
110037,91647-18711,91647,FE,17543,H2 Government Relations,Employer,18711,COMMUNITY ASSOC INSTITUTE,22-Apr,6/5/2022,16346.0,COMMUNITY ASSOC INSTITUTE,3750.0,0.0,3750.0,0.0,0.0,0.0,0.0,0.0,0.0,0.0,3750.0,18711.0,Direct,,,View report (https://accesshub.pdc.wa.gov/node/91647),Business and consumer affairs,Condo and Homeowner,"House Judiciary, Senate FII, Ways & Means, Senate Judiciary"
110038,91775-18711,91775,FE,17543,H2 Government Relations,Employer,18711,COMMUNITY ASSOC INSTITUTE,22-May,6/5/2022,16346.0,COMMUNITY ASSOC INSTITUTE,3750.0,0.0,3750.0,0.0,0.0,0.0,0.0,0.0,0.0,0.0,3750.0,18711.0,Direct,,,View report (https://accesshub.pdc.wa.gov/node/91775),Business and consumer affairs,Condo and Homeowner,"House Judiciary, Senate FII, Ways & Means, Senate Judiciary"
110039,89979-18712,89979,FE,17543,H2 Government Relations,Employer,18712,DAYBREAK YOUTH SERVICES,22-Mar,6/5/2022,16381.0,DAYBREAK YOUTH SERVICES,2300.0,0.0,2300.0,0.0,0.0,0.0,0.0,0.0,0.0,0.0,2300.0,18712.0,Direct,,,View report (https://accesshub.pdc.wa.gov/node/89979),Health Care,Health Care,"H Health Care, S Health Care"
110040,91647-18712,91647,FE,17543,H2 Government Relations,Employer,18712,DAYBREAK YOUTH SERVICES,22-Apr,6/5/2022,16381.0,DAYBREAK YOUTH SERVICES,2300.0,0.0,2300.0,0.0,0.0,0.0,0.0,0.0,0.0,0.0,2300.0,18712.0,Direct,,,View report (https://accesshub.pdc.wa.gov/node/91647),Health Care,Health Care,"H Health Care, S Health Care"
110041,91775-18712,91775,FE,17543,H2 Government Relations,Employer,18712,DAYBREAK YOUTH SERVICES,22-May,6/5/2022,16381.0,DAYBREAK YOUTH SERVICES,2300.0,0.0,2300.0,0.0,0.0,0.0,0.0,0.0,0.0,0.0,2300.0,18712.0,Direct,,,View report (https://accesshub.pdc.wa.gov/node/91775),Health Care,Health Care,"H Health Care, S Health Care"
110042,91946-18814,91946,FE,17579,Melissa M Gombosky,Employer,18814,EDUCATIONAL SERVICE DISTRICT 105,22-May,6/5/2022,16406.0,EDUCATIONAL SERVICE DISTRICT 105,3333.33,0.0,3333.33,0.0,0.0,0.0,0.0,0.0,0.0,0.0,3333.33,18814.0,Direct,,,View report (https://accesshub.pdc.wa.gov/node/91946),Education,Education Issues,Education Committees
110043,91946-34839,91946,FE,17579,Melissa M Gombosky,Employer,34839,EVERGREEN SCHOOL DIST #114,22-May,6/5/2022,16423.0,EVERGREEN SCHOOL DIST #114,6000.0,0.0,6000.0,0.0,0.0,0.0,0.0,0.0,0.0,0.0,6000.0,34839.0,Direct,,,View report (https://accesshub.pdc.wa.gov/node/91946),Environmental Affairs - natural resources - parks,education issues,Education Committees
110044,89451-73988,89451,FE,18008,Eileen Sullivan,Employer,73988,"Meta Platforms, Inc.",22-Feb,6/5/2022,16430.0,"Meta Platforms, Inc.",6250.0,0.0,6250.0,0.0,0.0,0.0,0.0,0.0,0.0,0.0,6250.0,73988.0,Direct,,,View report (https://accesshub.pdc.wa.gov/node/89451),Technology,Privacy,"H Innovation, Technology & Economic Development, S Environment, Energy & Technology"
110045,90737-73988,90737,FE,18008,Eileen Sullivan,Employer,73988,"Meta Platforms, Inc.",22-Mar,6/5/2022,16430.0,"Meta Platforms, Inc.",6250.0,0.0,6250.0,0.0,0.0,0.0,0.0,0.0,0.0,0.0,6250.0,73988.0,Direct,,,View report (https://accesshub.pdc.wa.gov/node/90737),Technology,Privacy,"H Innovation, Technology & Economic Development, S Environment, Energy & Technology"
110046,91649-73988,91649,FE,18008,Eileen Sullivan,Employer,73988,"Meta Platforms, Inc.",22-Apr,6/5/2022,16430.0,"Meta Platforms, Inc.",6250.0,0.0,6250.0,0.0,0.0,0.0,0.0,0.0,0.0,0.0,6250.0,73988.0,Direct,,,View report (https://accesshub.pdc.wa.gov/node/91649),Technology,Privacy,"H Innovation, Technology & Economic Development, S Environment, Energy & Technology"
110047,92705-73988,92705,FE,18008,Eileen Sullivan,Employer,73988,"Meta Platforms, Inc.",22-May,6/5/2022,16430.0,"Meta Platforms, Inc.",6250.0,0.0,6250.0,0.0,0.0,0.0,0.0,0.0,0.0,0.0,6250.0,73988.0,Direct,,,View report (https://accesshub.pdc.wa.gov/node/92705),Technology,Privacy,"H Innovation, Technology & Economic Development, S Environment, Energy & Technology"
110048,92657-18984,92657,FE,17654,Trent M House,Employer,18984,GENENTECH,22-May,6/5/2022,16467.0,GENENTECH,3000.0,0.0,3000.0,0.0,0.0,0.0,0.0,0.0,0.0,0.0,3000.0,18984.0,Direct,,,View report (https://accesshub.pdc.wa.gov/node/92657),Health Care,Drug Pricing,Health Care Committees
110049,91946-18816,91946,FE,17579,Melissa M Gombosky,Employer,18816,INLAND EMPIRE PAPER,22-May,6/5/2022,16530.0,INLAND EMPIRE PAPER,3500.0,0.0,3500.0,0.0,0.0,0.0,0.0,0.0,0.0,0.0,3500.0,18816.0,Direct,,,View report (https://accesshub.pdc.wa.gov/node/91946),Environmental Affairs - natural resources - parks,environmental issues,environmental Committees
110050,92711-19864,92711,FE,18074,Waypoint Consulting Group,Employer,19864,JOINT COUNCIL OF TEAMSTERS #28,22-May,6/5/2022,16564.0,JOINT COUNCIL OF TEAMSTERS #28,6250.0,0.0,6250.0,0.0,0.0,0.0,0.0,0.0,0.0,0.0,6250.0,19864.0,Direct,,,View report (https://accesshub.pdc.wa.gov/node/92711),Labor,Labor,"Labor & Commerce, W&M, Approps, Finance, Education"
110051,92701-28555,92701,FE,18045,Amber Ulvenes,Employer,28555,Kaiser Foundation Health Plan of the Northwest,22-May,6/5/2022,16569.0,Kaiser Foundation Health Plan of the Northwest,1350.0,0.0,1350.0,0.0,0.0,0.0,0.0,0.0,0.0,0.0,1350.0,28555.0,Direct,,,View report (https://accesshub.pdc.wa.gov/node/92701),Health Care,Various health care issues,"Health Care Committees, HCA, OFM"
110052,89451-73541,89451,FE,18008,Eileen Sullivan,Employer,73541,"McLANE COMPANY, Inc.",22-Feb,6/5/2022,16626.0,"McLANE COMPANY, Inc.",3500.0,0.0,3500.0,0.0,0.0,0.0,0.0,0.0,0.0,0.0,3500.0,73541.0,Direct,,,View report (https://accesshub.pdc.wa.gov/node/89451),,,
110053,90737-73541,90737,FE,18008,Eileen Sullivan,Employer,73541,"McLANE COMPANY, Inc.",22-Mar,6/5/2022,16626.0,"McLANE COMPANY, Inc.",3500.0,0.0,3500.0,0.0,0.0,0.0,0.0,0.0,0.0,0.0,3500.0,73541.0,Direct,,,View report (https://accesshub.pdc.wa.gov/node/90737),,,
110054,91649-73541,91649,FE,18008,Eileen Sullivan,Employer,73541,"McLANE COMPANY, Inc.",22-Apr,6/5/2022,16626.0,"McLANE COMPANY, Inc.",3500.0,0.0,3500.0,0.0,0.0,0.0,0.0,0.0,0.0,0.0,3500.0,73541.0,Direct,,,View report (https://accesshub.pdc.wa.gov/node/91649),,,
110055,92705-73541,92705,FE,18008,Eileen Sullivan,Employer,73541,"McLANE COMPANY, Inc.",22-May,6/5/2022,16626.0,"McLANE COMPANY, Inc.",3500.0,0.0,3500.0,0.0,0.0,0.0,0.0,0.0,0.0,0.0,3500.0,73541.0,Direct,,,View report (https://accesshub.pdc.wa.gov/node/92705),,,
110056,92701-19818,92701,FE,18045,Amber Ulvenes,Employer,19818,MIDWIVES ASSOCIATION OF WA STATE,22-May,6/5/2022,16637.0,MIDWIVES ASSOCIATION OF WA STATE,1500.0,0.0,1500.0,0.0,0.0,0.0,0.0,0.0,0.0,0.0,1500.0,19818.0,Direct,,,View report (https://accesshub.pdc.wa.gov/node/92701),Health Care,"licensing fees, doula reimbursement","dept of health, HCA"
110057,89979-29219,89979,FE,17543,H2 Government Relations,Employer,29219,MUCKLESHOOT INDIAN TRIBE,22-Mar,6/5/2022,16650.0,MUCKLESHOOT INDIAN TRIBE,7416.66,0.0,7416.66,0.0,0.0,0.0,0.0,0.0,0.0,0.0,7416.66,29219.0,Direct,,,View report (https://accesshub.pdc.wa.gov/node/89979),Local government,Natural Resources,"Senate Natural Resources & Parks, House Environment, Senate Agriculture, Water & Rural Economic Development"
110058,91647-29219,91647,FE,17543,H2 Government Relations,Employer,29219,MUCKLESHOOT INDIAN TRIBE,22-Apr,6/5/2022,16650.0,MUCKLESHOOT INDIAN TRIBE,7416.66,0.0,7416.66,0.0,0.0,0.0,0.0,0.0,0.0,0.0,7416.66,29219.0,Direct,,,View report (https://accesshub.pdc.wa.gov/node/91647),Local government,Natural Resources,"Senate Natural Resources & Parks, House Environment, Senate Agriculture, Water & Rural Economic Development"
110059,91775-29219,91775,FE,17543,H2 Government Relations,Employer,29219,MUCKLESHOOT INDIAN TRIBE,22-May,6/5/2022,16650.0,MUCKLESHOOT INDIAN TRIBE,7416.66,0.0,7416.66,0.0,0.0,0.0,0.0,0.0,0.0,0.0,7416.66,29219.0,Direct,,,View report (https://accesshub.pdc.wa.gov/node/91775),Local government,Natural Resources,"Senate Natural Resources & Parks, House Environment, Senate Agriculture, Water & Rural Economic Development"
110060,92711-19865,92711,FE,18074,Waypoint Consulting Group,Employer,19865,NON-PROFIT INSURANCE PROGRAM,22-May,6/5/2022,16691.0,NON-PROFIT INSURANCE PROGRAM,2500.0,0.0,2500.0,0.0,0.0,0.0,0.0,0.0,0.0,0.0,2500.0,19865.0,Direct,,,View report (https://accesshub.pdc.wa.gov/node/92711),Financial institutions and insurance,Insurance Pools,"BFS, FII, DES"
110061,91946-83398,91946,FE,17579,Melissa M Gombosky,Employer,83398,ALTRIA CLIENT SERVICES LLC & ITS AFFILIATES,22-May,6/5/2022,16778.0,ALTRIA CLIENT SERVICES LLC & ITS AFFILIATES,6250.0,0.0,6250.0,0.0,0.0,0.0,0.0,0.0,0.0,0.0,6250.0,83398.0,Direct,,,View report (https://accesshub.pdc.wa.gov/node/91946),Business and consumer affairs,Nicotine,"H and S Comm and Labor, Business, Ways and Means"
110062,89979-67024,89979,FE,17543,H2 Government Relations,Employer,67024,PORT OF EVERETT,22-Mar,6/5/2022,16797.0,PORT OF EVERETT,3500.0,0.0,3500.0,0.0,0.0,0.0,0.0,0.0,0.0,0.0,3500.0,67024.0,Direct,,,View report (https://accesshub.pdc.wa.gov/node/89979),,,
110063,91647-67024,91647,FE,17543,H2 Government Relations,Employer,67024,PORT OF EVERETT,22-Apr,6/5/2022,16797.0,PORT OF EVERETT,3500.0,0.0,3500.0,0.0,0.0,0.0,0.0,0.0,0.0,0.0,3500.0,67024.0,Direct,,,View report (https://accesshub.pdc.wa.gov/node/91647),,,
110064,91775-67024,91775,FE,17543,H2 Government Relations,Employer,67024,PORT OF EVERETT,22-May,6/5/2022,16797.0,PORT OF EVERETT,3500.0,0.0,3500.0,0.0,0.0,0.0,0.0,0.0,0.0,0.0,3500.0,67024.0,Direct,,,View report (https://accesshub.pdc.wa.gov/node/91775),,,
110065,92657-18987,92657,FE,17654,Trent M House,Employer,18987,PORT OF SEATTLE,22-May,6/5/2022,16805.0,PORT OF SEATTLE,7000.0,0.0,7000.0,0.0,0.0,0.0,0.0,0.0,0.0,0.0,7000.0,18987.0,Direct,,,View report (https://accesshub.pdc.wa.gov/node/92657),Transportation,"Real ID, TNC's, Taxi Cabs, Elections","Transportation Committees, Local Government Committees"
110066,91946-84192,91946,FE,17579,Melissa M Gombosky,Employer,84192,PROCTER & GAMBLE CO,22-May,6/5/2022,16814.0,PROCTER & GAMBLE CO,3750.0,0.0,3750.0,0.0,0.0,0.0,0.0,0.0,0.0,0.0,3750.0,84192.0,Direct,,,View report (https://accesshub.pdc.wa.gov/node/91946),Business and consumer affairs,Consumer Affairs,"H and S Comm and Labor, Business, Ways and Means"
110067,89451-89470,89451,FE,18008,Eileen Sullivan,Employer,89470,PROLIANCE SURGEONS,22-Feb,6/5/2022,16817.0,PROLIANCE SURGEONS,5000.0,0.0,5000.0,0.0,0.0,0.0,0.0,0.0,0.0,0.0,5000.0,89470.0,Direct,,,View report (https://accesshub.pdc.wa.gov/node/89451),,,
110068,90737-89470,90737,FE,18008,Eileen Sullivan,Employer,89470,PROLIANCE SURGEONS,22-Mar,6/5/2022,16817.0,PROLIANCE SURGEONS,5000.0,0.0,5000.0,0.0,0.0,0.0,0.0,0.0,0.0,0.0,5000.0,89470.0,Direct,,,View report (https://accesshub.pdc.wa.gov/node/90737),,,
110069,91649-89470,91649,FE,18008,Eileen Sullivan,Employer,89470,PROLIANCE SURGEONS,22-Apr,6/5/2022,16817.0,PROLIANCE SURGEONS,5000.0,0.0,5000.0,0.0,0.0,0.0,0.0,0.0,0.0,0.0,5000.0,89470.0,Direct,,,View report (https://accesshub.pdc.wa.gov/node/91649),,,
110070,92705-89470,92705,FE,18008,Eileen Sullivan,Employer,89470,PROLIANCE SURGEONS,22-May,6/5/2022,16817.0,PROLIANCE SURGEONS,5000.0,0.0,5000.0,0.0,0.0,0.0,0.0,0.0,0.0,0.0,5000.0,89470.0,Direct,,,View report (https://accesshub.pdc.wa.gov/node/92705),,,
110071,92657-18988,92657,FE,17654,Trent M House,Employer,18988,PROVIDENCE HEALTH & SERVICES- WA,22-May,6/5/2022,16821.0,PROVIDENCE HEALTH & SERVICES- WA,6000.0,0.0,6000.0,0.0,0.0,0.0,0.0,0.0,0.0,0.0,6000.0,18988.0,Direct,,,View report (https://accesshub.pdc.wa.gov/node/92657),Health Care,Dental Residencies,Health Care Committee
110072,92711-19866,92711,FE,18074,Waypoint Consulting Group,Employer,19866,Puget Sound Pilots,22-May,6/5/2022,16831.0,Puget Sound Pilots,6250.0,0.0,6250.0,0.0,0.0,0.0,0.0,0.0,0.0,0.0,6250.0,19866.0,Direct,,,View report (https://accesshub.pdc.wa.gov/node/92711),Transportation,Maritime transporation,"Environment, TED, BOPC, OFM"
110073,92701-19820,92701,FE,18045,Amber Ulvenes,Employer,19820,RESOLUTION WA,22-May,6/5/2022,16856.0,RESOLUTION WA,2500.0,0.0,2500.0,0.0,0.0,0.0,0.0,0.0,0.0,0.0,2500.0,19820.0,Direct,,,View report (https://accesshub.pdc.wa.gov/node/92701),Law and justice,DRC funding,"Dept of Commerce, Law & Justice and Judiciary Committees, OFM"
110074,91946-70488,91946,FE,17579,Melissa M Gombosky,Employer,70488,Richland School District,22-May,6/5/2022,16860.0,Richland School District,3500.0,0.0,3500.0,0.0,0.0,0.0,0.0,0.0,0.0,0.0,3500.0,70488.0,Direct,,,View report (https://accesshub.pdc.wa.gov/node/91946),Education,Education,Education Committees
110075,92710-80001,92710,FE,46174,"Washington Government Relations, LLC",Employer,80001,RENTAL HOUSING ASSN OF WA,22-May,6/5/2022,16894.0,RENTAL HOUSING ASSN OF WA,3500.0,0.0,3500.0,0.0,0.0,0.0,0.0,0.0,0.0,0.0,3500.0,80001.0,Direct,,,View report (https://accesshub.pdc.wa.gov/node/92710),Business and consumer affairs,Landlord / Tenant,"Senate Housing & Local Government Committee, House Housing, Human Services & Veterans Committee"
110076,89979-18716,89979,FE,17543,H2 Government Relations,Employer,18716,GREATER SPOKANE INC,22-Mar,6/5/2022,16938.0,GREATER SPOKANE INC,6000.0,0.0,6000.0,0.0,0.0,0.0,0.0,0.0,0.0,0.0,6000.0,18716.0,Direct,,,View report (https://accesshub.pdc.wa.gov/node/89979),Higher education,"Capital, Higher Education","H Cap, H Approps, H Finance, S W&M, H Higher Ed, S Higher Ed"
110077,91647-18716,91647,FE,17543,H2 Government Relations,Employer,18716,GREATER SPOKANE INC,22-Apr,6/5/2022,16938.0,GREATER SPOKANE INC,6000.0,0.0,6000.0,0.0,0.0,0.0,0.0,0.0,0.0,0.0,6000.0,18716.0,Direct,,,View report (https://accesshub.pdc.wa.gov/node/91647),Higher education,"Capital, Higher Education","H Cap, H Approps, H Finance, S W&M, H Higher Ed, S Higher Ed"
110078,91775-18716,91775,FE,17543,H2 Government Relations,Employer,18716,GREATER SPOKANE INC,22-May,6/5/2022,16938.0,GREATER SPOKANE INC,6000.0,0.0,6000.0,0.0,0.0,0.0,0.0,0.0,0.0,0.0,6000.0,18716.0,Direct,,,View report (https://accesshub.pdc.wa.gov/node/91775),Higher education,"Capital, Higher Education","H Cap, H Approps, H Finance, S W&M, H Higher Ed, S Higher Ed"
110079,92711-19868,92711,FE,18074,Waypoint Consulting Group,Employer,19868,STATEWIDE POVERTY ACTION NETWORK,22-May,6/5/2022,16952.0,STATEWIDE POVERTY ACTION NETWORK,4000.0,0.0,4000.0,0.0,0.0,0.0,0.0,0.0,0.0,0.0,4000.0,19868.0,Direct,,,View report (https://accesshub.pdc.wa.gov/node/92711),Business and consumer affairs,Consumer Protection,"BFS, FII,GGIT, DFI,AGO, Judiciary"
110080,89979-85029,89979,FE,17543,H2 Government Relations,Employer,85029,VIRGINIA MASON FRANCISCAN HEALTH,22-Mar,6/5/2022,17037.0,VIRGINIA MASON FRANCISCAN HEALTH,3750.0,0.0,3750.0,0.0,0.0,0.0,0.0,0.0,0.0,0.0,3750.0,85029.0,Direct,,,View report (https://accesshub.pdc.wa.gov/node/89979),Health Care,Health Care,All House Senate Healthcare
110081,91647-85029,91647,FE,17543,H2 Government Relations,Employer,85029,VIRGINIA MASON FRANCISCAN HEALTH,22-Apr,6/5/2022,17037.0,VIRGINIA MASON FRANCISCAN HEALTH,3750.0,0.0,3750.0,0.0,0.0,0.0,0.0,0.0,0.0,0.0,3750.0,85029.0,Direct,,,View report (https://accesshub.pdc.wa.gov/node/91647),Health Care,Health Care,All House Senate Healthcare
110082,91775-85029,91775,FE,17543,H2 Government Relations,Employer,85029,VIRGINIA MASON FRANCISCAN HEALTH,22-May,6/5/2022,17037.0,VIRGINIA MASON FRANCISCAN HEALTH,3750.0,0.0,3750.0,0.0,0.0,0.0,0.0,0.0,0.0,0.0,3750.0,85029.0,Direct,,,View report (https://accesshub.pdc.wa.gov/node/91775),Health Care,Health Care,All House Senate Healthcare
110083,89979-18717,89979,FE,17543,H2 Government Relations,Employer,18717,WALGREENS,22-Mar,6/5/2022,17040.0,WALGREENS,4750.0,0.0,4750.0,0.0,0.0,0.0,0.0,0.0,0.0,0.0,4750.0,18717.0,Direct,,,View report (https://accesshub.pdc.wa.gov/node/89979),Health Care,Health Care,"H Health Care, S Health Care"
110084,91647-18717,91647,FE,17543,H2 Government Relations,Employer,18717,WALGREENS,22-Apr,6/5/2022,17040.0,WALGREENS,4750.0,0.0,4750.0,0.0,0.0,0.0,0.0,0.0,0.0,0.0,4750.0,18717.0,Direct,,,View report (https://accesshub.pdc.wa.gov/node/91647),Health Care,Health Care,"H Health Care, S Health Care"
110085,91775-18717,91775,FE,17543,H2 Government Relations,Employer,18717,WALGREENS,22-May,6/5/2022,17040.0,WALGREENS,4750.0,0.0,4750.0,0.0,0.0,0.0,0.0,0.0,0.0,0.0,4750.0,18717.0,Direct,,,View report (https://accesshub.pdc.wa.gov/node/91775),Health Care,Health Care,"H Health Care, S Health Care"
110086,92657-39392,92657,FE,17654,Trent M House,Employer,39392,WA BANKERS ASSN,22-May,6/5/2022,17061.0,WA BANKERS ASSN,10000.0,0.0,10000.0,0.0,0.0,0.0,0.0,0.0,0.0,0.0,10000.0,39392.0,Direct,,,View report (https://accesshub.pdc.wa.gov/node/92657),Financial institutions and insurance,Banking,"House Finance, Senate Financial Institutions"
110087,89979-18718,89979,FE,17543,H2 Government Relations,Employer,18718,WA DISTILLERS GUILD,22-Mar,6/5/2022,17095.0,WA DISTILLERS GUILD,1500.0,0.0,1500.0,0.0,0.0,0.0,0.0,0.0,0.0,0.0,1500.0,18718.0,Direct,,,View report (https://accesshub.pdc.wa.gov/node/89979),Fiscal,Distilling,"House Commerce, Senate Ways & Means"
110088,91647-18718,91647,FE,17543,H2 Government Relations,Employer,18718,WA DISTILLERS GUILD,22-Apr,6/5/2022,17095.0,WA DISTILLERS GUILD,1500.0,0.0,1500.0,0.0,0.0,0.0,0.0,0.0,0.0,0.0,1500.0,18718.0,Direct,,,View report (https://accesshub.pdc.wa.gov/node/91647),Fiscal,Distilling,"House Commerce, Senate Ways & Means"
110089,91775-18718,91775,FE,17543,H2 Government Relations,Employer,18718,WA DISTILLERS GUILD,22-May,6/5/2022,17095.0,WA DISTILLERS GUILD,1500.0,0.0,1500.0,0.0,0.0,0.0,0.0,0.0,0.0,0.0,1500.0,18718.0,Direct,,,View report (https://accesshub.pdc.wa.gov/node/91775),Fiscal,Distilling,"House Commerce, Senate Ways & Means"
110090,92711-47938,92711,FE,18074,Waypoint Consulting Group,Employer,47938,Delta Dental of WA,22-May,6/5/2022,17096.0,Delta Dental of WA,7500.0,0.0,7500.0,0.0,0.0,0.0,0.0,0.0,0.0,0.0,7500.0,47938.0,Direct,,,View report (https://accesshub.pdc.wa.gov/node/92711),Health Care,Health Care,Health Care
110091,89979-18719,89979,FE,17543,H2 Government Relations,Employer,18719,Washington Multi Family Housing Association,22-Mar,6/5/2022,17149.0,Washington Multi Family Housing Association,8000.0,0.0,8000.0,0.0,0.0,0.0,0.0,0.0,0.0,0.0,8000.0,18719.0,Direct,,,View report (https://accesshub.pdc.wa.gov/node/89979),Business and consumer affairs,Landlord Tenant Act,"House Judiciary, House CTHTA, Senate FII, S Ways & Means"
110092,91647-18719,91647,FE,17543,H2 Government Relations,Employer,18719,Washington Multi Family Housing Association,22-Apr,6/5/2022,17149.0,Washington Multi Family Housing Association,8000.0,0.0,8000.0,0.0,0.0,0.0,0.0,0.0,0.0,0.0,8000.0,18719.0,Direct,,,View report (https://accesshub.pdc.wa.gov/node/91647),Business and consumer affairs,Landlord Tenant Act,"House Judiciary, House CTHTA, Senate FII, S Ways & Means"
110093,91775-18719,91775,FE,17543,H2 Government Relations,Employer,18719,Washington Multi Family Housing Association,22-May,6/5/2022,17149.0,Washington Multi Family Housing Association,8000.0,0.0,8000.0,0.0,0.0,0.0,0.0,0.0,0.0,0.0,8000.0,18719.0,Direct,,,View report (https://accesshub.pdc.wa.gov/node/91775),Business and consumer affairs,Landlord Tenant Act,"House Judiciary, House CTHTA, Senate FII, S Ways & Means"
110094,91946-28133,91946,FE,17579,Melissa M Gombosky,Employer,28133,WA ASSN OF SCHOOL ADMINISTRATORS,22-May,6/5/2022,17186.0,WA ASSN OF SCHOOL ADMINISTRATORS,5833.33,0.0,5833.33,0.0,0.0,0.0,0.0,0.0,0.0,0.0,5833.33,28133.0,Direct,,,View report (https://accesshub.pdc.wa.gov/node/91946),Education,education policy,Education Committees
110095,92700-18342,92700,FE,17427,Sheri Call,Employer,18342,WA TRUCKING ASSN,22-May,6/5/2022,17199.0,WA TRUCKING ASSN,1666.67,0.0,1666.67,0.0,0.0,0.0,0.0,0.0,0.0,0.0,1666.67,18342.0,Direct,,,View report (https://accesshub.pdc.wa.gov/node/92700),Transportation,HB 2077,House Transportation Committee
110096,92711-19870,92711,FE,18074,Waypoint Consulting Group,Employer,19870,WA WILDLIFE & RECREATION COALITION ACTION FUND,22-May,6/5/2022,17213.0,WA WILDLIFE & RECREATION COALITION ACTION FUND,4600.0,0.0,4600.0,0.0,0.0,0.0,0.0,0.0,0.0,0.0,4600.0,19870.0,Direct,,,View report (https://accesshub.pdc.wa.gov/node/92711),Environmental Affairs - natural resources - parks,Capital Budget,"Capital Budget, W&M, Nat Res, RCO, WDFW, DNR, State Parks"
110097,92657-18991,92657,FE,17654,Trent M House,Employer,18991,WA ST DENTAL ASSN,22-May,6/5/2022,17238.0,WA ST DENTAL ASSN,8750.0,0.0,8750.0,0.0,0.0,0.0,0.0,0.0,0.0,0.0,8750.0,18991.0,Direct,,,View report (https://accesshub.pdc.wa.gov/node/92657),Health Care,Dental Insurance Reforms,Health Care Committees
110098,89979-28144,89979,FE,17543,H2 Government Relations,Employer,28144,WA ST RADIOLOGICAL SOCIETY,22-Mar,6/5/2022,17281.0,WA ST RADIOLOGICAL SOCIETY,4000.0,0.0,4000.0,0.0,0.0,0.0,0.0,0.0,0.0,0.0,4000.0,28144.0,Direct,,,View report (https://accesshub.pdc.wa.gov/node/89979),Health Care,Health Care,"H Health Care, S Health Care"
110099,91647-28144,91647,FE,17543,H2 Government Relations,Employer,28144,WA ST RADIOLOGICAL SOCIETY,22-Apr,6/5/2022,17281.0,WA ST RADIOLOGICAL SOCIETY,2500.0,0.0,2500.0,0.0,0.0,0.0,0.0,0.0,0.0,0.0,2500.0,28144.0,Direct,,,View report (https://accesshub.pdc.wa.gov/node/91647),Health Care,Health Care,"H Health Care, S Health Care"
110100,91775-28144,91775,FE,17543,H2 Government Relations,Employer,28144,WA ST RADIOLOGICAL SOCIETY,22-May,6/5/2022,17281.0,WA ST RADIOLOGICAL SOCIETY,2500.0,0.0,2500.0,0.0,0.0,0.0,0.0,0.0,0.0,0.0,2500.0,28144.0,Direct,,,View report (https://accesshub.pdc.wa.gov/node/91775),Health Care,Health Care,"H Health Care, S Health Care"
110101,92712-73643,92712,FE,73642,Jeff Johnson,Employer,73643,REGIONAL WATER COOPERATIVE OF PIERCE CO,22-May,6/5/2022,17293.0,REGIONAL WATER COOPERATIVE OF PIERCE CO,3200.0,0.0,3200.0,100.0,0.0,0.0,0.0,0.0,0.0,100.0,3300.0,73643.0,Direct,,,View report (https://accesshub.pdc.wa.gov/node/92712),Energy and utilities,"customer assistance programs, PFAS funding, Municipal Water Law Policy Revisions, Joint Legislative Task Force on Water Mitigation","DOE, DOH, DOC"
110102,92657-48852,92657,FE,17654,Trent M House,Employer,48852,WA Hospitality Assn,22-May,6/5/2022,26557.0,WA Hospitality Assn,5000.0,0.0,5000.0,0.0,0.0,0.0,0.0,0.0,0.0,0.0,5000.0,48852.0,Direct,,,View report (https://accesshub.pdc.wa.gov/node/92657),Business and consumer affairs,Covid,All House Senate + Gov
110103,92711-48137,92711,FE,18074,Waypoint Consulting Group,Employer,48137,Cedar Grove,22-May,6/5/2022,28124.0,Cedar Grove,7000.0,0.0,7000.0,0.0,0.0,0.0,0.0,0.0,0.0,0.0,7000.0,48137.0,Direct,,,View report (https://accesshub.pdc.wa.gov/node/92711),Environmental Affairs - natural resources - parks,Enviroment / Business,Environment
110104,92657-29353,92657,FE,17654,Trent M House,Employer,29353,"A Place for Mom, Inc.",22-May,6/5/2022,29258.0,"A Place for Mom, Inc.",1000.0,0.0,1000.0,0.0,0.0,0.0,0.0,0.0,0.0,0.0,1000.0,29353.0,Direct,,,View report (https://accesshub.pdc.wa.gov/node/92657),Business and consumer affairs,General Business Climate Monitoring,All Legislative Committees
110105,91946-29482,91946,FE,17579,Melissa M Gombosky,Employer,29482,Spokane Public Schools,22-May,6/5/2022,29481.0,Spokane Public Schools,4500.0,0.0,4500.0,0.0,0.0,0.0,0.0,0.0,0.0,0.0,4500.0,29482.0,Direct,,,View report (https://accesshub.pdc.wa.gov/node/91946),Education,education,Education Committees
110106,92701-48779,92701,FE,18045,Amber Ulvenes,Employer,48779,Kaiser Foundation Health Plan of Washington,22-May,6/5/2022,30206.0,Kaiser Foundation Health Plan of Washington,11000.0,0.0,11000.0,0.0,0.0,0.0,0.0,0.0,0.0,0.0,11000.0,48779.0,Direct,,,View report (https://accesshub.pdc.wa.gov/node/92701),Health Care,"PEBB, health insurance market","HCA, Health Care Committees, appropriation committees"
110107,92711-31282,92711,FE,18074,Waypoint Consulting Group,Employer,31282,Washington State Opportunity Scholarship,22-May,6/5/2022,30931.0,Washington State Opportunity Scholarship,2000.0,0.0,2000.0,0.0,0.0,0.0,0.0,0.0,0.0,0.0,2000.0,31282.0,Direct,,,View report (https://accesshub.pdc.wa.gov/node/92711),Higher education,Higher Education,"Higher Ed, W&M, Approps, WSAC, PESB"
110108,89451-77692,89451,FE,18008,Eileen Sullivan,Employer,77692,ChargePoint Inc,22-Feb,6/5/2022,37392.0,ChargePoint Inc,5000.0,0.0,5000.0,0.0,0.0,0.0,0.0,0.0,0.0,0.0,5000.0,77692.0,Direct,,,View report (https://accesshub.pdc.wa.gov/node/89451),Transportation,Transportation,S & H Transportation
110109,90737-77692,90737,FE,18008,Eileen Sullivan,Employer,77692,ChargePoint Inc,22-Mar,6/5/2022,37392.0,ChargePoint Inc,5000.0,0.0,5000.0,0.0,0.0,0.0,0.0,0.0,0.0,0.0,5000.0,77692.0,Direct,,,View report (https://accesshub.pdc.wa.gov/node/90737),Transportation,Transportation,S & H Transportation
110110,91649-77692,91649,FE,18008,Eileen Sullivan,Employer,77692,ChargePoint Inc,22-Apr,6/5/2022,37392.0,ChargePoint Inc,5000.0,0.0,5000.0,0.0,0.0,0.0,0.0,0.0,0.0,0.0,5000.0,77692.0,Direct,,,View report (https://accesshub.pdc.wa.gov/node/91649),Transportation,Transportation,S & H Transportation
110111,92705-77692,92705,FE,18008,Eileen Sullivan,Employer,77692,ChargePoint Inc,22-May,6/5/2022,37392.0,ChargePoint Inc,5000.0,0.0,5000.0,0.0,0.0,0.0,0.0,0.0,0.0,0.0,5000.0,77692.0,Direct,,,View report (https://accesshub.pdc.wa.gov/node/92705),Transportation,Transportation,S & H Transportation
110112,92701-49486,92701,FE,18045,Amber Ulvenes,Employer,49486,Open Arms Perinatal Services,22-May,6/5/2022,49474.0,Open Arms Perinatal Services,1000.0,0.0,1000.0,0.0,0.0,0.0,0.0,0.0,0.0,0.0,1000.0,49486.0,Direct,,,View report (https://accesshub.pdc.wa.gov/node/92701),Health Care,Health Care,"HCA, Health Care Committees,"
110113,92657-50936,92657,FE,17654,Trent M House,Employer,50936,Sodexo,22-May,6/5/2022,50903.0,Sodexo,4500.0,0.0,4500.0,0.0,0.0,0.0,0.0,0.0,0.0,0.0,4500.0,50936.0,Direct,,,View report (https://accesshub.pdc.wa.gov/node/92657),Business and consumer affairs,Facilities,All House Senate
110114,92707-60687,92707,FE,17907,Krystelle Purkey,Employer,60687,Washington Court Reporters Association,22-May,6/5/2022,60654.0,Washington Court Reporters Association,1000.0,0.0,1000.0,0.0,0.0,0.0,0.0,0.0,0.0,0.0,1000.0,60687.0,Direct,,,View report (https://accesshub.pdc.wa.gov/node/92707),Labor,Independent Contractors,Senate & House
110115,91946-64586,91946,FE,17579,Melissa M Gombosky,Employer,64586,"Safelite Group, Inc.",22-May,6/5/2022,64584.0,"Safelite Group, Inc.",5000.0,0.0,5000.0,0.0,0.0,0.0,0.0,0.0,0.0,0.0,5000.0,64586.0,Direct,,,View report (https://accesshub.pdc.wa.gov/node/91946),Transportation,Transportation,S & H Transportation
110116,91946-68662,91946,FE,17579,Melissa M Gombosky,Employer,68662,Central Valley School District,22-May,6/5/2022,68661.0,Central Valley School District,3500.0,0.0,3500.0,0.0,0.0,0.0,0.0,0.0,0.0,0.0,3500.0,68662.0,Direct,,,View report (https://accesshub.pdc.wa.gov/node/91946),Education,Education Issues,Education Committees
110117,92701-72793,92701,FE,18045,Amber Ulvenes,Employer,72793,Compassion & Choices Action Network,22-May,6/5/2022,72787.0,Compassion & Choices Action Network,2727.27,0.0,2727.27,0.0,0.0,0.0,0.0,0.0,0.0,0.0,2727.27,72793.0,Direct,,,View report (https://accesshub.pdc.wa.gov/node/92701),Health Care,Health Care,Health Care Committees
110118,90737-72792,90737,FE,18008,Eileen Sullivan,Employer,72792,"Dropbox, Inc.",22-Mar,6/5/2022,72789.0,"Dropbox, Inc.",3500.0,0.0,3500.0,0.0,0.0,0.0,0.0,0.0,0.0,0.0,3500.0,72792.0,Direct,,,View report (https://accesshub.pdc.wa.gov/node/90737),Technology,Privacy,"H Innovation, Technology & Economic Development, S Environment, Energy & Technology"
110119,89451-72792,89451,FE,18008,Eileen Sullivan,Employer,72792,"Dropbox, Inc.",22-Feb,6/5/2022,72789.0,"Dropbox, Inc.",3500.0,0.0,3500.0,0.0,0.0,0.0,0.0,0.0,0.0,0.0,3500.0,72792.0,Direct,,,View report (https://accesshub.pdc.wa.gov/node/89451),Technology,Privacy,"H Innovation, Technology & Economic Development, S Environment, Energy & Technology"
110120,91649-72792,91649,FE,18008,Eileen Sullivan,Employer,72792,"Dropbox, Inc.",22-Apr,6/5/2022,72789.0,"Dropbox, Inc.",3500.0,0.0,3500.0,0.0,0.0,0.0,0.0,0.0,0.0,0.0,3500.0,72792.0,Direct,,,View report (https://accesshub.pdc.wa.gov/node/91649),Technology,Privacy,"H Innovation, Technology & Economic Development, S Environment, Energy & Technology"
110121,92705-72792,92705,FE,18008,Eileen Sullivan,Employer,72792,"Dropbox, Inc.",22-May,6/5/2022,72789.0,"Dropbox, Inc.",3500.0,0.0,3500.0,0.0,0.0,0.0,0.0,0.0,0.0,0.0,3500.0,72792.0,Direct,,,View report (https://accesshub.pdc.wa.gov/node/92705),Technology,Privacy,"H Innovation, Technology & Economic Development, S Environment, Energy & Technology"
110122,89451-72817,89451,FE,18008,Eileen Sullivan,Employer,72817,"Marriott International, Inc.",22-Feb,6/5/2022,72814.0,"Marriott International, Inc.",3500.0,0.0,3500.0,0.0,0.0,0.0,0.0,0.0,0.0,0.0,3500.0,72817.0,Direct,,,View report (https://accesshub.pdc.wa.gov/node/89451),,,
110123,90737-72817,90737,FE,18008,Eileen Sullivan,Employer,72817,"Marriott International, Inc.",22-Mar,6/5/2022,72814.0,"Marriott International, Inc.",3500.0,0.0,3500.0,0.0,0.0,0.0,0.0,0.0,0.0,0.0,3500.0,72817.0,Direct,,,View report (https://accesshub.pdc.wa.gov/node/90737),,,
110124,89451-73021,89451,FE,18008,Eileen Sullivan,Employer,73021,"Fiserv, Inc.",22-Feb,6/5/2022,73020.0,"Fiserv, Inc.",5000.0,0.0,5000.0,0.0,0.0,0.0,0.0,0.0,0.0,0.0,5000.0,73021.0,Direct,,,View report (https://accesshub.pdc.wa.gov/node/89451),Technology,Privacy,"H Innovation, Technology & Economic Development, S Environment, Energy & Technology"
110125,90737-73021,90737,FE,18008,Eileen Sullivan,Employer,73021,"Fiserv, Inc.",22-Mar,6/5/2022,73020.0,"Fiserv, Inc.",5000.0,0.0,5000.0,0.0,0.0,0.0,0.0,0.0,0.0,0.0,5000.0,73021.0,Direct,,,View report (https://accesshub.pdc.wa.gov/node/90737),Technology,Privacy,"H Innovation, Technology & Economic Development, S Environment, Energy & Technology"
110126,91649-73021,91649,FE,18008,Eileen Sullivan,Employer,73021,"Fiserv, Inc.",22-Apr,6/5/2022,73020.0,"Fiserv, Inc.",5000.0,0.0,5000.0,0.0,0.0,0.0,0.0,0.0,0.0,0.0,5000.0,73021.0,Direct,,,View report (https://accesshub.pdc.wa.gov/node/91649),Technology,Privacy,"H Innovation, Technology & Economic Development, S Environment, Energy & Technology"
110127,92705-73021,92705,FE,18008,Eileen Sullivan,Employer,73021,"Fiserv, Inc.",22-May,6/5/2022,73020.0,"Fiserv, Inc.",5000.0,0.0,5000.0,0.0,0.0,0.0,0.0,0.0,0.0,0.0,5000.0,73021.0,Direct,,,View report (https://accesshub.pdc.wa.gov/node/92705),Technology,Privacy,"H Innovation, Technology & Economic Development, S Environment, Energy & Technology"
110128,89979-80911,89979,FE,17543,H2 Government Relations,Employer,80911,The Home Depot,22-Mar,6/5/2022,77275.0,The Home Depot,3500.0,0.0,3500.0,0.0,0.0,0.0,0.0,0.0,0.0,0.0,3500.0,80911.0,Direct,,,View report (https://accesshub.pdc.wa.gov/node/89979),Law and justice,Retail Theft,All House All Senate
110129,91647-80911,91647,FE,17543,H2 Government Relations,Employer,80911,The Home Depot,22-Apr,6/5/2022,77275.0,The Home Depot,3500.0,0.0,3500.0,0.0,0.0,0.0,0.0,0.0,0.0,0.0,3500.0,80911.0,Direct,,,View report (https://accesshub.pdc.wa.gov/node/91647),Law and justice,Retail Theft,All House All Senate
110130,91775-80911,91775,FE,17543,H2 Government Relations,Employer,80911,The Home Depot,22-May,6/5/2022,77275.0,The Home Depot,3500.0,0.0,3500.0,0.0,0.0,0.0,0.0,0.0,0.0,0.0,3500.0,80911.0,Direct,,,View report (https://accesshub.pdc.wa.gov/node/91775),Law and justice,Retail Theft,All House All Senate
110131,92710-81915,92710,FE,46174,"Washington Government Relations, LLC",Employer,81915,Tacoma-Pierce County Association of Realtors,22-May,6/5/2022,81911.0,Tacoma-Pierce County Association of Realtors,3400.0,0.0,3400.0,0.0,0.0,0.0,0.0,0.0,0.0,0.0,3400.0,81915.0,Direct,,,View report (https://accesshub.pdc.wa.gov/node/92710),Business and consumer affairs,Landlord / Tenant,"Senate Housing & Local Government Committee, House Housing, Human Services & Veterans Committee"
110132,92657-83466,92657,FE,17654,Trent M House,Employer,83466,Aerospace Machinists Joint Training Committee,22-May,6/5/2022,83460.0,Aerospace Machinists Joint Training Committee,1000.0,0.0,1000.0,0.0,0.0,0.0,0.0,0.0,0.0,0.0,1000.0,83466.0,Direct,,,View report (https://accesshub.pdc.wa.gov/node/92657),Transportation,Transportation,All House Senate Transportation
110133,91649-84184,91649,FE,18008,Eileen Sullivan,Employer,84184,UHV Manager LLC,22-Apr,6/5/2022,84181.0,UHV Manager LLC,6000.0,0.0,6000.0,0.0,0.0,0.0,0.0,0.0,0.0,0.0,6000.0,84184.0,Direct,,,View report (https://accesshub.pdc.wa.gov/node/91649),,,
110134,89451-84184,89451,FE,18008,Eileen Sullivan,Employer,84184,UHV Manager LLC,22-Feb,6/5/2022,84181.0,UHV Manager LLC,6000.0,0.0,6000.0,0.0,0.0,0.0,0.0,0.0,0.0,0.0,6000.0,84184.0,Direct,,,View report (https://accesshub.pdc.wa.gov/node/89451),,,
110135,90737-84184,90737,FE,18008,Eileen Sullivan,Employer,84184,UHV Manager LLC,22-Mar,6/5/2022,84181.0,UHV Manager LLC,6000.0,0.0,6000.0,0.0,0.0,0.0,0.0,0.0,0.0,0.0,6000.0,84184.0,Direct,,,View report (https://accesshub.pdc.wa.gov/node/90737),,,
110136,92705-84184,92705,FE,18008,Eileen Sullivan,Employer,84184,UHV Manager LLC,22-May,6/5/2022,84181.0,UHV Manager LLC,6000.0,0.0,6000.0,0.0,0.0,0.0,0.0,0.0,0.0,0.0,6000.0,84184.0,Direct,,,View report (https://accesshub.pdc.wa.gov/node/92705),,,
110137,91946-86535,91946,FE,17579,Melissa M Gombosky,Employer,86535,CTIA - The Wireless Assocation (JEFFREY S GOMBOSKY),22-May,6/5/2022,86382.0,CTIA - The Wireless Assocation,1000.0,0.0,1000.0,0.0,0.0,0.0,0.0,0.0,0.0,0.0,1000.0,86535.0,Subcontract,17578.0,JEFFREY S GOMBOSKY,View report (https://accesshub.pdc.wa.gov/node/91946),,,
110138,89451-87144,89451,FE,18008,Eileen Sullivan,Employer,87144,Ancestry,22-Feb,6/5/2022,87143.0,Ancestry,3000.0,0.0,3000.0,0.0,0.0,0.0,0.0,0.0,0.0,0.0,3000.0,87144.0,Direct,,,View report (https://accesshub.pdc.wa.gov/node/89451),,,
110139,90737-87144,90737,FE,18008,Eileen Sullivan,Employer,87144,Ancestry,22-Mar,6/5/2022,87143.0,Ancestry,3000.0,0.0,3000.0,0.0,0.0,0.0,0.0,0.0,0.0,0.0,3000.0,87144.0,Direct,,,View report (https://accesshub.pdc.wa.gov/node/90737),,,
110140,89451-87220,89451,FE,18008,Eileen Sullivan,Employer,87220,"23andMe, Inc.",22-Feb,6/5/2022,87217.0,"23andMe, Inc.",3000.0,0.0,3000.0,0.0,0.0,0.0,0.0,0.0,0.0,0.0,3000.0,87220.0,Direct,,,View report (https://accesshub.pdc.wa.gov/node/89451),,,
110141,90737-87220,90737,FE,18008,Eileen Sullivan,Employer,87220,"23andMe, Inc.",22-Mar,6/5/2022,87217.0,"23andMe, Inc.",3000.0,0.0,3000.0,0.0,0.0,0.0,0.0,0.0,0.0,0.0,3000.0,87220.0,Direct,,,View report (https://accesshub.pdc.wa.gov/node/90737),,,
110142,89451-88636,89451,FE,18008,Eileen Sullivan,Employer,88636,"MED-Project WA, LLC",22-Feb,6/5/2022,88603.0,"MED-Project WA, LLC",5000.0,0.0,5000.0,0.0,0.0,0.0,0.0,0.0,0.0,0.0,5000.0,88636.0,Direct,,,View report (https://accesshub.pdc.wa.gov/node/89451),Health Care,Health Care,All House Senate
110143,90737-88636,90737,FE,18008,Eileen Sullivan,Employer,88636,"MED-Project WA, LLC",22-Mar,6/5/2022,88603.0,"MED-Project WA, LLC",5000.0,0.0,5000.0,0.0,0.0,0.0,0.0,0.0,0.0,0.0,5000.0,88636.0,Direct,,,View report (https://accesshub.pdc.wa.gov/node/90737),Health Care,Health Care,All House Senate
110144,91649-88636,91649,FE,18008,Eileen Sullivan,Employer,88636,"MED-Project WA, LLC",22-Apr,6/5/2022,88603.0,"MED-Project WA, LLC",5000.0,0.0,5000.0,0.0,0.0,0.0,0.0,0.0,0.0,0.0,5000.0,88636.0,Direct,,,View report (https://accesshub.pdc.wa.gov/node/91649),Health Care,Health Care,All House Senate
110145,92705-88636,92705,FE,18008,Eileen Sullivan,Employer,88636,"MED-Project WA, LLC",22-May,6/5/2022,88603.0,"MED-Project WA, LLC",5000.0,0.0,5000.0,0.0,0.0,0.0,0.0,0.0,0.0,0.0,5000.0,88636.0,Direct,,,View report (https://accesshub.pdc.wa.gov/node/92705),Health Care,Health Care,All House Senate
110146,91649-91091,91649,FE,18008,Eileen Sullivan,Employer,91091,Coalition for Genetic Data Protection,22-Apr,6/5/2022,90905.0,Coalition for Genetic Data Protection,6000.0,0.0,6000.0,0.0,0.0,0.0,0.0,0.0,0.0,0.0,6000.0,91091.0,Direct,,,View report (https://accesshub.pdc.wa.gov/node/91649),,,
110147,92705-91091,92705,FE,18008,Eileen Sullivan,Employer,91091,Coalition for Genetic Data Protection,22-May,6/5/2022,90905.0,Coalition for Genetic Data Protection,6000.0,0.0,6000.0,0.0,0.0,0.0,0.0,0.0,0.0,0.0,6000.0,91091.0,Direct,,,View report (https://accesshub.pdc.wa.gov/node/92705),,,
110148,92657-91880,92657,FE,17654,Trent M House,Employer,91880,Sports Betting Alliance,22-May,6/5/2022,91879.0,Sports Betting Alliance,2000.0,0.0,2000.0,0.0,0.0,0.0,0.0,0.0,0.0,0.0,2000.0,91880.0,Direct,,,View report (https://accesshub.pdc.wa.gov/node/92657),,,
110149,91493-79980,91493,FE,17974,MELANIE J SMITH,Employer,79980,ALZHEIMERS ASSN WA ST CHAPTER,22-Mar,6/6/2022,16086.0,ALZHEIMERS ASSN WA ST CHAPTER,1100.0,0.0,1100.0,0.0,0.0,0.0,0.0,0.0,0.0,0.0,1100.0,79980.0,Direct,,,View report (https://accesshub.pdc.wa.gov/node/91493),Health Care,alzheimers,healthcare
110150,92221-79980,92221,FE,17974,MELANIE J SMITH,Employer,79980,ALZHEIMERS ASSN WA ST CHAPTER,22-Apr,6/6/2022,16086.0,ALZHEIMERS ASSN WA ST CHAPTER,1100.0,0.0,1100.0,0.0,0.0,0.0,0.0,0.0,0.0,0.0,1100.0,79980.0,Direct,,,View report (https://accesshub.pdc.wa.gov/node/92221),Health Care,alzheimers,healthcare
110151,92736-79980,92736,FE,17974,MELANIE J SMITH,Employer,79980,ALZHEIMERS ASSN WA ST CHAPTER,22-May,6/6/2022,16086.0,ALZHEIMERS ASSN WA ST CHAPTER,1100.0,0.0,1100.0,0.0,0.0,0.0,0.0,0.0,0.0,0.0,1100.0,79980.0,Direct,,,View report (https://accesshub.pdc.wa.gov/node/92736),Health Care,alzheimers,healthcare
110152,92729-19617,92729,FE,17964,SCOTT C SIGMON,Employer,19617,WA ST CHAPTER OF ASSOC PUBLIC SAFETY COMMUNICATIONS OFFICIALS,22-May,6/6/2022,16158.0,WA ST CHAPTER OF ASSOC PUBLIC SAFETY COMMUNICATIONS OFFICIALS,2250.0,0.0,2250.0,0.0,0.0,0.0,0.0,0.0,0.0,0.0,2250.0,19617.0,Direct,,,View report (https://accesshub.pdc.wa.gov/node/92729),Local government,911 Telecommunicators,"Senator Van De Wege, State 911 Office"
110153,92725-61405,92725,FE,17359,CHRISTOPHER BANDOLI,Employer,61405,Association of Washington Healthcare Plans,22-May,6/6/2022,16169.0,Association of Washington Healthcare Plans,2000.0,0.0,2000.0,0.0,0.0,0.0,0.0,0.0,0.0,0.0,2000.0,61405.0,Direct,,,View report (https://accesshub.pdc.wa.gov/node/92725),Health Care,Health care financing issues,"Health care Committees, OIC, HCA, HBE"
110154,92720-70293,92720,FE,17587,JON GOULD,Employer,70293,CHILDHAVEN,22-May,6/6/2022,16257.0,CHILDHAVEN,500.0,0.0,500.0,0.0,0.0,0.0,0.0,0.0,0.0,0.0,500.0,70293.0,Direct,,,View report (https://accesshub.pdc.wa.gov/node/92720),,,
110155,91493-19639,91493,FE,17974,MELANIE J SMITH,Employer,19639,COMMITTEE FOR CHILDREN,22-Mar,6/6/2022,16347.0,COMMITTEE FOR CHILDREN,2975.0,0.0,2975.0,0.0,0.0,0.0,0.0,0.0,0.0,0.0,2975.0,19639.0,Direct,,,View report (https://accesshub.pdc.wa.gov/node/91493),,,
110156,92221-19639,92221,FE,17974,MELANIE J SMITH,Employer,19639,COMMITTEE FOR CHILDREN,22-Apr,6/6/2022,16347.0,COMMITTEE FOR CHILDREN,2975.0,0.0,2975.0,0.0,0.0,0.0,0.0,0.0,0.0,0.0,2975.0,19639.0,Direct,,,View report (https://accesshub.pdc.wa.gov/node/92221),,,
110157,92736-19639,92736,FE,17974,MELANIE J SMITH,Employer,19639,COMMITTEE FOR CHILDREN,22-May,6/6/2022,16347.0,COMMITTEE FOR CHILDREN,2975.0,0.0,2975.0,0.0,0.0,0.0,0.0,0.0,0.0,0.0,2975.0,19639.0,Direct,,,View report (https://accesshub.pdc.wa.gov/node/92736),,,
110158,92738-18529,92738,FE,17479,ROMAN M DANIELS-BROWN,Employer,18529,DaVita Inc.,22-May,6/6/2022,16380.0,DaVita Inc.,6000.0,0.0,6000.0,10.0,0.0,0.0,0.0,0.0,0.0,10.0,6010.0,18529.0,Direct,,,View report (https://accesshub.pdc.wa.gov/node/92738),Health Care,Health Care,Health Care
110159,92729-19623,92729,FE,17964,SCOTT C SIGMON,Employer,19623,LEADINGAGE WA,22-May,6/6/2022,16588.0,LEADINGAGE WA,9000.0,0.0,9000.0,0.0,0.0,0.0,0.0,0.0,0.0,0.0,9000.0,19623.0,Direct,,,View report (https://accesshub.pdc.wa.gov/node/92729),Health Care,Long Term Care Issues,Office of the Insurance Commissioner & DSHS
110160,91493-39038,91493,FE,17974,MELANIE J SMITH,Employer,39038,NAMI WA,22-Mar,6/6/2022,16654.0,NAMI WA,2500.0,0.0,2500.0,0.0,0.0,0.0,0.0,0.0,0.0,0.0,2500.0,39038.0,Direct,,,View report (https://accesshub.pdc.wa.gov/node/91493),Health Care,mental health,healthcare
110161,92221-39038,92221,FE,17974,MELANIE J SMITH,Employer,39038,NAMI WA,22-Apr,6/6/2022,16654.0,NAMI WA,2500.0,0.0,2500.0,0.0,0.0,0.0,0.0,0.0,0.0,0.0,2500.0,39038.0,Direct,,,View report (https://accesshub.pdc.wa.gov/node/92221),Health Care,mental health,healthcare
110162,92736-39038,92736,FE,17974,MELANIE J SMITH,Employer,39038,NAMI WA,22-May,6/6/2022,16654.0,NAMI WA,2500.0,0.0,2500.0,0.0,0.0,0.0,0.0,0.0,0.0,0.0,2500.0,39038.0,Direct,,,View report (https://accesshub.pdc.wa.gov/node/92736),Health Care,mental health,healthcare
110163,92729-19624,92729,FE,17964,SCOTT C SIGMON,Employer,19624,CONSUMER HEALTHCARE PRODUCTS ASSN,22-May,6/6/2022,16692.0,CONSUMER HEALTHCARE PRODUCTS ASSN,4500.0,0.0,4500.0,0.0,0.0,0.0,0.0,0.0,0.0,0.0,4500.0,19624.0,Direct,,,View report (https://accesshub.pdc.wa.gov/node/92729),Health Care,Plastic Packaging & Secure Medicine Return,Department of Ecology
110164,92738-18531,92738,FE,17479,ROMAN M DANIELS-BROWN,Employer,18531,"Novartis Services, Inc.",22-May,6/6/2022,16725.0,"Novartis Services, Inc.",4583.33,0.0,4583.33,0.0,0.0,0.0,0.0,0.0,0.0,0.0,4583.33,18531.0,Direct,,,View report (https://accesshub.pdc.wa.gov/node/92738),Health Care,pharmaceuticals,health care
110165,92729-19625,92729,FE,17964,SCOTT C SIGMON,Employer,19625,PARTNERS IN CAREERS,22-May,6/6/2022,16764.0,PARTNERS IN CAREERS,1500.0,0.0,1500.0,0.0,0.0,0.0,0.0,0.0,0.0,0.0,1500.0,19625.0,Direct,,,View report (https://accesshub.pdc.wa.gov/node/92729),Labor,Work Force Training,OSPI
110166,92739-85273,92739,FE,85272,Jane Douthit,Employer,85273,REGENCE BLUE SHIELD,22-May,6/6/2022,16849.0,REGENCE BLUE SHIELD,1000.0,0.0,1000.0,0.0,0.0,0.0,0.0,0.0,0.0,0.0,1000.0,85273.0,Direct,,,View report (https://accesshub.pdc.wa.gov/node/92739),Health Care,Health care policy,OIC
110167,92745-56486,92745,FE,17656,ANDREA E HOWELL,Employer,56486,Sierra Pacific Industries,22-May,6/6/2022,16916.0,Sierra Pacific Industries,275.0,0.0,275.0,0.0,0.0,0.0,0.0,0.0,0.0,0.0,275.0,56486.0,Direct,,,View report (https://accesshub.pdc.wa.gov/node/92745),Environmental Affairs - natural resources - parks,"Forestry issues, including DNR State Trust Forests Program",Dept. of Natural Resources; 20th District Legislators
110168,91493-25635,91493,FE,17974,MELANIE J SMITH,Employer,25635,MULTI-SERVICE CENTER LONG TERM CARE OMBUDSMAN PROGRAM,22-Mar,6/6/2022,16932.0,MULTI-SERVICE CENTER LONG TERM CARE OMBUDSMAN PROGRAM,863.0,0.0,863.0,0.0,0.0,0.0,0.0,0.0,0.0,0.0,863.0,25635.0,Direct,,,View report (https://accesshub.pdc.wa.gov/node/91493),Health Care,long term care,healthcare
110169,92221-25635,92221,FE,17974,MELANIE J SMITH,Employer,25635,MULTI-SERVICE CENTER LONG TERM CARE OMBUDSMAN PROGRAM,22-Apr,6/6/2022,16932.0,MULTI-SERVICE CENTER LONG TERM CARE OMBUDSMAN PROGRAM,863.0,0.0,863.0,0.0,0.0,0.0,0.0,0.0,0.0,0.0,863.0,25635.0,Direct,,,View report (https://accesshub.pdc.wa.gov/node/92221),Health Care,long term care,healthcare
110170,92736-25635,92736,FE,17974,MELANIE J SMITH,Employer,25635,MULTI-SERVICE CENTER LONG TERM CARE OMBUDSMAN PROGRAM,22-May,6/6/2022,16932.0,MULTI-SERVICE CENTER LONG TERM CARE OMBUDSMAN PROGRAM,863.0,0.0,863.0,0.0,0.0,0.0,0.0,0.0,0.0,0.0,863.0,25635.0,Direct,,,View report (https://accesshub.pdc.wa.gov/node/92736),Health Care,long term care,healthcare
110171,92738-39257,92738,FE,17479,ROMAN M DANIELS-BROWN,Employer,39257,Astria Health,22-May,6/6/2022,16957.0,Astria Health,6000.0,0.0,6000.0,10.0,0.0,0.0,0.0,0.0,0.0,10.0,6010.0,39257.0,Direct,,,View report (https://accesshub.pdc.wa.gov/node/92738),Health Care,Health care,Health care
110172,92738-18534,92738,FE,17479,ROMAN M DANIELS-BROWN,Employer,18534,TAKEDA PHARMACEUTICALS,22-May,6/6/2022,16970.0,TAKEDA PHARMACEUTICALS,5000.0,0.0,5000.0,0.0,0.0,0.0,0.0,0.0,0.0,0.0,5000.0,18534.0,Direct,,,View report (https://accesshub.pdc.wa.gov/node/92738),Health Care,Health Care,Health Care
110173,92729-19626,92729,FE,17964,SCOTT C SIGMON,Employer,19626,"UCB, INC",22-May,6/6/2022,17002.0,"UCB, INC",4166.66,0.0,4166.66,0.0,0.0,0.0,0.0,0.0,0.0,0.0,4166.66,19626.0,Direct,,,View report (https://accesshub.pdc.wa.gov/node/92729),Health Care,Safe Medication Return Rules,Department of Health
110174,92738-73251,92738,FE,17479,ROMAN M DANIELS-BROWN,Employer,73251,WA AMBULATORY SURGERY CENTER ASSN,22-May,6/6/2022,17060.0,WA AMBULATORY SURGERY CENTER ASSN,4000.0,0.0,4000.0,0.0,0.0,0.0,0.0,0.0,0.0,0.0,4000.0,73251.0,Direct,,,View report (https://accesshub.pdc.wa.gov/node/92738),Health Care,Health Care,Health Care Committee
110175,92733-70965,92733,FE,70964,Natalie Hester,Employer,70965,WA CHARTERS ACTION,22-May,6/6/2022,17071.0,WA CHARTERS ACTION,349.71,0.0,349.71,0.0,0.0,0.0,0.0,0.0,0.0,0.0,349.71,70965.0,Direct,,,View report (https://accesshub.pdc.wa.gov/node/92733),Education,Various,Various
110176,92723-19120,92723,FE,17732,DENNIS J LAWSON,Employer,19120,WA ST COUNCIL OF FIRE FIGHTERS,22-May,6/6/2022,17232.0,WA ST COUNCIL OF FIRE FIGHTERS,2736.76,0.0,2736.76,0.0,0.0,0.0,0.0,0.0,0.0,0.0,2736.76,19120.0,Direct,,,View report (https://accesshub.pdc.wa.gov/node/92723),Labor,Fire Service Issues,House of Representatives/Senate
110177,92724-19191,92724,FE,17772,GREG B MARKLEY,Employer,19191,WA ST COUNCIL OF FIRE FIGHTERS,22-May,6/6/2022,17232.0,WA ST COUNCIL OF FIRE FIGHTERS,380.1,0.0,380.1,0.0,0.0,0.0,0.0,0.0,0.0,0.0,380.1,19191.0,Direct,,,View report (https://accesshub.pdc.wa.gov/node/92724),Labor,Fire Service Issues,Houses of Representatives/Senate
110178,92721-39780,92721,FE,39779,AJ Johnson,Employer,39780,WA ST COUNCIL OF FIRE FIGHTERS,22-May,6/6/2022,17232.0,WA ST COUNCIL OF FIRE FIGHTERS,2747.54,0.0,2747.54,0.0,0.0,0.0,0.0,0.0,0.0,0.0,2747.54,39780.0,Direct,,,View report (https://accesshub.pdc.wa.gov/node/92721),Labor,Fire Service Issues,House of Representatives/Senate
110179,92722-47744,92722,FE,17967,Bud Sizemore,Employer,47744,WA ST COUNCIL OF FIRE FIGHTERS,22-May,6/6/2022,17232.0,WA ST COUNCIL OF FIRE FIGHTERS,3580.54,0.0,3580.54,0.0,0.0,0.0,0.0,0.0,0.0,0.0,3580.54,47744.0,Direct,,,View report (https://accesshub.pdc.wa.gov/node/92722),Labor,Fire Service Issues,House of Representatives/Senate
110180,92738-27407,92738,FE,17479,ROMAN M DANIELS-BROWN,Employer,27407,WA ST MEDICAL ASSN,22-May,6/6/2022,17261.0,WA ST MEDICAL ASSN,6000.0,0.0,6000.0,0.0,0.0,0.0,0.0,0.0,0.0,0.0,6000.0,27407.0,Direct,,,View report (https://accesshub.pdc.wa.gov/node/92738),Health Care,Health Care,Health Care
110181,91493-60575,91493,FE,17974,MELANIE J SMITH,Employer,60575,WA ST PSYCHOLOGICAL ASSN,22-Mar,6/6/2022,17269.0,WA ST PSYCHOLOGICAL ASSN,3092.0,0.0,3092.0,0.0,0.0,0.0,0.0,0.0,0.0,0.0,3092.0,60575.0,Direct,,,View report (https://accesshub.pdc.wa.gov/node/91493),Health Care,healthcare,healthcare
110182,92221-60575,92221,FE,17974,MELANIE J SMITH,Employer,60575,WA ST PSYCHOLOGICAL ASSN,22-Apr,6/6/2022,17269.0,WA ST PSYCHOLOGICAL ASSN,3092.0,0.0,3092.0,0.0,0.0,0.0,0.0,0.0,0.0,0.0,3092.0,60575.0,Direct,,,View report (https://accesshub.pdc.wa.gov/node/92221),Health Care,healthcare,healthcare
110183,92736-60575,92736,FE,17974,MELANIE J SMITH,Employer,60575,WA ST PSYCHOLOGICAL ASSN,22-May,6/6/2022,17269.0,WA ST PSYCHOLOGICAL ASSN,3092.0,0.0,3092.0,0.0,0.0,0.0,0.0,0.0,0.0,0.0,3092.0,60575.0,Direct,,,View report (https://accesshub.pdc.wa.gov/node/92736),Health Care,healthcare,healthcare
110184,92738-26046,92738,FE,17479,ROMAN M DANIELS-BROWN,Employer,26046,"U.S. Anesthesia Partners, Inc.",22-May,6/6/2022,26042.0,"U.S. Anesthesia Partners, Inc.",6000.0,0.0,6000.0,10.0,0.0,0.0,0.0,0.0,0.0,10.0,6010.0,26046.0,Direct,,,View report (https://accesshub.pdc.wa.gov/node/92738),Health Care,Health Care,Health Care
110185,92715-33644,92715,FE,17787,Patricia McDaid-O'Neill,Employer,33644,Sunovion Pharmaceuticals Inc.,22-May,6/6/2022,33133.0,Sunovion Pharmaceuticals Inc.,2590.54,0.0,2590.54,0.0,0.0,0.0,0.0,0.0,0.0,0.0,2590.54,33644.0,Direct,,,View report (https://accesshub.pdc.wa.gov/node/92715),Health Care,Pharmaceutical Drug Pricing,Legislature
110186,92738-61371,92738,FE,17479,ROMAN M DANIELS-BROWN,Employer,61371,Life Flight Network,22-May,6/6/2022,54375.0,Life Flight Network,4666.0,0.0,4666.0,10.0,0.0,0.0,0.0,0.0,0.0,10.0,4676.0,61371.0,Direct,,,View report (https://accesshub.pdc.wa.gov/node/92738),Health Care,Health Care,Health Care Committee
110187,92738-55789,92738,FE,17479,ROMAN M DANIELS-BROWN,Employer,55789,Confluence Health,22-May,6/6/2022,55787.0,Confluence Health,6000.0,0.0,6000.0,10.0,0.0,0.0,0.0,0.0,0.0,10.0,6010.0,55789.0,Direct,,,View report (https://accesshub.pdc.wa.gov/node/92738),Health Care,Health Care,Health Care Committee/Fiscal Committees
110188,92729-74067,92729,FE,17964,SCOTT C SIGMON,Employer,74067,"PeaceHealth Networks On Demand, LLC (The Holt Company)",22-May,6/6/2022,66198.0,"PeaceHealth Networks On Demand, LLC",4500.0,0.0,4500.0,0.0,0.0,0.0,0.0,0.0,0.0,0.0,4500.0,74067.0,Subcontract,66187.0,The Holt Company,View report (https://accesshub.pdc.wa.gov/node/92729),,,
110190,91493-74682,91493,FE,17974,MELANIE J SMITH,Employer,74682,Seattle/King County Coalition on Homelessness,22-Mar,6/6/2022,74671.0,Seattle/King County Coalition on Homelessness,1600.0,0.0,1600.0,0.0,0.0,0.0,0.0,0.0,0.0,0.0,1600.0,74682.0,Direct,,,View report (https://accesshub.pdc.wa.gov/node/91493),,,
110191,92221-74682,92221,FE,17974,MELANIE J SMITH,Employer,74682,Seattle/King County Coalition on Homelessness,22-Apr,6/6/2022,74671.0,Seattle/King County Coalition on Homelessness,1600.0,0.0,1600.0,0.0,0.0,0.0,0.0,0.0,0.0,0.0,1600.0,74682.0,Direct,,,View report (https://accesshub.pdc.wa.gov/node/92221),,,
110192,92736-74682,92736,FE,17974,MELANIE J SMITH,Employer,74682,Seattle/King County Coalition on Homelessness,22-May,6/6/2022,74671.0,Seattle/King County Coalition on Homelessness,1600.0,0.0,1600.0,0.0,0.0,0.0,0.0,0.0,0.0,0.0,1600.0,74682.0,Direct,,,View report (https://accesshub.pdc.wa.gov/node/92736),,,
110193,91493-83916,91493,FE,17974,MELANIE J SMITH,Employer,83916,Wonderland Child & Family Services,22-Mar,6/6/2022,83795.0,Wonderland Child & Family Services,2000.0,0.0,2000.0,0.0,0.0,0.0,0.0,0.0,0.0,0.0,2000.0,83916.0,Direct,,,View report (https://accesshub.pdc.wa.gov/node/91493),,,
110194,92221-83916,92221,FE,17974,MELANIE J SMITH,Employer,83916,Wonderland Child & Family Services,22-Apr,6/6/2022,83795.0,Wonderland Child & Family Services,2000.0,0.0,2000.0,0.0,0.0,0.0,0.0,0.0,0.0,0.0,2000.0,83916.0,Direct,,,View report (https://accesshub.pdc.wa.gov/node/92221),,,
110195,92736-83916,92736,FE,17974,MELANIE J SMITH,Employer,83916,Wonderland Child & Family Services,22-May,6/6/2022,83795.0,Wonderland Child & Family Services,2000.0,0.0,2000.0,0.0,0.0,0.0,0.0,0.0,0.0,0.0,2000.0,83916.0,Direct,,,View report (https://accesshub.pdc.wa.gov/node/92736),,,
110196,91493-88592,91493,FE,17974,MELANIE J SMITH,Employer,88592,Washington CASA Association,22-Mar,6/6/2022,87691.0,Washington CASA Association,1000.0,0.0,1000.0,0.0,0.0,0.0,0.0,0.0,0.0,0.0,1000.0,88592.0,Direct,,,View report (https://accesshub.pdc.wa.gov/node/91493),,,
110197,92221-88592,92221,FE,17974,MELANIE J SMITH,Employer,88592,Washington CASA Association,22-Apr,6/6/2022,87691.0,Washington CASA Association,1000.0,0.0,1000.0,0.0,0.0,0.0,0.0,0.0,0.0,0.0,1000.0,88592.0,Direct,,,View report (https://accesshub.pdc.wa.gov/node/92221),,,
110198,92736-88592,92736,FE,17974,MELANIE J SMITH,Employer,88592,Washington CASA Association,22-May,6/6/2022,87691.0,Washington CASA Association,1000.0,0.0,1000.0,0.0,0.0,0.0,0.0,0.0,0.0,0.0,1000.0,88592.0,Direct,,,View report (https://accesshub.pdc.wa.gov/node/92736),,,
110199,92703-49630,92703,FE,49611,Devon S. Connor-Green,Employer,49630,ARNPS UNITED OF WA ST,22-May,6/7/2022,16070.0,ARNPS UNITED OF WA ST,1500.0,0.0,1500.0,0.0,0.0,0.0,0.0,0.0,0.0,0.0,1500.0,49630.0,Direct,,,View report (https://accesshub.pdc.wa.gov/node/92703),Health Care,Health Care,"H Health Care, S Health Care"
110200,92662-19207,92662,FE,17779,MCBRIDE PUBLIC AFFAIRS LLC*,Employer,19207,"Elevance Health, and its Affiliates",22-May,6/7/2022,16107.0,"Elevance Health, and its Affiliates",5000.0,0.0,5000.0,0.0,0.0,0.0,0.0,0.0,0.0,0.0,5000.0,19207.0,Direct,,,View report (https://accesshub.pdc.wa.gov/node/92662),Human services,Medicaid,HEALTH CARE BUDGET HUMAN SERVICES
110201,92662-19208,92662,FE,17779,MCBRIDE PUBLIC AFFAIRS LLC*,Employer,19208,AMGEN INC,22-May,6/7/2022,16127.0,AMGEN INC,4500.0,0.0,4500.0,0.0,0.0,0.0,0.0,0.0,0.0,0.0,4500.0,19208.0,Direct,,,View report (https://accesshub.pdc.wa.gov/node/92662),Health Care,Health Care,HEALTH CARE TECH WAYS & MEANS
110202,92754-26596,92754,FE,26595,STEVEN SCHULTZ,Employer,26596,ARTHRITIS FOUNDATION,22-May,6/7/2022,16140.0,ARTHRITIS FOUNDATION,7923.08,0.0,7923.08,0.0,0.0,0.0,0.0,0.0,0.0,0.0,7923.08,26596.0,Direct,,,View report (https://accesshub.pdc.wa.gov/node/92754),Health Care,Accumulator Adjustment Programs,State Legislature
110203,92703-70233,92703,FE,49611,Devon S. Connor-Green,Employer,70233,ASSN OF ADV PRACTICE PSYCHIATRIC NURSES,22-May,6/7/2022,16147.0,ASSN OF ADV PRACTICE PSYCHIATRIC NURSES,1250.0,0.0,1250.0,0.0,0.0,0.0,0.0,0.0,0.0,0.0,1250.0,70233.0,Direct,,,View report (https://accesshub.pdc.wa.gov/node/92703),Health Care,Health Care,"H Health Care, S Health Care"
110204,92708-38087,92708,FE,17407,Martin Flynn Public Affairs Inc,Employer,38087,SANOFI US,22-May,6/7/2022,16178.0,SANOFI US,3750.0,0.0,3750.0,0.0,0.0,0.0,0.0,0.0,0.0,0.0,3750.0,38087.0,Direct,,,View report (https://accesshub.pdc.wa.gov/node/92708),Health Care,Health Care,"Senate HC, House HCW"
110205,92662-19210,92662,FE,17779,MCBRIDE PUBLIC AFFAIRS LLC*,Employer,19210,BOEING,22-May,6/7/2022,16201.0,BOEING,10000.0,0.0,10000.0,0.0,0.0,0.0,0.0,0.0,0.0,0.0,10000.0,19210.0,Direct,,,View report (https://accesshub.pdc.wa.gov/node/92662),Transportation,TRANSPORTATION,TRANSPORTATION LABOR EDUCATION DOR
110206,92708-18305,92708,FE,17407,Martin Flynn Public Affairs Inc,Employer,18305,FORTERRA,22-May,6/7/2022,16234.0,FORTERRA,4000.0,0.0,4000.0,0.0,0.0,0.0,0.0,0.0,0.0,0.0,4000.0,18305.0,Direct,,,View report (https://accesshub.pdc.wa.gov/node/92708),Local government,Local Government,"Local Government, Captial Budget"
110207,92708-18306,92708,FE,17407,Martin Flynn Public Affairs Inc,Employer,18306,CENTRAL PUGET SOUND REGIONAL TRANSIT AUTHORITY / SOUND TRANSIT,22-May,6/7/2022,16245.0,CENTRAL PUGET SOUND REGIONAL TRANSIT AUTHORITY / SOUND TRANSIT,7000.0,0.0,7000.0,0.0,0.0,0.0,0.0,0.0,0.0,0.0,7000.0,18306.0,Direct,,,View report (https://accesshub.pdc.wa.gov/node/92708),Transportation,Transportation,Transportation
110208,92703-86707,92703,FE,49611,Devon S. Connor-Green,Employer,86707,Children's Alliance,22-May,6/7/2022,16256.0,Children's Alliance,3500.0,0.0,3500.0,0.0,0.0,0.0,0.0,0.0,0.0,0.0,3500.0,86707.0,Direct,,,View report (https://accesshub.pdc.wa.gov/node/92703),,,
110209,92662-19211,92662,FE,17779,MCBRIDE PUBLIC AFFAIRS LLC*,Employer,19211,CITY OF BELLINGHAM,22-May,6/7/2022,16276.0,CITY OF BELLINGHAM,2500.0,-1666.67,833.33,0.0,0.0,0.0,0.0,0.0,0.0,0.0,833.33,19211.0,Direct,,,View report (https://accesshub.pdc.wa.gov/node/92662),Local government,Economic Development,MTCA BUDGET LOCAL GOVERNMENT TRANSPORTATION
110210,92662-19212,92662,FE,17779,MCBRIDE PUBLIC AFFAIRS LLC*,Employer,19212,CITY OF KENNEWICK,22-May,6/7/2022,16290.0,CITY OF KENNEWICK,4120.0,-2746.66,1373.34,0.0,0.0,0.0,0.0,0.0,0.0,0.0,1373.34,19212.0,Direct,,,View report (https://accesshub.pdc.wa.gov/node/92662),Transportation,transportation,House Senate All
110211,92662-49669,92662,FE,17779,MCBRIDE PUBLIC AFFAIRS LLC*,Employer,49669,Molson Coors Beverage Company USA LLC,22-May,6/7/2022,16366.0,Molson Coors Beverage Company USA LLC,4333.0,0.0,4333.0,0.0,0.0,0.0,0.0,0.0,0.0,0.0,4333.0,49669.0,Direct,,,View report (https://accesshub.pdc.wa.gov/node/92662),Labor,Labor,House Commerce & Gaming AND Senate Labor & Commerce
110212,92662-19214,92662,FE,17779,MCBRIDE PUBLIC AFFAIRS LLC*,Employer,19214,DART CONTAINER CORP (THROUGH MULTISTATE ASSOCIATES LLC),22-May,6/7/2022,16379.0,DART CONTAINER CORP (THROUGH MULTISTATE ASSOCIATES LLC),3500.0,0.0,3500.0,0.0,0.0,0.0,0.0,0.0,0.0,0.0,3500.0,19214.0,Direct,,,View report (https://accesshub.pdc.wa.gov/node/92662),Environmental Affairs - natural resources - parks,ENVIRONMENT,ENVIRONMENT LABOR
110213,92663-19290,92663,FE,17813,MILLENNIA PUBLIC AFFAIRS INC*,Employer,19290,DISH Network Corporation,22-May,6/7/2022,16390.0,DISH Network Corporation,3000.0,0.0,3000.0,0.0,0.0,0.0,0.0,0.0,0.0,0.0,3000.0,19290.0,Direct,,,View report (https://accesshub.pdc.wa.gov/node/92663),Business and consumer affairs,BUSINESS AND CONSUMER AFFAIRS,BUSINESS AND CONSUMER AFFAIRS
110214,92786-19784,92786,FE,18036,SUSAN S TRACY,Employer,19784,EVERGREEN TREATMENT SERVICES,22-May,6/7/2022,16424.0,EVERGREEN TREATMENT SERVICES,1200.0,0.0,1200.0,0.0,0.0,0.0,0.0,0.0,0.0,0.0,1200.0,19784.0,Direct,,,View report (https://accesshub.pdc.wa.gov/node/92786),Human services,substance use disorder treatment,hc
110215,86226-70168,86226,FE,69512,Sound Government Solutions,Employer,70168,FORD MOTOR CO,21-Dec,6/7/2022,16449.0,FORD MOTOR CO,1000.0,0.0,1000.0,0.0,0.0,0.0,0.0,0.0,0.0,0.0,1000.0,70168.0,Direct,,,View report (https://accesshub.pdc.wa.gov/node/86226),Transportation,Auto Manufacturing,Transportation Cmtes
110216,92703-80023,92703,FE,49611,Devon S. Connor-Green,Employer,80023,GILEAD SCIENCES INC,22-May,6/7/2022,16471.0,GILEAD SCIENCES INC,5000.0,0.0,5000.0,0.0,0.0,0.0,0.0,0.0,0.0,0.0,5000.0,80023.0,Direct,,,View report (https://accesshub.pdc.wa.gov/node/92703),Health Care,Health Care,All House & Senate
110217,92662-19217,92662,FE,17779,MCBRIDE PUBLIC AFFAIRS LLC*,Employer,19217,HONDA NORTH AMERICA (THRU MULTISTATE ASSOCIATES LLC),22-May,6/7/2022,16510.0,HONDA NORTH AMERICA (THRU MULTISTATE ASSOCIATES LLC),3500.0,0.0,3500.0,0.0,0.0,0.0,0.0,0.0,0.0,0.0,3500.0,19217.0,Direct,,,View report (https://accesshub.pdc.wa.gov/node/92662),Environmental Affairs - natural resources - parks,Environmental Affairs,TRANSPORTATION PUBLIC SAFETY
110218,92791-86296,92791,FE,86295,Chad Campbell,Employer,86296,INTL UNION OF OPERATING ENGINEERS LOCAL 612,22-May,6/7/2022,16554.0,INTL UNION OF OPERATING ENGINEERS LOCAL 612,203.6,0.0,203.6,0.0,0.0,0.0,0.0,0.0,0.0,0.0,203.6,86296.0,Direct,,,View report (https://accesshub.pdc.wa.gov/node/92791),Labor,"Apprenticeship, Construction, Project Funding","Legislative Transportation, Budget & Policy Committee, Members/Leadership, L&I, WSDOT"
110219,86226-78013,86226,FE,69512,Sound Government Solutions,Employer,78013,JAMESTOWN S'KLALLAM TRIBE,21-Dec,6/7/2022,16557.0,JAMESTOWN S'KLALLAM TRIBE,6000.0,0.0,6000.0,0.0,0.0,2000.0,0.0,0.0,0.0,2000.0,8000.0,78013.0,Direct,,,View report (https://accesshub.pdc.wa.gov/node/86226),Environmental Affairs - natural resources - parks,Tribal Matters,Various
110220,92662-19218,92662,FE,17779,MCBRIDE PUBLIC AFFAIRS LLC*,Employer,19218,KITSAP CO,22-May,6/7/2022,16580.0,KITSAP CO,5500.0,0.0,5500.0,0.0,0.0,0.0,0.0,0.0,0.0,0.0,5500.0,19218.0,Direct,,,View report (https://accesshub.pdc.wa.gov/node/92662),Local government,Local Government,REVENUE LOCAL GOV TRANSPORTATION
110221,92662-19219,92662,FE,17779,MCBRIDE PUBLIC AFFAIRS LLC*,Employer,19219,McDonalds Corporation,22-May,6/7/2022,16625.0,McDonalds Corporation,3333.33,0.0,3333.33,0.0,0.0,0.0,0.0,0.0,0.0,0.0,3333.33,19219.0,Direct,,,View report (https://accesshub.pdc.wa.gov/node/92662),Business and consumer affairs,COMMERCE,LABOR COMMERCE AND LABOR
110222,92663-19292,92663,FE,17813,MILLENNIA PUBLIC AFFAIRS INC*,Employer,19292,MetLife,22-May,6/7/2022,16634.0,MetLife,2500.0,0.0,2500.0,0.0,0.0,0.0,0.0,0.0,0.0,0.0,2500.0,19292.0,Direct,,,View report (https://accesshub.pdc.wa.gov/node/92663),Financial institutions and insurance,2306 6146,House Senate All
110223,92662-69394,92662,FE,17779,MCBRIDE PUBLIC AFFAIRS LLC*,Employer,69394,MT SPOKANE 2000,22-May,6/7/2022,16649.0,MT SPOKANE 2000,3000.0,0.0,3000.0,0.0,0.0,0.0,0.0,0.0,0.0,0.0,3000.0,69394.0,Direct,,,View report (https://accesshub.pdc.wa.gov/node/92662),State government,"Parks, environment, fiscal, labor",House Senate All - Department of Commerce
110224,92662-19221,92662,FE,17779,MCBRIDE PUBLIC AFFAIRS LLC*,Employer,19221,NATIONAL ELEVATOR INDUSTRY INC,22-May,6/7/2022,16663.0,NATIONAL ELEVATOR INDUSTRY INC,4000.0,0.0,4000.0,0.0,0.0,0.0,0.0,0.0,0.0,0.0,4000.0,19221.0,Direct,,,View report (https://accesshub.pdc.wa.gov/node/92662),Business and consumer affairs,COMMERCE,ELEVATOR REGS L&I LABOR COMMERCE
110225,92771-19249,92771,FE,17792,DAN MCGRADY,Employer,19249,PEMCO Insurance,22-May,6/7/2022,16770.0,PEMCO Insurance,4750.0,0.0,4750.0,0.0,0.0,2500.0,0.0,0.0,0.0,2500.0,7250.0,19249.0,Direct,,,View report (https://accesshub.pdc.wa.gov/node/92771),Financial institutions and insurance,Insurance,"CPB, BFT, OIC"
110226,92769-50642,92769,FE,50641,Karen Lang,Employer,50642,PEMCO Insurance,22-May,6/7/2022,16770.0,PEMCO Insurance,500.0,0.0,500.0,0.0,0.0,0.0,0.0,0.0,0.0,0.0,500.0,50642.0,Direct,,,View report (https://accesshub.pdc.wa.gov/node/92769),Financial institutions and insurance,Insurance,"CPB, BFT, OIC"
110227,86226-70172,86226,FE,69512,Sound Government Solutions,Employer,70172,PHARMACEUTICAL CARE MANAGEMENT ASSN,21-Dec,6/7/2022,16775.0,PHARMACEUTICAL CARE MANAGEMENT ASSN,5000.0,0.0,5000.0,0.0,0.0,0.0,0.0,0.0,0.0,0.0,5000.0,70172.0,Direct,,,View report (https://accesshub.pdc.wa.gov/node/86226),Health Care,Health Care,"OIC, HCA, Health Care Cmtes"
110228,92662-19222,92662,FE,17779,MCBRIDE PUBLIC AFFAIRS LLC*,Employer,19222,PORT OF BELLINGHAM,22-May,6/7/2022,16792.0,PORT OF BELLINGHAM,2500.0,-1666.66,833.34,0.0,0.0,0.0,0.0,0.0,0.0,0.0,833.34,19222.0,Direct,,,View report (https://accesshub.pdc.wa.gov/node/92662),Local government,MTCA,BUDGET LOCAL GOVT TRANSPORTATION
110229,92663-58858,92663,FE,17813,MILLENNIA PUBLIC AFFAIRS INC*,Employer,58858,PRE-PAID LEGAL SERVICES INC,22-May,6/7/2022,16811.0,PRE-PAID LEGAL SERVICES INC,7000.0,0.0,7000.0,0.0,0.0,0.0,0.0,0.0,0.0,0.0,7000.0,58858.0,Direct,,,View report (https://accesshub.pdc.wa.gov/node/92663),Business and consumer affairs,Business,House Senate All
110230,86226-70186,86226,FE,69512,Sound Government Solutions,Employer,70186,Progressive,21-Dec,6/7/2022,16816.0,Progressive,5833.33,0.0,5833.33,0.0,0.0,0.0,0.0,0.0,0.0,0.0,5833.33,70186.0,Direct,,,View report (https://accesshub.pdc.wa.gov/node/86226),Financial institutions and insurance,Insurance,"OIC, Business Cmtes"
110231,92782-18118,92782,FE,17329,"Advocates, Inc.",Employer,18118,PUYALLUP TRIBE OF INDIANS,22-May,6/7/2022,16835.0,PUYALLUP TRIBE OF INDIANS,7000.0,0.0,7000.0,0.0,0.0,0.0,0.0,0.0,0.0,0.0,7000.0,18118.0,Direct,,,View report (https://accesshub.pdc.wa.gov/node/92782),Environmental Affairs - natural resources - parks,various,various
110232,92662-19224,92662,FE,17779,MCBRIDE PUBLIC AFFAIRS LLC*,Employer,19224,QUEST DIAGNOSTICS,22-May,6/7/2022,16836.0,QUEST DIAGNOSTICS,5000.0,0.0,5000.0,0.0,0.0,0.0,0.0,0.0,0.0,0.0,5000.0,19224.0,Direct,,,View report (https://accesshub.pdc.wa.gov/node/92662),Health Care,HEALTH CARE (Opioid prescribing rule making),"MEDICAID HEALTH CARE AUTHORITY, DEPT. OF HEALTH"
110233,86226-70239,86226,FE,69512,Sound Government Solutions,Employer,70239,REGENCE BLUE SHIELD,21-Dec,6/7/2022,16849.0,REGENCE BLUE SHIELD,15000.0,0.0,15000.0,0.0,0.0,0.0,0.0,0.0,0.0,0.0,15000.0,70239.0,Direct,,,View report (https://accesshub.pdc.wa.gov/node/86226),Health Care,Health Care,"OIC, Health Care & Business Cmtes"
110234,92663-19295,92663,FE,17813,MILLENNIA PUBLIC AFFAIRS INC*,Employer,19295,ROWLEY PROPERTIES INC,22-May,6/7/2022,16864.0,ROWLEY PROPERTIES INC,4000.0,0.0,4000.0,0.0,0.0,0.0,0.0,0.0,0.0,0.0,4000.0,19295.0,Direct,,,View report (https://accesshub.pdc.wa.gov/node/92663),Business and consumer affairs,BUSINESS AND CONSUMER AFFAIRS,BUSINESS AND CONSUMER AFFAIRS
110235,92770-19775,92770,FE,18034,The Nichols Group Government Relations LLC,Employer,19775,SCHNITZER STEEL INDUSTRIES INC,22-May,6/7/2022,16878.0,SCHNITZER STEEL INDUSTRIES INC,3804.0,0.0,3804.0,0.0,0.0,0.0,0.0,0.0,0.0,0.0,3804.0,19775.0,Direct,,,View report (https://accesshub.pdc.wa.gov/node/92770),Environmental Affairs - natural resources - parks,"Recycling, manufacturing","Environmental Committees, Dept. of Ecology, Governor's Office"
110236,92708-18310,92708,FE,17407,Martin Flynn Public Affairs Inc,Employer,18310,BANK OF AMERICA CORP,22-May,6/7/2022,16887.0,BANK OF AMERICA CORP,5000.0,0.0,5000.0,0.0,0.0,0.0,0.0,0.0,0.0,0.0,5000.0,18310.0,Direct,,,View report (https://accesshub.pdc.wa.gov/node/92708),Financial institutions and insurance,Business and Financial Services,FI&I
110239,92662-68909,92662,FE,17779,MCBRIDE PUBLIC AFFAIRS LLC*,Employer,68909,SPOKANE PUBLIC FACILITIES DIST,22-May,6/7/2022,16942.0,SPOKANE PUBLIC FACILITIES DIST,3000.0,0.0,3000.0,0.0,0.0,0.0,0.0,0.0,0.0,0.0,3000.0,68909.0,Direct,,,View report (https://accesshub.pdc.wa.gov/node/92662),Fiscal,"local government, fiscal",House Senate All - Department of Commerce
110240,92662-68980,92662,FE,17779,MCBRIDE PUBLIC AFFAIRS LLC*,Employer,68980,Superior Court Judges Association,22-May,6/7/2022,16960.0,Superior Court Judges Association,8750.0,0.0,8750.0,0.0,0.0,0.0,0.0,0.0,0.0,0.0,8750.0,68980.0,Direct,,,View report (https://accesshub.pdc.wa.gov/node/92662),Law and justice,"Judiciary, human services, local government","House Senate All - Department of Corrections, Administrative Office of the Courts"
110241,92662-75131,92662,FE,17779,MCBRIDE PUBLIC AFFAIRS LLC*,Employer,75131,SURPLUS LINE ASSN OF WA,22-May,6/7/2022,16962.0,SURPLUS LINE ASSN OF WA,7500.0,0.0,7500.0,0.0,0.0,0.0,0.0,0.0,0.0,0.0,7500.0,75131.0,Direct,,,View report (https://accesshub.pdc.wa.gov/node/92662),Financial institutions and insurance,"Insurance, OIC, Business",House Senate All
110242,92663-19296,92663,FE,17813,MILLENNIA PUBLIC AFFAIRS INC*,Employer,19296,Marathon Petroleum Corporation and its Subsidiaries,22-May,6/7/2022,16980.0,Marathon Petroleum Corporation and its Subsidiaries,6000.0,0.0,6000.0,0.0,0.0,0.0,0.0,0.0,0.0,0.0,6000.0,19296.0,Direct,,,View report (https://accesshub.pdc.wa.gov/node/92663),Business and consumer affairs,BUSINESS AND CONSUMER AFFAIRS,BUSINESS AND CONSUMER AFFAIRS
110243,92662-19225,92662,FE,17779,MCBRIDE PUBLIC AFFAIRS LLC*,Employer,19225,THYSSENKRUPP ELEVATOR,22-May,6/7/2022,16983.0,THYSSENKRUPP ELEVATOR,5000.0,0.0,5000.0,0.0,0.0,0.0,0.0,0.0,0.0,0.0,5000.0,19225.0,Direct,,,View report (https://accesshub.pdc.wa.gov/node/92662),Labor,COMMERCE LABOR,LABOR & INDUSTRIES
110244,92662-86735,92662,FE,17779,MCBRIDE PUBLIC AFFAIRS LLC*,Employer,86735,Uber Technologies Inc and Affiliates,22-May,6/7/2022,17001.0,Uber Technologies Inc and Affiliates,5000.0,0.0,5000.0,0.0,0.0,0.0,0.0,0.0,0.0,0.0,5000.0,86735.0,Direct,,,View report (https://accesshub.pdc.wa.gov/node/92662),Labor,labor,House Senate All
110245,92662-71478,92662,FE,17779,MCBRIDE PUBLIC AFFAIRS LLC*,Employer,71478,UNION PACIFIC RAILROAD CO,22-May,6/7/2022,17004.0,UNION PACIFIC RAILROAD CO,4666.0,0.0,4666.0,0.0,0.0,0.0,0.0,0.0,0.0,0.0,4666.0,71478.0,Direct,,,View report (https://accesshub.pdc.wa.gov/node/92662),Transportation,"Transportation, commerce, fiscal, environment, labor",Senate and House All - Utilities and Transportation Commission
110246,86226-70173,86226,FE,69512,Sound Government Solutions,Employer,70173,USAA,21-Dec,6/7/2022,17012.0,USAA,4398.49,0.0,4398.49,0.0,0.0,0.0,0.0,0.0,0.0,0.0,4398.49,70173.0,Direct,,,View report (https://accesshub.pdc.wa.gov/node/86226),Financial institutions and insurance,Banking,"OIC, DFI, Business Committees"
110247,92663-19298,92663,FE,17813,MILLENNIA PUBLIC AFFAIRS INC*,Employer,19298,UNIVERSITY OF WASHINGTON,22-May,6/7/2022,17021.0,UNIVERSITY OF WASHINGTON,4500.0,0.0,4500.0,0.0,0.0,0.0,0.0,0.0,0.0,0.0,4500.0,19298.0,Direct,,,View report (https://accesshub.pdc.wa.gov/node/92663),Business and consumer affairs,Business & Consumer Affairs,Business & Consumer Affairs
110248,86226-70187,86226,FE,69512,Sound Government Solutions,Employer,70187,Veritec Solutions,21-Dec,6/7/2022,17031.0,Veritec Solutions,2000.0,0.0,2000.0,0.0,0.0,0.0,0.0,0.0,0.0,0.0,2000.0,70187.0,Direct,,,View report (https://accesshub.pdc.wa.gov/node/86226),Financial institutions and insurance,Payday Lending,DFI
110249,92770-19776,92770,FE,18034,The Nichols Group Government Relations LLC,Employer,19776,ARROW LAUNCH SERVICES INC,22-May,6/7/2022,17034.0,ARROW LAUNCH SERVICES INC,1000.0,0.0,1000.0,0.0,0.0,0.0,0.0,0.0,0.0,0.0,1000.0,19776.0,Direct,,,View report (https://accesshub.pdc.wa.gov/node/92770),Transportation,Marine transportation / services,"Transportation / environmental committees, UTC, Governor's Office"
110250,92663-19299,92663,FE,17813,MILLENNIA PUBLIC AFFAIRS INC*,Employer,19299,WA AGGREGATES & CONCRETE ASSN,22-May,6/7/2022,17048.0,WA AGGREGATES & CONCRETE ASSN,5000.0,0.0,5000.0,0.0,0.0,0.0,0.0,0.0,0.0,0.0,5000.0,19299.0,Direct,,,View report (https://accesshub.pdc.wa.gov/node/92663),Business and consumer affairs,BUSINESS AND CONSUMER AFFAIRS,BUSINESS AND CONSUMER AFFAIRS
110251,92786-19786,92786,FE,18036,SUSAN S TRACY,Employer,19786,WA ACADEMY OF EYE PHYSICIANS & SURGEONS,22-May,6/7/2022,17051.0,WA ACADEMY OF EYE PHYSICIANS & SURGEONS,6000.0,0.0,6000.0,0.0,0.0,0.0,0.0,0.0,0.0,0.0,6000.0,19786.0,Direct,,,View report (https://accesshub.pdc.wa.gov/node/92786),Health Care,medical eye care and surgery,hc
110252,86226-70169,86226,FE,69512,Sound Government Solutions,Employer,70169,WA BANKERS ASSN,21-Dec,6/7/2022,17061.0,WA BANKERS ASSN,5000.0,0.0,5000.0,0.0,0.0,0.0,0.0,0.0,0.0,0.0,5000.0,70169.0,Direct,,,View report (https://accesshub.pdc.wa.gov/node/86226),Financial institutions and insurance,Banking,"OIC, DFI, Business Cmtes"
110253,92786-19789,92786,FE,18036,SUSAN S TRACY,Employer,19789,"WA Chapter, ACEP",22-May,6/7/2022,17069.0,"WA Chapter, ACEP",1500.0,0.0,1500.0,0.0,0.0,0.0,0.0,0.0,0.0,0.0,1500.0,19789.0,Direct,,,View report (https://accesshub.pdc.wa.gov/node/92786),Health Care,"emergency response, cardiac stroke study",hc
110254,92770-19778,92770,FE,18034,The Nichols Group Government Relations LLC,Employer,19778,WA CHRISTMAS TREE GROWERS,22-May,6/7/2022,17090.0,WA CHRISTMAS TREE GROWERS,750.0,0.0,750.0,0.0,0.0,0.0,0.0,0.0,0.0,0.0,750.0,19778.0,Direct,,,View report (https://accesshub.pdc.wa.gov/node/92770),Agriculture,"Land use, taxation","Agricultural committees, Dept of Agriculture, Governor's Office"
110255,92792-29932,92792,FE,29929,Sean P Pickard,Employer,29932,Delta Dental of WA,22-May,6/7/2022,17096.0,Delta Dental of WA,1000.0,0.0,1000.0,299.0,0.0,0.0,0.0,0.0,0.0,299.0,1299.0,29932.0,Direct,,,View report (https://accesshub.pdc.wa.gov/node/92792),Health Care,"Health care, oral health","Committees with health care jurisdiction, OIC, HBE"
110256,92762-18940,92762,FE,17616,Heather Hansen,Employer,18940,WA FARM FORESTRY ASSN,22-May,6/7/2022,17111.0,WA FARM FORESTRY ASSN,2800.0,0.0,2800.0,0.0,0.0,0.0,0.0,0.0,0.0,0.0,2800.0,18940.0,Direct,,,View report (https://accesshub.pdc.wa.gov/node/92762),Environmental Affairs - natural resources - parks,forestry,natural resources
110257,92762-18941,92762,FE,17616,Heather Hansen,Employer,18941,WA FRIENDS OF FARMS & FORESTS,22-May,6/7/2022,17114.0,WA FRIENDS OF FARMS & FORESTS,997.3,0.0,997.3,0.0,0.0,0.0,0.0,0.0,0.0,0.0,997.3,18941.0,Direct,,,View report (https://accesshub.pdc.wa.gov/node/92762),Agriculture,agriculture,agriculture
110258,92770-19779,92770,FE,18034,The Nichols Group Government Relations LLC,Employer,19779,COMMUNITY BANKERS OF WA,22-May,6/7/2022,17132.0,COMMUNITY BANKERS OF WA,3000.0,0.0,3000.0,0.0,0.0,0.0,0.0,0.0,0.0,0.0,3000.0,19779.0,Direct,,,View report (https://accesshub.pdc.wa.gov/node/92770),Financial institutions and insurance,Banking Issues,"Senate Financial Institutions & Insurance Committee; House Business & Financial Services Committee, WA Dept. of Financial Institutions, WA State Treasurer, Governor's Office"
110259,92662-19226,92662,FE,17779,MCBRIDE PUBLIC AFFAIRS LLC*,Employer,19226,WA ASSN OF JUVENILE COURT ADMINISTRATORS,22-May,6/7/2022,17139.0,WA ASSN OF JUVENILE COURT ADMINISTRATORS,3825.0,0.0,3825.0,0.0,0.0,0.0,0.0,0.0,0.0,0.0,3825.0,19226.0,Direct,,,View report (https://accesshub.pdc.wa.gov/node/92662),Law and justice,REHABILITATON,JUVENILE SERVICES BUDGET
110260,92662-19227,92662,FE,17779,MCBRIDE PUBLIC AFFAIRS LLC*,Employer,19227,Far West Agribusiness Association,22-May,6/7/2022,17142.0,Far West Agribusiness Association,2876.4,0.0,2876.4,0.0,0.0,0.0,0.0,0.0,0.0,0.0,2876.4,19227.0,Direct,,,View report (https://accesshub.pdc.wa.gov/node/92662),Environmental Affairs - natural resources - parks,Environment,TAXATION WORKERS COMP ENVIRONMENT
110261,92770-19780,92770,FE,18034,The Nichols Group Government Relations LLC,Employer,19780,WASHINGTON LIQUOR STORE ASSOCIATION,22-May,6/7/2022,17145.0,WASHINGTON LIQUOR STORE ASSOCIATION,2000.0,0.0,2000.0,0.0,0.0,0.0,0.0,0.0,0.0,0.0,2000.0,19780.0,Direct,,,View report (https://accesshub.pdc.wa.gov/node/92770),Business and consumer affairs,Liquor Issues,"House Commerce & Gaming Committee, Senate Labor & Commerce Committee, WA State Liquor & Cannabis Board, Governor's Office"
110262,86226-71009,86226,FE,69512,Sound Government Solutions,Employer,71009,Washington Land Title Association,21-Dec,6/7/2022,17146.0,Washington Land Title Association,5000.0,0.0,5000.0,0.0,0.0,0.0,0.0,0.0,0.0,0.0,5000.0,71009.0,Direct,,,View report (https://accesshub.pdc.wa.gov/node/86226),Financial institutions and insurance,Matters relating to real property,"OIC, Business Cmtes, Judiciary Cmtes & DOL"
110263,92785-19242,92785,FE,17788,JOSH D MCDONALD,Employer,19242,WA WINE INSTITUTE,22-May,6/7/2022,17211.0,WA WINE INSTITUTE,3000.0,0.0,3000.0,0.0,0.0,0.0,0.0,0.0,0.0,0.0,3000.0,19242.0,Direct,,,View report (https://accesshub.pdc.wa.gov/node/92785),Business and consumer affairs,"Alcohol, Regulations","Liquor and Cannabis Board, Department of Commerce"
110264,92762-37289,92762,FE,17616,Heather Hansen,Employer,37289,WA ST GRANGE,22-May,6/7/2022,17251.0,WA ST GRANGE,3500.0,0.0,3500.0,0.0,0.0,0.0,0.0,0.0,0.0,0.0,3500.0,37289.0,Direct,,,View report (https://accesshub.pdc.wa.gov/node/92762),Agriculture,agriculture,agriculture
110265,92762-18943,92762,FE,17616,Heather Hansen,Employer,18943,WA ST NURSERY & LANDSCAPE ASSN,22-May,6/7/2022,17266.0,WA ST NURSERY & LANDSCAPE ASSN,1500.0,0.0,1500.0,0.0,0.0,0.0,0.0,0.0,0.0,0.0,1500.0,18943.0,Direct,,,View report (https://accesshub.pdc.wa.gov/node/92762),Agriculture,agriculture,agriculture
110266,92786-19793,92786,FE,18036,SUSAN S TRACY,Employer,19793,WA ST SOC OF ORAL/MAXILLOFACIAL SURGERY,22-May,6/7/2022,17285.0,WA ST SOC OF ORAL/MAXILLOFACIAL SURGERY,2000.0,0.0,2000.0,0.0,0.0,0.0,0.0,0.0,0.0,0.0,2000.0,19793.0,Direct,,,View report (https://accesshub.pdc.wa.gov/node/92786),Health Care,oral surgery practice,hc
110267,92662-19228,92662,FE,17779,MCBRIDE PUBLIC AFFAIRS LLC*,Employer,19228,Whatcom Co,22-May,6/7/2022,17307.0,Whatcom Co,2500.0,-1666.66,833.34,0.0,0.0,0.0,0.0,0.0,0.0,0.0,833.34,19228.0,Direct,,,View report (https://accesshub.pdc.wa.gov/node/92662),Local government,HOUSING,BUDGET LOCAL GOVT TRANSPORTATION
110268,92662-71629,92662,FE,17779,MCBRIDE PUBLIC AFFAIRS LLC*,Employer,71629,WHATCOM CO COUNCIL OF GOVERNMENTS,22-May,6/7/2022,17308.0,WHATCOM CO COUNCIL OF GOVERNMENTS,3793.0,0.0,3793.0,0.0,0.0,0.0,0.0,0.0,0.0,0.0,3793.0,71629.0,Direct,,,View report (https://accesshub.pdc.wa.gov/node/92662),Fiscal,fiscal,"House Senate All, Transportation & Fiscal Committees"
110269,86226-70190,86226,FE,69512,Sound Government Solutions,Employer,70190,Republic National Distributing Company,21-Dec,6/7/2022,17324.0,Republic National Distributing Company,4500.0,0.0,4500.0,0.0,0.0,0.0,0.0,0.0,0.0,0.0,4500.0,70190.0,Direct,,,View report (https://accesshub.pdc.wa.gov/node/86226),Business and consumer affairs,Liquor Regulation,"Senate Labor & Commerce, House Commerce & Gaming"
110270,92770-48658,92770,FE,18034,The Nichols Group Government Relations LLC,Employer,48658,WILLAPA-GRAYS HARBOR OYSTER GROWERS ASSN,22-May,6/7/2022,23612.0,WILLAPA-GRAYS HARBOR OYSTER GROWERS ASSN,1500.0,0.0,1500.0,0.0,0.0,0.0,0.0,0.0,0.0,0.0,1500.0,48658.0,Direct,,,View report (https://accesshub.pdc.wa.gov/node/92770),Agriculture,Agriculture Issues,"House and Senate Agriculture Committees, Dept. of Ecology, Dept. of Natural Resources, Dept. of Agriculture, Governor's Office"
110271,92663-27670,92663,FE,17813,MILLENNIA PUBLIC AFFAIRS INC*,Employer,27670,"Jazz Pharmaceuticals, Inc. and its subsidiaries, including Greenwich Biosciences, Inc.",22-May,6/7/2022,27659.0,"Jazz Pharmaceuticals, Inc. and its subsidiaries, including Greenwich Biosciences, Inc.",3500.0,0.0,3500.0,0.0,0.0,0.0,0.0,0.0,0.0,0.0,3500.0,27670.0,Direct,,,View report (https://accesshub.pdc.wa.gov/node/92663),Business and consumer affairs,Business & Consumer Affairs,House Senate All
110272,86226-71234,86226,FE,69512,Sound Government Solutions,Employer,71234,"Teladoc Health, Inc.",21-Dec,6/7/2022,29480.0,"Teladoc Health, Inc.",9000.0,0.0,9000.0,0.0,0.0,0.0,0.0,0.0,0.0,0.0,9000.0,71234.0,Direct,,,View report (https://accesshub.pdc.wa.gov/node/86226),Health Care,Telehealth,"OIC, HCA, Medical Commission & Health Care Cmtes"
110273,92662-30638,92662,FE,17779,MCBRIDE PUBLIC AFFAIRS LLC*,Employer,30638,Growth Energy,22-May,6/7/2022,30635.0,Growth Energy,5000.0,0.0,5000.0,0.0,0.0,0.0,0.0,0.0,0.0,0.0,5000.0,30638.0,Direct,,,View report (https://accesshub.pdc.wa.gov/node/92662),Agriculture,Agriculture,House Senate All
110274,92770-38900,92770,FE,18034,The Nichols Group Government Relations LLC,Employer,38900,Cooke Aquaculture Pacific LLC,22-May,6/7/2022,38899.0,Cooke Aquaculture Pacific LLC,5000.0,0.0,5000.0,0.0,0.0,0.0,0.0,0.0,0.0,0.0,5000.0,38900.0,Direct,,,View report (https://accesshub.pdc.wa.gov/node/92770),Agriculture,Net-pen aquaculture issues,"Senate & House Agriculture Committees, Dept. of Ecology, Dept. of Fish & Wildlife, Dept. of Natural Resources, Dept. of Agriculture, Governor's Office"
110275,92770-39130,92770,FE,18034,The Nichols Group Government Relations LLC,Employer,39130,City of Shelton,22-May,6/7/2022,39118.0,City of Shelton,2000.0,0.0,2000.0,0.0,0.0,0.0,0.0,0.0,0.0,0.0,2000.0,39130.0,Direct,,,View report (https://accesshub.pdc.wa.gov/node/92770),Fiscal,Transportation and Capital Budget Requests,"Senate Ways & Means, Senate Transportation, House Capital Budget, House Transportation, WA State Patrol, WSDOT, Governor's Office"
110276,92770-45630,92770,FE,18034,The Nichols Group Government Relations LLC,Employer,45630,Capital Region ESD 113,22-May,6/7/2022,45627.0,Capital Region ESD 113,4000.0,0.0,4000.0,0.0,0.0,0.0,0.0,0.0,0.0,0.0,4000.0,45630.0,Direct,,,View report (https://accesshub.pdc.wa.gov/node/92770),Education,Education Funding and Policy Issues,"House and Senate Education Committees, House Appropriations Committee, Senate Ways & Means Committee, Superintendent of Public Instruction, Governor's Office"
110277,92662-55702,92662,FE,17779,MCBRIDE PUBLIC AFFAIRS LLC*,Employer,55702,"Magellan Health, Inc.",22-May,6/7/2022,55701.0,"Magellan Health, Inc.",5000.0,0.0,5000.0,0.0,0.0,0.0,0.0,0.0,0.0,0.0,5000.0,55702.0,Direct,,,View report (https://accesshub.pdc.wa.gov/node/92662),Health Care,Health Care,House Senate All
110278,92770-62174,92770,FE,18034,The Nichols Group Government Relations LLC,Employer,62174,American Promotional Events Northwest Inc. DBA TNT Fireworks,22-May,6/7/2022,62169.0,American Promotional Events Northwest Inc. DBA TNT Fireworks,5000.0,0.0,5000.0,0.0,0.0,0.0,0.0,0.0,0.0,0.0,5000.0,62174.0,Direct,,,View report (https://accesshub.pdc.wa.gov/node/92770),Local government,Consumer Fireworks-related issues,"House and Senate Local Government Committee, WA State Fire Marshall, Governor's Office"
110279,92663-62583,92663,FE,17813,MILLENNIA PUBLIC AFFAIRS INC*,Employer,62583,Philips North America,22-May,6/7/2022,62582.0,Philips North America,6000.0,0.0,6000.0,0.0,0.0,0.0,0.0,0.0,0.0,0.0,6000.0,62583.0,Direct,,,View report (https://accesshub.pdc.wa.gov/node/92663),Business and consumer affairs,Health Care Business Privacy,All House Senate
110280,92770-74747,92770,FE,18034,The Nichols Group Government Relations LLC,Employer,74747,"National Shooting Sports Foundation, Inc.",22-May,6/7/2022,64804.0,"National Shooting Sports Foundation, Inc.",4000.0,-1500.0,2500.0,0.0,603.23,0.0,0.0,0.0,0.0,603.23,3103.23,74747.0,Direct,,,View report (https://accesshub.pdc.wa.gov/node/92770),Law and justice,"Firearm Manufacturer, Retailer, and Shooting Range Issues",House Civil Rights & Judiciary and Senate Law & Justice Committees
110281,92762-68642,92762,FE,17616,Heather Hansen,Employer,68642,Washington State Golf Association (dba Washington Golf),22-May,6/7/2022,68640.0,Washington State Golf Association (dba Washington Golf),1250.0,0.0,1250.0,0.0,0.0,0.0,0.0,0.0,0.0,0.0,1250.0,68642.0,Direct,,,View report (https://accesshub.pdc.wa.gov/node/92762),Fiscal,taxes,Revenue
110282,92662-75031,92662,FE,17779,MCBRIDE PUBLIC AFFAIRS LLC*,Employer,75031,NIC Inc.,22-May,6/7/2022,74785.0,NIC Inc.,5000.0,0.0,5000.0,0.0,0.0,0.0,0.0,0.0,0.0,0.0,5000.0,75031.0,Direct,,,View report (https://accesshub.pdc.wa.gov/node/92662),State government,State Government,"House Senate All DOL, ESD, HCA, DOH, DSHS, OCIO"
110283,92662-80296,92662,FE,17779,MCBRIDE PUBLIC AFFAIRS LLC*,Employer,80296,"Horizon Therapeutics USA, Inc.",22-May,6/7/2022,80293.0,"Horizon Therapeutics USA, Inc.",5000.0,0.0,5000.0,0.0,0.0,0.0,0.0,0.0,0.0,0.0,5000.0,80296.0,Direct,,,View report (https://accesshub.pdc.wa.gov/node/92662),Business and consumer affairs,Business & Consumer Affairs,House Senate All
110284,92662-81253,92662,FE,17779,MCBRIDE PUBLIC AFFAIRS LLC*,Employer,81253,S. C. Johnson & Son,22-May,6/7/2022,81208.0,S. C. Johnson & Son,5000.0,0.0,5000.0,0.0,0.0,0.0,0.0,0.0,0.0,0.0,5000.0,81253.0,Direct,,,View report (https://accesshub.pdc.wa.gov/node/92662),Environmental Affairs - natural resources - parks,Environment,House Senate All
110285,92770-85231,92770,FE,18034,The Nichols Group Government Relations LLC,Employer,85231,Commonwealth Real Estate Services,22-May,6/7/2022,85230.0,Commonwealth Real Estate Services,5000.0,0.0,5000.0,0.0,0.0,0.0,0.0,0.0,0.0,0.0,5000.0,85231.0,Direct,,,View report (https://accesshub.pdc.wa.gov/node/92770),Business and consumer affairs,Manufactured Park and Housing Issues,"House Housing, Human Services & Veterans Committee, Senate Housing & Local Government Committee"
110286,92662-87226,92662,FE,17779,MCBRIDE PUBLIC AFFAIRS LLC*,Employer,87226,Organon LLC,22-May,6/7/2022,87223.0,Organon LLC,5000.0,0.0,5000.0,0.0,0.0,0.0,0.0,0.0,0.0,0.0,5000.0,87226.0,Direct,,,View report (https://accesshub.pdc.wa.gov/node/92662),Health Care,Women's Health Care,"DOH, DSHS, HCA"
110287,92663-88605,92663,FE,17813,MILLENNIA PUBLIC AFFAIRS INC*,Employer,88605,"DirecTV, LLC",22-May,6/7/2022,88599.0,"DirecTV, LLC",3000.0,0.0,3000.0,0.0,0.0,0.0,0.0,0.0,0.0,0.0,3000.0,88605.0,Direct,,,View report (https://accesshub.pdc.wa.gov/node/92663),Business and consumer affairs,Business,House Senate All
110288,92818-80418,92818,FE,80417,Penny Lipsou,Employer,80418,AMERICAN HEART ASSN,22-May,6/8/2022,16108.0,AMERICAN HEART ASSN,700.0,0.0,700.0,0.0,0.0,0.0,0.0,0.0,0.0,0.0,700.0,80418.0,Direct,,,View report (https://accesshub.pdc.wa.gov/node/92818),Health Care,tobacco use prevention and public health,WA DOH
110289,92804-18216,92804,FE,17367,ROBERT A BATTLES,Employer,18216,ASSN OF WA BUSINESS,22-May,6/8/2022,16167.0,ASSN OF WA BUSINESS,6974.37,0.0,6974.37,0.0,0.0,0.0,0.0,0.0,0.0,0.0,6974.37,18216.0,Direct,,,View report (https://accesshub.pdc.wa.gov/node/92804),State government,,
110290,92801-18428,92801,FE,17440,GARY CHANDLER,Employer,18428,ASSN OF WA BUSINESS,22-May,6/8/2022,16167.0,ASSN OF WA BUSINESS,1083.34,0.0,1083.34,0.0,0.0,0.0,0.0,0.0,0.0,0.0,1083.34,18428.0,Direct,,,View report (https://accesshub.pdc.wa.gov/node/92801),State government,,
110291,92802-18670,92802,FE,17525,MICHAEL W ENNIS,Employer,18670,ASSN OF WA BUSINESS,22-May,6/8/2022,16167.0,ASSN OF WA BUSINESS,6188.59,0.0,6188.59,0.0,0.0,0.0,0.0,0.0,0.0,0.0,6188.59,18670.0,Direct,,,View report (https://accesshub.pdc.wa.gov/node/92802),State government,,
110292,92798-19021,92798,FE,17673,AMY ANDERSON,Employer,19021,ASSN OF WA BUSINESS,22-May,6/8/2022,16167.0,ASSN OF WA BUSINESS,1278.49,0.0,1278.49,0.0,0.0,0.0,0.0,0.0,0.0,0.0,1278.49,19021.0,Direct,,,View report (https://accesshub.pdc.wa.gov/node/92798),State government,,
110293,92803-50652,92803,FE,49538,PETER GODLEWSKI,Employer,50652,ASSN OF WA BUSINESS,22-May,6/8/2022,16167.0,ASSN OF WA BUSINESS,1060.9,0.0,1060.9,0.0,0.0,0.0,0.0,0.0,0.0,0.0,1060.9,50652.0,Direct,,,View report (https://accesshub.pdc.wa.gov/node/92803),State government,,
110294,92805-61799,92805,FE,61439,TOMMY J GANTZ,Employer,61799,ASSN OF WA BUSINESS,22-May,6/8/2022,16167.0,ASSN OF WA BUSINESS,2227.89,0.0,2227.89,0.0,0.0,0.0,0.0,0.0,0.0,0.0,2227.89,61799.0,Direct,,,View report (https://accesshub.pdc.wa.gov/node/92805),State government,,
110295,92799-70136,92799,FE,17775,DAVE MASTIN,Employer,70136,ASSN OF WA BUSINESS,22-May,6/8/2022,16167.0,ASSN OF WA BUSINESS,3833.34,0.0,3833.34,0.0,0.0,0.0,0.0,0.0,0.0,0.0,3833.34,70136.0,Direct,,,View report (https://accesshub.pdc.wa.gov/node/92799),State government,,
110296,92783-47055,92783,FE,47054,Barbara Morrow,Employer,47055,"ASTELLAS PHARMA US, INC.",22-May,6/8/2022,16174.0,"ASTELLAS PHARMA US, INC.",240.0,0.0,240.0,0.0,0.0,0.0,0.0,0.0,0.0,0.0,240.0,47055.0,Direct,,,View report (https://accesshub.pdc.wa.gov/node/92783),Health Care,Possible legislative issues in the 2023 session,Legislature
110297,92820-19108,92820,FE,17723,THOMAS W KWIECIAK,Employer,19108,BUILDING INDUSTRY ASSN OF WA,22-May,6/8/2022,16215.0,BUILDING INDUSTRY ASSN OF WA,7500.0,0.0,7500.0,0.0,0.0,0.0,0.0,0.0,0.0,0.0,7500.0,19108.0,Direct,,,View report (https://accesshub.pdc.wa.gov/node/92820),Labor,Workers' Compensation,L&I
110298,92820-19109,92820,FE,17723,THOMAS W KWIECIAK,Employer,19109,CAPITAL BENEFIT SERVICES,22-May,6/8/2022,16226.0,CAPITAL BENEFIT SERVICES,4050.0,0.0,4050.0,0.0,0.0,0.0,0.0,0.0,0.0,0.0,4050.0,19109.0,Direct,,,View report (https://accesshub.pdc.wa.gov/node/92820),,,
110299,92823-49819,92823,FE,36433,Sermonti Public Affairs,Employer,49819,COMCAST CABLE COMMUNICATIONS,22-May,6/8/2022,16344.0,COMCAST CABLE COMMUNICATIONS,5000.0,0.0,5000.0,0.0,0.0,0.0,0.0,0.0,0.0,0.0,5000.0,49819.0,Direct,,,View report (https://accesshub.pdc.wa.gov/node/92823),Business and consumer affairs,Telecom consumer affairs,WA State Legislature
110300,92823-75731,92823,FE,36433,Sermonti Public Affairs,Employer,75731,"HABITAT FOR HUMANITY OF WA ST (Lobby Washington, LLC )",22-May,6/8/2022,16489.0,HABITAT FOR HUMANITY OF WA ST,1100.0,0.0,1100.0,0.0,0.0,0.0,0.0,0.0,0.0,0.0,1100.0,75731.0,Subcontract,73982.0,"Lobby Washington, LLC",View report (https://accesshub.pdc.wa.gov/node/92823),,,
