,id,report_number,origin,filer_id,filer_name,type,funding_source_id,funding_source_name,filing_period,receipt_date,employer_id,employer_name,compensation,sub_lobbyist_compensation,net_compensation,personal_expenses,entertainment,contributions,advertising,political_ads,other,total_expenses,net_total,employment_registration_id,employment_type,contractor_id,contractor_name,url,legislation_subject_matter,issue_bill_number,committee_lobbied
15011,29313-19466,29313,FE,17897,POTTS & ASSOC*,Employer,19466,CATTLE PRODUCERS OF WA,17-Jan,2/23/2017,16240.0,CATTLE PRODUCERS OF WA,7150.0,0.0,7150.0,0.0,0.0,0.0,0.0,0.0,0.0,0.0,7150.0,19466.0,Direct,,,View report (https://accesshub.pdc.wa.gov/node/29313),Agriculture,"Beef commission, beef checkoff, brand inspection program, and cougar & wolf issues","House & Senate Ag committees, Environment committee"
15012,30688-18114,30688,FE,17329,"Advocates, Inc.",Employer,18114,CHECK INTO CASH (THRU MULTISTATE),16-Dec,2/23/2017,16252.0,CHECK INTO CASH (THRU MULTISTATE),1099.29,0.0,1099.29,0.0,0.0,0.0,0.0,0.0,0.0,0.0,1099.29,18114.0,Direct,,,View report (https://accesshub.pdc.wa.gov/node/30688),,,
15015,29313-19467,29313,FE,17897,POTTS & ASSOC*,Employer,19467,DOUGLAS CO COMMISSION,17-Jan,2/23/2017,16394.0,DOUGLAS CO COMMISSION,3960.0,0.0,3960.0,0.0,0.0,0.0,0.0,0.0,0.0,0.0,3960.0,19467.0,Direct,,,View report (https://accesshub.pdc.wa.gov/node/29313),Local government,"Land use, transportation budgets, local funding, local authority, and public records requests.",All legislative committees and applicable agencies
15017,30702-18237,30702,FE,17380,Paul B Benz,Employer,18237,FAITH ACTION NETWORK,17-Jan,2/23/2017,16432.0,FAITH ACTION NETWORK,903.01,0.0,903.01,476.6,0.0,0.0,0.0,0.0,0.0,476.6,1379.61,18237.0,Direct,,,View report (https://accesshub.pdc.wa.gov/node/30702),State government,SB 5607; HB 1500; HB 1508/SB 5696; HB 1508/SB 5696; HB 1300/SB 5527; HB 1301/SB 5528; HB 1302; HB 1506/SB 5140; HB 1482/SB 5440; HB 1116/SB 5032; HB 1529/SB 5073; SB 5465; HB 1783; HB 1935/SB 5354; HB 1129/SB 5069; HB 1298/SB 5312; HB 1789/SB 5600; HB 174,WA State Legislators
15018,29313-19468,29313,FE,17897,POTTS & ASSOC*,Employer,19468,FERRY CO COMMISSION,17-Jan,2/23/2017,16440.0,FERRY CO COMMISSION,3330.0,0.0,3330.0,0.0,0.0,0.0,0.0,0.0,0.0,0.0,3330.0,19468.0,Direct,,,View report (https://accesshub.pdc.wa.gov/node/29313),Local government,"Land use, transportation budgets, local funding, local authority, and public records requests.",All legislative committees and applicable agencies
15019,29313-19469,29313,FE,17897,POTTS & ASSOC*,Employer,19469,FRANKLIN CO COMMISSION,17-Jan,2/23/2017,16453.0,FRANKLIN CO COMMISSION,5280.0,0.0,5280.0,0.0,0.0,0.0,0.0,0.0,0.0,0.0,5280.0,19469.0,Direct,,,View report (https://accesshub.pdc.wa.gov/node/29313),,,
15021,29313-19470,29313,FE,17897,POTTS & ASSOC*,Employer,19470,GRANT CO COMMISSION,17-Jan,2/23/2017,16479.0,GRANT CO COMMISSION,5280.0,0.0,5280.0,0.0,0.0,0.0,0.0,0.0,0.0,0.0,5280.0,19470.0,Direct,,,View report (https://accesshub.pdc.wa.gov/node/29313),Local government,"Land use, transportation budgets, local funding, local authority, and public records requests.",All legislative committees and applicable agencies
15022,25606-18651,25606,FE,17520,Emerick & Bloom,Employer,18651,HOME CARE ASSN OF WA,16-Aug,2/23/2017,16509.0,HOME CARE ASSN OF WA,3200.0,0.0,3200.0,332.45,0.0,0.0,0.0,0.0,0.0,332.45,3532.45,18651.0,Direct,,,View report (https://accesshub.pdc.wa.gov/node/25606),Health Care,Home Health Care,"HCA, DOH, Health Care Committees"
15023,29313-19471,29313,FE,17897,POTTS & ASSOC*,Employer,19471,KLICKITAT CO COMMISSION,17-Jan,2/23/2017,16583.0,KLICKITAT CO COMMISSION,11000.0,0.0,11000.0,0.0,0.0,0.0,0.0,0.0,0.0,0.0,11000.0,19471.0,Direct,,,View report (https://accesshub.pdc.wa.gov/node/29313),Local government,"Land use, transportation budgets, local funding, local authority, and public records requests.",All legislative committees and applicable agencies
15025,29313-19472,29313,FE,17897,POTTS & ASSOC*,Employer,19472,LINCOLN CO COMMISSION,17-Jan,2/23/2017,16608.0,LINCOLN CO COMMISSION,3300.0,0.0,3300.0,0.0,0.0,0.0,0.0,0.0,0.0,0.0,3300.0,19472.0,Direct,,,View report (https://accesshub.pdc.wa.gov/node/29313),Local government,"Land use, transportation budgets, local funding, local authority, and public records requests.",All legislative committees and applicable agencies
15026,30688-18115,30688,FE,17329,"Advocates, Inc.",Employer,18115,"Moneytree, Inc.",16-Dec,2/23/2017,16643.0,"Moneytree, Inc.",1134.75,0.0,1134.75,0.0,0.0,0.0,0.0,0.0,0.0,0.0,1134.75,18115.0,Direct,,,View report (https://accesshub.pdc.wa.gov/node/30688),Business and consumer affairs,financial,House Business and Financial Institutions
15028,30688-18116,30688,FE,17329,"Advocates, Inc.",Employer,18116,NATIONAL GUARD ASSOC OF WA,16-Dec,2/23/2017,16666.0,NATIONAL GUARD ASSOC OF WA,833.33,0.0,833.33,0.0,0.0,0.0,0.0,0.0,0.0,0.0,833.33,18116.0,Direct,,,View report (https://accesshub.pdc.wa.gov/node/30688),Environmental Affairs - natural resources - parks,wildfire,House and Senate Natural Resource Committee(s)
15032,29313-19473,29313,FE,17897,POTTS & ASSOC*,Employer,19473,OKANOGAN CO COMMISSION,17-Jan,2/23/2017,16732.0,OKANOGAN CO COMMISSION,3960.0,0.0,3960.0,0.0,0.0,0.0,0.0,0.0,0.0,0.0,3960.0,19473.0,Direct,,,View report (https://accesshub.pdc.wa.gov/node/29313),Local government,"Land use, transportation budgets, local funding, local authority, and public records requests.",All legislative committees and applicable agencies
15033,29313-19474,29313,FE,17897,POTTS & ASSOC*,Employer,19474,PEND OREILLE CO COMMISSION,17-Jan,2/23/2017,16771.0,PEND OREILLE CO COMMISSION,3300.0,0.0,3300.0,0.0,0.0,0.0,0.0,0.0,0.0,0.0,3300.0,19474.0,Direct,,,View report (https://accesshub.pdc.wa.gov/node/29313),Local government,"Land use, transportation budgets, local funding, local authority, and public records requests.",All legislative committees and applicable agencies
15035,29313-19475,29313,FE,17897,POTTS & ASSOC*,Employer,19475,PORT OF ROYAL SLOPE,17-Jan,2/23/2017,16804.0,PORT OF ROYAL SLOPE,5000.0,0.0,5000.0,0.0,0.0,0.0,0.0,0.0,0.0,0.0,5000.0,19475.0,Direct,,,View report (https://accesshub.pdc.wa.gov/node/29313),Transportation,"Rail transportation, short line rails, and port districts",Transportation and economic development committee
15037,30688-18117,30688,FE,17329,"Advocates, Inc.",Employer,18117,PUBLIC SCHOOL EMPLOYEES OF WA,16-Dec,2/23/2017,16824.0,PUBLIC SCHOOL EMPLOYEES OF WA,3333.34,0.0,3333.34,0.0,0.0,0.0,0.0,0.0,0.0,0.0,3333.34,18117.0,Direct,,,View report (https://accesshub.pdc.wa.gov/node/30688),Education,education,House Education Committee
15038,30688-18118,30688,FE,17329,"Advocates, Inc.",Employer,18118,PUYALLUP TRIBE OF INDIANS,16-Dec,2/23/2017,16835.0,PUYALLUP TRIBE OF INDIANS,14000.0,0.0,14000.0,0.0,0.0,0.0,0.0,0.0,0.0,0.0,14000.0,18118.0,Direct,,,View report (https://accesshub.pdc.wa.gov/node/30688),Environmental Affairs - natural resources - parks,Environment,House and Senate Natural Resource Committee(s)
15041,29313-19476,29313,FE,17897,POTTS & ASSOC*,Employer,19476,STEVENS CO COMMISSION,17-Jan,2/23/2017,16954.0,STEVENS CO COMMISSION,4260.0,0.0,4260.0,0.0,0.0,0.0,0.0,0.0,0.0,0.0,4260.0,19476.0,Direct,,,View report (https://accesshub.pdc.wa.gov/node/29313),Local government,"Land use, transportation budgets, local funding, local authority, and public records requests.",All legislative committees and applicable agencies
15046,25606-18652,25606,FE,17520,Emerick & Bloom,Employer,18652,Home Care Association of America,16-Aug,2/23/2017,17168.0,Home Care Association of America,1500.0,0.0,1500.0,0.0,0.0,0.0,0.0,0.0,0.0,0.0,1500.0,18652.0,Direct,,,View report (https://accesshub.pdc.wa.gov/node/25606),Health Care,Private Pay Home Care,"HCA, DOH, Health Care Committees"
15047,30707-19493,30707,FE,17902,Ryan Pricco,Employer,19493,Child Care Aware of WA,17-Jan,2/23/2017,17231.0,Child Care Aware of WA,4539.47,0.0,4539.47,489.96,0.0,0.0,0.0,0.0,0.0,489.96,5029.43,19493.0,Direct,,,View report (https://accesshub.pdc.wa.gov/node/30707),Education,child care,"DEL, House Appropriations, Senate Ways & Means, Senate Early Learning & K-12 Education, House Early Learning & Human Services"
15048,25606-18653,25606,FE,17520,Emerick & Bloom,Employer,18653,WA ST HOSPICE & PALLIATIVE CARE ORG,16-Aug,2/23/2017,17255.0,WA ST HOSPICE & PALLIATIVE CARE ORG,3500.0,0.0,3500.0,0.0,0.0,0.0,0.0,0.0,0.0,0.0,3500.0,18653.0,Direct,,,View report (https://accesshub.pdc.wa.gov/node/25606),Health Care,Hospice,"HCA, DOH, Health Care Committees"
15050,29313-19477,29313,FE,17897,POTTS & ASSOC*,Employer,19477,WHITMAN CO COMMISSION,17-Jan,2/23/2017,17309.0,WHITMAN CO COMMISSION,4620.0,0.0,4620.0,0.0,0.0,0.0,0.0,0.0,0.0,0.0,4620.0,19477.0,Direct,,,View report (https://accesshub.pdc.wa.gov/node/29313),Local government,"Land use, transportation budgets, local funding, local authority, and public records requests.",All legislative committees and applicable agencies
15051,26312-18649,26312,FE,17520,Emerick & Bloom,Employer,18649,Washington Acupuncture and Eastern Medicine Association,16-Sep,2/24/2017,16067.0,Washington Acupuncture and Eastern Medicine Association,3000.0,0.0,3000.0,0.0,0.0,0.0,0.0,0.0,0.0,0.0,3000.0,18649.0,Direct,,,View report (https://accesshub.pdc.wa.gov/node/26312),Health Care,East Asian Medicine-Acupuncture,"L & I, DOH, Health Care Committees"
15052,26312-18650,26312,FE,17520,Emerick & Bloom,Employer,18650,ARNPS UNITED OF WA ST,16-Sep,2/24/2017,16070.0,ARNPS UNITED OF WA ST,1500.0,0.0,1500.0,0.0,0.0,0.0,0.0,0.0,0.0,0.0,1500.0,18650.0,Direct,,,View report (https://accesshub.pdc.wa.gov/node/26312),Health Care,ARNPs Issues,"DOH, HCA"
15053,26312-18651,26312,FE,17520,Emerick & Bloom,Employer,18651,HOME CARE ASSN OF WA,16-Sep,2/24/2017,16509.0,HOME CARE ASSN OF WA,3200.0,0.0,3200.0,0.0,0.0,0.0,0.0,0.0,0.0,0.0,3200.0,18651.0,Direct,,,View report (https://accesshub.pdc.wa.gov/node/26312),Health Care,Home Health Care,"HCA, DOH, Health Care Committees"
15054,27076-18301,27076,FE,17402,STEVE BREAUX,Employer,18301,PLANNED PARENTHOOD ALLIANCE ADVOCATES,16-Oct,2/24/2017,16789.0,PLANNED PARENTHOOD ALLIANCE ADVOCATES,683.43,0.0,683.43,89.17,39.59,0.0,0.0,0.0,0.0,128.76,812.19,18301.0,Direct,,,View report (https://accesshub.pdc.wa.gov/node/27076),Health Care,Reproductive Healthcare,"Reps. Lytton, Robinson, Van De Wege, Tarleton; Sens. Conway, Hobbs; OIC; DSHS"
15055,28853-18301,28853,FE,17402,STEVE BREAUX,Employer,18301,PLANNED PARENTHOOD ALLIANCE ADVOCATES,16-Dec,2/24/2017,16789.0,PLANNED PARENTHOOD ALLIANCE ADVOCATES,287.76,0.0,287.76,218.19,43.72,0.0,0.0,0.0,535.0,796.91,1084.67,18301.0,Direct,,,View report (https://accesshub.pdc.wa.gov/node/28853),Health Care,HB 1234; healthcare funding,"Stonier, Stambuagh, Lovick, Sullivan, Chapman, Kagi, Senn, Jinkins, Robinson, Palumbo, Hudgins, Cody, Nelson"
15056,30194-26123,30194,FE,17645,BILL HINKLE,Employer,26123,OPTOMETRIC PHYSICIANS OF WA,17-Jan,2/24/2017,17057.0,OPTOMETRIC PHYSICIANS OF WA,4000.0,0.0,4000.0,0.0,122.22,0.0,0.0,0.0,0.0,122.22,4122.22,26123.0,Direct,,,View report (https://accesshub.pdc.wa.gov/node/30194),Health Care,5411541014631473,"Healthcare committee, Ways and Means, leadership in both houses"
15057,24754-19251,24754,FE,17794,JEANETTE MCKAGUE,Employer,19251,WA ASSN OF REALTORS,16-Aug,2/24/2017,17059.0,WA ASSN OF REALTORS,4500.0,0.0,4500.0,0.0,0.0,0.0,0.0,0.0,0.0,0.0,4500.0,19251.0,Direct,,,View report (https://accesshub.pdc.wa.gov/node/24754),State government,Housing,Dept. of Commerce
15058,26559-19251,26559,FE,17794,JEANETTE MCKAGUE,Employer,19251,WA ASSN OF REALTORS,16-Oct,2/24/2017,17059.0,WA ASSN OF REALTORS,4500.0,0.0,4500.0,0.0,0.0,0.0,0.0,0.0,0.0,0.0,4500.0,19251.0,Direct,,,View report (https://accesshub.pdc.wa.gov/node/26559),State government,Building Codes,SBCC
15059,27879-19251,27879,FE,17794,JEANETTE MCKAGUE,Employer,19251,WA ASSN OF REALTORS,16-Nov,2/24/2017,17059.0,WA ASSN OF REALTORS,4500.0,0.0,4500.0,0.0,0.0,0.0,0.0,0.0,0.0,0.0,4500.0,19251.0,Direct,,,View report (https://accesshub.pdc.wa.gov/node/27879),Local government,State Building Codes,State Building Code Council
15060,28903-19251,28903,FE,17794,JEANETTE MCKAGUE,Employer,19251,WA ASSN OF REALTORS,16-Dec,2/24/2017,17059.0,WA ASSN OF REALTORS,4500.0,0.0,4500.0,0.0,0.0,0.0,0.0,0.0,0.0,0.0,4500.0,19251.0,Direct,,,View report (https://accesshub.pdc.wa.gov/node/28903),State government,Building Codes,State Building Code Council
15061,26312-18652,26312,FE,17520,Emerick & Bloom,Employer,18652,Home Care Association of America,16-Sep,2/24/2017,17168.0,Home Care Association of America,1500.0,0.0,1500.0,335.16,0.0,0.0,0.0,0.0,0.0,335.16,1835.16,18652.0,Direct,,,View report (https://accesshub.pdc.wa.gov/node/26312),Health Care,Private Pay Home Care,"HCA, DOH, Health Care Committees"
15062,26312-18653,26312,FE,17520,Emerick & Bloom,Employer,18653,WA ST HOSPICE & PALLIATIVE CARE ORG,16-Sep,2/24/2017,17255.0,WA ST HOSPICE & PALLIATIVE CARE ORG,3500.0,0.0,3500.0,260.9,0.0,0.0,0.0,0.0,0.0,260.9,3760.9,18653.0,Direct,,,View report (https://accesshub.pdc.wa.gov/node/26312),Health Care,Hospice,"HCA, DOH, Health Care Committees"
15063,28287-18801,28287,FE,17578,JEFFREY S GOMBOSKY,Employer,18801,ANHEUSER-BUSCH COMPANIES INC,16-Dec,2/25/2017,16128.0,ANHEUSER-BUSCH COMPANIES INC,5000.0,0.0,5000.0,0.0,0.0,0.0,0.0,0.0,0.0,0.0,5000.0,18801.0,Direct,,,View report (https://accesshub.pdc.wa.gov/node/28287),,,
15077,28287-18803,28287,FE,17578,JEFFREY S GOMBOSKY,Employer,18803,ENTERPRISE HOLDINGS LLC,16-Dec,2/25/2017,16396.0,ENTERPRISE HOLDINGS LLC,1650.0,0.0,1650.0,0.0,0.0,0.0,0.0,0.0,0.0,0.0,1650.0,18803.0,Direct,,,View report (https://accesshub.pdc.wa.gov/node/28287),,,
15078,28287-18804,28287,FE,17578,JEFFREY S GOMBOSKY,Employer,18804,ENERGY FREEDOM COALITION OF AMERICA LLC,16-Dec,2/25/2017,16414.0,ENERGY FREEDOM COALITION OF AMERICA LLC,4000.0,0.0,4000.0,0.0,0.0,0.0,0.0,0.0,0.0,0.0,4000.0,18804.0,Direct,,,View report (https://accesshub.pdc.wa.gov/node/28287),,,
15079,28287-18805,28287,FE,17578,JEFFREY S GOMBOSKY,Employer,18805,KALISPEL TRIBE,16-Dec,2/25/2017,16570.0,KALISPEL TRIBE,5000.0,0.0,5000.0,0.0,0.0,0.0,0.0,0.0,0.0,0.0,5000.0,18805.0,Direct,,,View report (https://accesshub.pdc.wa.gov/node/28287),,,
15080,28287-18806,28287,FE,17578,JEFFREY S GOMBOSKY,Employer,18806,"McLANE COMPANY, Inc.",16-Dec,2/25/2017,16626.0,"McLANE COMPANY, Inc.",4000.0,0.0,4000.0,0.0,0.0,0.0,0.0,0.0,0.0,0.0,4000.0,18806.0,Direct,,,View report (https://accesshub.pdc.wa.gov/node/28287),,,
15081,28287-18807,28287,FE,17578,JEFFREY S GOMBOSKY,Employer,18807,MULTICARE HEALTH SYSTEM,16-Dec,2/25/2017,16651.0,MULTICARE HEALTH SYSTEM,5000.0,0.0,5000.0,0.0,0.0,0.0,0.0,0.0,0.0,0.0,5000.0,18807.0,Direct,,,View report (https://accesshub.pdc.wa.gov/node/28287),Fiscal,Capital Budget,"Rep. Christine Kilduff, Rep. Dick Muri,"
15082,28287-18808,28287,FE,17578,JEFFREY S GOMBOSKY,Employer,18808,PHARMACEUTICAL RSRCH/MFG OF AMERICA,16-Dec,2/25/2017,16776.0,PHARMACEUTICAL RSRCH/MFG OF AMERICA,7000.0,0.0,7000.0,0.0,0.0,0.0,0.0,0.0,0.0,0.0,7000.0,18808.0,Direct,,,View report (https://accesshub.pdc.wa.gov/node/28287),,,
15083,28287-18811,28287,FE,17578,JEFFREY S GOMBOSKY,Employer,18811,WA HEALTH CARE ASSN,16-Dec,2/25/2017,17128.0,WA HEALTH CARE ASSN,4000.0,0.0,4000.0,0.0,0.0,0.0,0.0,0.0,0.0,0.0,4000.0,18811.0,Direct,,,View report (https://accesshub.pdc.wa.gov/node/28287),,,
15108,28177-18406,28177,FE,17434,CASCADE GOVT AFFAIRS LLC*,Employer,18406,BETHEL SCHOOL DISTRICT,16-Nov,2/27/2017,16190.0,BETHEL SCHOOL DISTRICT,4000.0,0.0,4000.0,0.0,0.0,0.0,0.0,0.0,0.0,0.0,4000.0,18406.0,Direct,,,View report (https://accesshub.pdc.wa.gov/node/28177),Education,Levy Issues,"Senators Becker and Conway, Rep's Stambaugh, Kilduff, Barkis, McDonald"
15109,30865-24546,30865,FE,17686,Katara Jordan,Employer,24546,BUILDING CHANGES,17-Jan,2/27/2017,16214.0,BUILDING CHANGES,500.5,0.0,500.5,0.0,0.0,0.0,0.0,0.0,0.0,0.0,500.5,24546.0,Direct,,,View report (https://accesshub.pdc.wa.gov/node/30865),Human services,Washington Youth and Families Fund,"Appropriations, Ways & Means, Governor's Office, Commerce"
15110,28177-18407,28177,FE,17434,CASCADE GOVT AFFAIRS LLC*,Employer,18407,CASCADE NATURAL GAS,16-Nov,2/27/2017,16235.0,CASCADE NATURAL GAS,5000.0,0.0,5000.0,0.0,0.0,0.0,0.0,0.0,0.0,0.0,5000.0,18407.0,Direct,,,View report (https://accesshub.pdc.wa.gov/node/28177),,,
15112,24888-20104,24888,FE,17666,ALEX HUR,Employer,20104,Cities Insurance Assn of WA (CAPITOL SOLUTIONS*),16-Jul,2/27/2017,16269.0,Cities Insurance Assn of WA,2440.0,0.0,2440.0,0.0,0.0,0.0,0.0,0.0,0.0,0.0,2440.0,20104.0,Subcontract,17431.0,CAPITOL SOLUTIONS*,View report (https://accesshub.pdc.wa.gov/node/24888),,,
15113,24439-19431,24439,FE,17879,THOMAS M PARKER,Employer,19431,CHSPSC LLC,16-Jul,2/27/2017,16349.0,CHSPSC LLC,6500.0,0.0,6500.0,0.0,0.0,0.0,0.0,0.0,0.0,0.0,6500.0,19431.0,Direct,,,View report (https://accesshub.pdc.wa.gov/node/24439),Health Care,HEALTH CARE,health CARE
15114,26980-19431,26980,FE,17879,THOMAS M PARKER,Employer,19431,CHSPSC LLC,16-Oct,2/27/2017,16349.0,CHSPSC LLC,6500.0,0.0,6500.0,0.0,0.0,0.0,0.0,0.0,0.0,0.0,6500.0,19431.0,Direct,,,View report (https://accesshub.pdc.wa.gov/node/26980),Health Care,HEALTH CARE,SEN HOUSE FISC LBR HEALTH CARE
15116,28177-18409,28177,FE,17434,CASCADE GOVT AFFAIRS LLC*,Employer,18409,DIAGEO,16-Nov,2/27/2017,16387.0,DIAGEO,5000.0,0.0,5000.0,0.0,0.0,0.0,0.0,0.0,0.0,0.0,5000.0,18409.0,Direct,,,View report (https://accesshub.pdc.wa.gov/node/28177),,,
15117,24888-19009,24888,FE,17666,ALEX HUR,Employer,19009,Equity in Education Coalition,16-Jul,2/27/2017,16420.0,Equity in Education Coalition,2000.0,0.0,2000.0,0.0,0.0,0.0,0.0,0.0,0.0,0.0,2000.0,19009.0,Direct,,,View report (https://accesshub.pdc.wa.gov/node/24888),Education,Education,"K-12, Appropriations"
15118,24888-20108,24888,FE,17666,ALEX HUR,Employer,20108,EVERGREEN SCHOOL DIST #114 (CAPITOL SOLUTIONS*),16-Jul,2/27/2017,16423.0,EVERGREEN SCHOOL DIST #114,3350.0,0.0,3350.0,0.0,0.0,0.0,0.0,0.0,0.0,0.0,3350.0,20108.0,Subcontract,17431.0,CAPITOL SOLUTIONS*,View report (https://accesshub.pdc.wa.gov/node/24888),,,
15119,24888-19010,24888,FE,17666,ALEX HUR,Employer,19010,"Meta Platforms, Inc.",16-Jul,2/27/2017,16430.0,"Meta Platforms, Inc.",5000.0,0.0,5000.0,0.0,0.0,0.0,0.0,0.0,0.0,0.0,5000.0,19010.0,Direct,,,View report (https://accesshub.pdc.wa.gov/node/24888),Technology,Tech,"TEC, Law and Justice"
15120,28177-18411,28177,FE,17434,CASCADE GOVT AFFAIRS LLC*,Employer,18411,FRANKLIN PIERCE SCHOOL DISTRICT,16-Nov,2/27/2017,16455.0,FRANKLIN PIERCE SCHOOL DISTRICT,3250.0,0.0,3250.0,0.0,0.0,0.0,0.0,0.0,0.0,0.0,3250.0,18411.0,Direct,,,View report (https://accesshub.pdc.wa.gov/node/28177),Education,Levy Issues,"Senators Becker and Conway, Rep's Stambaugh, Kilduff, McDonald, Barkis"
15121,28177-18412,28177,FE,17434,CASCADE GOVT AFFAIRS LLC*,Employer,18412,FRED MEYER (OXLEY & ASSOC),16-Nov,2/27/2017,16459.0,FRED MEYER (OXLEY & ASSOC),3400.0,0.0,3400.0,0.0,0.0,1500.0,0.0,0.0,0.0,1500.0,4900.0,18412.0,Direct,,,View report (https://accesshub.pdc.wa.gov/node/28177),,,
15122,24439-19432,24439,FE,17879,THOMAS M PARKER,Employer,19432,GONZAGA UNIVERSITY,16-Jul,2/27/2017,16474.0,GONZAGA UNIVERSITY,5000.0,0.0,5000.0,0.0,0.0,0.0,0.0,0.0,0.0,0.0,5000.0,19432.0,Direct,,,View report (https://accesshub.pdc.wa.gov/node/24439),Higher education,higher ed,High Ed
15123,26980-19432,26980,FE,17879,THOMAS M PARKER,Employer,19432,GONZAGA UNIVERSITY,16-Oct,2/27/2017,16474.0,GONZAGA UNIVERSITY,5000.0,0.0,5000.0,0.0,0.0,0.0,0.0,0.0,0.0,0.0,5000.0,19432.0,Direct,,,View report (https://accesshub.pdc.wa.gov/node/26980),Higher education,HIGHER ED,FISCAL HIGHER ED
15124,24888-19011,24888,FE,17666,ALEX HUR,Employer,19011,ONEAMERICA,16-Jul,2/27/2017,16494.0,ONEAMERICA,3000.0,0.0,3000.0,0.0,0.0,0.0,0.0,0.0,0.0,0.0,3000.0,19011.0,Direct,,,View report (https://accesshub.pdc.wa.gov/node/24888),State government,"State Gov, K-12","State Government, K-12, Appropriations"
15125,28177-18413,28177,FE,17434,CASCADE GOVT AFFAIRS LLC*,Employer,18413,INTL CODE COUNCIL,16-Nov,2/27/2017,16539.0,INTL CODE COUNCIL,3500.0,0.0,3500.0,0.0,0.0,0.0,0.0,0.0,0.0,0.0,3500.0,18413.0,Direct,,,View report (https://accesshub.pdc.wa.gov/node/28177),State government,Building Codes and Code Council,"Rep. Buys and Staff, Sen. Schoesler"
15126,24439-19433,24439,FE,17879,THOMAS M PARKER,Employer,19433,KALISPEL TRIBE,16-Jul,2/27/2017,16570.0,KALISPEL TRIBE,4000.0,0.0,4000.0,0.0,0.0,0.0,0.0,0.0,0.0,0.0,4000.0,19433.0,Direct,,,View report (https://accesshub.pdc.wa.gov/node/24439),Labor,Labor,labor
15127,26980-19433,26980,FE,17879,THOMAS M PARKER,Employer,19433,KALISPEL TRIBE,16-Oct,2/27/2017,16570.0,KALISPEL TRIBE,5000.0,0.0,5000.0,0.0,0.0,0.0,0.0,0.0,0.0,0.0,5000.0,19433.0,Direct,,,View report (https://accesshub.pdc.wa.gov/node/26980),Environmental Affairs - natural resources - parks,FISCAL ENVIRONMENT,LABOR HEALTH SEN AND HOUSE ALL
15128,28177-18414,28177,FE,17434,CASCADE GOVT AFFAIRS LLC*,Employer,18414,MARINE VIEW VENTURES,16-Nov,2/27/2017,16618.0,MARINE VIEW VENTURES,3200.0,0.0,3200.0,0.0,0.0,0.0,0.0,0.0,0.0,0.0,3200.0,18414.0,Direct,,,View report (https://accesshub.pdc.wa.gov/node/28177),,,
15130,24439-19434,24439,FE,17879,THOMAS M PARKER,Employer,19434,MT SPOKANE 2000,16-Jul,2/27/2017,16649.0,MT SPOKANE 2000,3000.0,0.0,3000.0,0.0,0.0,0.0,0.0,0.0,0.0,0.0,3000.0,19434.0,Direct,,,View report (https://accesshub.pdc.wa.gov/node/24439),Environmental Affairs - natural resources - parks,parks,parks
15131,26980-19434,26980,FE,17879,THOMAS M PARKER,Employer,19434,MT SPOKANE 2000,16-Oct,2/27/2017,16649.0,MT SPOKANE 2000,3000.0,0.0,3000.0,0.0,0.0,0.0,0.0,0.0,0.0,0.0,3000.0,19434.0,Direct,,,View report (https://accesshub.pdc.wa.gov/node/26980),Environmental Affairs - natural resources - parks,FISCAL,SEN HOUSE FISCAL COMMITTEES
15132,28177-18415,28177,FE,17434,CASCADE GOVT AFFAIRS LLC*,Employer,18415,National Electrical Manufacturers Association (NEMA) c/o MultiState Associates LLC,16-Nov,2/27/2017,16664.0,National Electrical Manufacturers Association (NEMA) c/o MultiState Associates LLC,9000.0,0.0,9000.0,0.0,0.0,0.0,0.0,0.0,0.0,0.0,9000.0,18415.0,Direct,,,View report (https://accesshub.pdc.wa.gov/node/28177),,,
15134,24439-19435,24439,FE,17879,THOMAS M PARKER,Employer,19435,PAYQWICK,16-Jul,2/27/2017,16768.0,PAYQWICK,5000.0,0.0,5000.0,0.0,0.0,0.0,0.0,0.0,0.0,0.0,5000.0,19435.0,Direct,,,View report (https://accesshub.pdc.wa.gov/node/24439),Financial institutions and insurance,Finance,Finance
15135,26980-19435,26980,FE,17879,THOMAS M PARKER,Employer,19435,PAYQWICK,16-Oct,2/27/2017,16768.0,PAYQWICK,2500.0,0.0,2500.0,0.0,0.0,0.0,0.0,0.0,0.0,0.0,2500.0,19435.0,Direct,,,View report (https://accesshub.pdc.wa.gov/node/26980),Financial institutions and insurance,MARIJUANA,SEN HOUSE ALL DOR DFI
15136,28177-26770,28177,FE,17434,CASCADE GOVT AFFAIRS LLC*,Employer,26770,PREPARED RESPONSE,16-Nov,2/27/2017,16813.0,PREPARED RESPONSE,4500.0,0.0,4500.0,0.0,0.0,5000.0,0.0,0.0,0.0,5000.0,9500.0,26770.0,Direct,,,View report (https://accesshub.pdc.wa.gov/node/28177),Education,School Safety Funding,"Rep. McBride, Rep. Elect Stonier, Sen. Honeyford,"
15137,28177-18416,28177,FE,17434,CASCADE GOVT AFFAIRS LLC*,Employer,18416,PUGET SOUND SCHOOL COALITION/KING CO SCHOOL COALITION (THRU K AND L GATES),16-Nov,2/27/2017,16832.0,PUGET SOUND SCHOOL COALITION/KING CO SCHOOL COALITION (THRU K AND L GATES),2750.0,0.0,2750.0,0.0,0.0,0.0,0.0,0.0,0.0,0.0,2750.0,18416.0,Direct,,,View report (https://accesshub.pdc.wa.gov/node/28177),,,
15138,28177-18417,28177,FE,17434,CASCADE GOVT AFFAIRS LLC*,Employer,18417,School Alliance,16-Nov,2/27/2017,16879.0,School Alliance,2750.0,0.0,2750.0,0.0,0.0,0.0,0.0,0.0,0.0,0.0,2750.0,18417.0,Direct,,,View report (https://accesshub.pdc.wa.gov/node/28177),Education,Levy Issues,"Senators Becker and Conway, Rep's Stambaugh, Kilduff, McDonald, Barkis"
15139,24888-19012,24888,FE,17666,ALEX HUR,Employer,19012,SERVICE EMPLOYEES INTL UNION DIST 925,16-Jul,2/27/2017,16904.0,SERVICE EMPLOYEES INTL UNION DIST 925,3500.0,0.0,3500.0,0.0,0.0,0.0,0.0,0.0,0.0,0.0,3500.0,19012.0,Direct,,,View report (https://accesshub.pdc.wa.gov/node/24888),Labor,Labor,"Labor, Early Learning, Appropriations"
15140,24439-19436,24439,FE,17879,THOMAS M PARKER,Employer,19436,SIGNATURE HEALTHCARE SERVICES LLC,16-Jul,2/27/2017,16917.0,SIGNATURE HEALTHCARE SERVICES LLC,2000.0,0.0,2000.0,0.0,0.0,0.0,0.0,0.0,2000.0,2000.0,4000.0,19436.0,Direct,,,View report (https://accesshub.pdc.wa.gov/node/24439),Health Care,health care,health care
15141,26980-19436,26980,FE,17879,THOMAS M PARKER,Employer,19436,SIGNATURE HEALTHCARE SERVICES LLC,16-Oct,2/27/2017,16917.0,SIGNATURE HEALTHCARE SERVICES LLC,2000.0,0.0,2000.0,0.0,0.0,0.0,0.0,0.0,2000.0,2000.0,4000.0,19436.0,Direct,,,View report (https://accesshub.pdc.wa.gov/node/26980),Health Care,HEALTH CARE BUDGET,HEALTH CARE WAYS & MEANS APPROPRIATIONS
15142,24439-19437,24439,FE,17879,THOMAS M PARKER,Employer,19437,SPOKANE PUBLIC FACILITIES DIST,16-Jul,2/27/2017,16942.0,SPOKANE PUBLIC FACILITIES DIST,2000.0,0.0,2000.0,0.0,0.0,0.0,0.0,0.0,0.0,0.0,2000.0,19437.0,Direct,,,View report (https://accesshub.pdc.wa.gov/node/24439),Local government,local govt,local govt
15143,26980-19437,26980,FE,17879,THOMAS M PARKER,Employer,19437,SPOKANE PUBLIC FACILITIES DIST,16-Oct,2/27/2017,16942.0,SPOKANE PUBLIC FACILITIES DIST,2000.0,0.0,2000.0,0.0,0.0,0.0,0.0,0.0,0.0,0.0,2000.0,19437.0,Direct,,,View report (https://accesshub.pdc.wa.gov/node/26980),Local government,LOCAL GOVT,FISCAL SEN HOUSE LOCAL GOVT
15144,24888-19013,24888,FE,17666,ALEX HUR,Employer,19013,STATEWIDE POVERTY ACTION NETWORK,16-Jul,2/27/2017,16952.0,STATEWIDE POVERTY ACTION NETWORK,2000.0,0.0,2000.0,0.0,0.0,0.0,0.0,0.0,0.0,0.0,2000.0,19013.0,Direct,,,View report (https://accesshub.pdc.wa.gov/node/24888),Human services,Human Services,"Human Services, Appropriations"
15145,24439-19438,24439,FE,17879,THOMAS M PARKER,Employer,19438,Superior Court Judges Association,16-Jul,2/27/2017,16960.0,Superior Court Judges Association,8333.33,0.0,8333.33,0.0,0.0,0.0,0.0,0.0,0.0,0.0,8333.33,19438.0,Direct,,,View report (https://accesshub.pdc.wa.gov/node/24439),Law and justice,law and justice,law and justice
15146,26980-19438,26980,FE,17879,THOMAS M PARKER,Employer,19438,Superior Court Judges Association,16-Oct,2/27/2017,16960.0,Superior Court Judges Association,8333.33,0.0,8333.33,0.0,0.0,0.0,0.0,0.0,0.0,0.0,8333.33,19438.0,Direct,,,View report (https://accesshub.pdc.wa.gov/node/26980),Law and justice,JUDICIAL,ADMIN SEN HOUSE FISCAL JUDICIAL CHILD
15147,24439-19439,24439,FE,17879,THOMAS M PARKER,Employer,19439,SURPLUS LINE ASSN OF WA,16-Jul,2/27/2017,16962.0,SURPLUS LINE ASSN OF WA,6000.0,0.0,6000.0,0.0,0.0,0.0,0.0,0.0,0.0,0.0,6000.0,19439.0,Direct,,,View report (https://accesshub.pdc.wa.gov/node/24439),Financial institutions and insurance,insurance,insurance
15148,26980-19439,26980,FE,17879,THOMAS M PARKER,Employer,19439,SURPLUS LINE ASSN OF WA,16-Oct,2/27/2017,16962.0,SURPLUS LINE ASSN OF WA,6000.0,0.0,6000.0,0.0,0.0,0.0,0.0,0.0,0.0,0.0,6000.0,19439.0,Direct,,,View report (https://accesshub.pdc.wa.gov/node/26980),Financial institutions and insurance,INSURANCE,FIN INST INS
15149,28177-18418,28177,FE,17434,CASCADE GOVT AFFAIRS LLC*,Employer,18418,TACOMA PUBLIC SCHOOLS,16-Nov,2/27/2017,16968.0,TACOMA PUBLIC SCHOOLS,5000.0,0.0,5000.0,0.0,0.0,0.0,0.0,0.0,0.0,0.0,5000.0,18418.0,Direct,,,View report (https://accesshub.pdc.wa.gov/node/28177),Education,Levy Issues,"Sen. Becker, Sen. Conway, Rep. Stambaugh, Rep. Kilduff, Rep. Elect McDonald and Rep. Barkis"
15150,24439-19440,24439,FE,17879,THOMAS M PARKER,Employer,19440,UNION PACIFIC RAILROAD CO,16-Jul,2/27/2017,17004.0,UNION PACIFIC RAILROAD CO,4166.0,0.0,4166.0,0.0,0.0,11000.0,0.0,0.0,0.0,11000.0,15166.0,19440.0,Direct,,,View report (https://accesshub.pdc.wa.gov/node/24439),Transportation,transpo,transpo
15151,26980-19440,26980,FE,17879,THOMAS M PARKER,Employer,19440,UNION PACIFIC RAILROAD CO,16-Oct,2/27/2017,17004.0,UNION PACIFIC RAILROAD CO,4166.0,0.0,4166.0,0.0,0.0,13750.0,0.0,0.0,0.0,13750.0,17916.0,19440.0,Direct,,,View report (https://accesshub.pdc.wa.gov/node/26980),Transportation,TRANSPORTATION,TRANS FISCAL ENV
15153,28177-18421,28177,FE,17434,CASCADE GOVT AFFAIRS LLC*,Employer,18421,WA STATE ATHLETIC TRAINERS ASSN,16-Nov,2/27/2017,17218.0,WA STATE ATHLETIC TRAINERS ASSN,750.0,0.0,750.0,0.0,0.0,0.0,0.0,0.0,0.0,0.0,750.0,18421.0,Direct,,,View report (https://accesshub.pdc.wa.gov/node/28177),,,
15154,30858-26570,30858,FE,26569,David Finet,Employer,26570,WA State Community Action Partnership,17-Jan,2/27/2017,17226.0,WA State Community Action Partnership,880.0,0.0,880.0,1.0,0.0,0.0,0.0,0.0,0.0,1.0,881.0,26570.0,Direct,,,View report (https://accesshub.pdc.wa.gov/node/30858),Human services,HB 1980 SB 5647,"Honeyford, Takko, Warnick, Tharinger, Schoesler. Chopp, Ranker"
15155,24439-19441,24439,FE,17879,THOMAS M PARKER,Employer,19441,WA ST CATHOLIC CONFERENCE,16-Jul,2/27/2017,17228.0,WA ST CATHOLIC CONFERENCE,3200.0,0.0,3200.0,0.0,0.0,0.0,0.0,0.0,0.0,0.0,3200.0,19441.0,Direct,,,View report (https://accesshub.pdc.wa.gov/node/24439),Human services,human svs,human svs
15156,26980-19441,26980,FE,17879,THOMAS M PARKER,Employer,19441,WA ST CATHOLIC CONFERENCE,16-Oct,2/27/2017,17228.0,WA ST CATHOLIC CONFERENCE,3200.0,0.0,3200.0,0.0,0.0,0.0,0.0,0.0,0.0,0.0,3200.0,19441.0,Direct,,,View report (https://accesshub.pdc.wa.gov/node/26980),Human services,SOCIAL SVS,SEN HOUSE FISCAL COMMITTEES
15157,28787-19612,28787,FE,17959,EVAN SHEFFELS,Employer,19612,WA ST FARM BUREAU,16-Dec,2/27/2017,17246.0,WA ST FARM BUREAU,4000.0,0.0,4000.0,0.0,0.0,0.0,0.0,0.0,0.0,0.0,4000.0,19612.0,Direct,,,View report (https://accesshub.pdc.wa.gov/node/28787),Agriculture,Ag and Enviro Issues,Ag and Enviro Agencies and Committees
15160,24439-19442,24439,FE,17879,THOMAS M PARKER,Employer,19442,WHATCOM CO COUNCIL OF GOVERNMENTS,16-Jul,2/27/2017,17308.0,WHATCOM CO COUNCIL OF GOVERNMENTS,3399.08,0.0,3399.08,0.0,0.0,0.0,0.0,0.0,0.0,0.0,3399.08,19442.0,Direct,,,View report (https://accesshub.pdc.wa.gov/node/24439),Transportation,transpo,transpoRTATION PUBLIC SAFETY
15161,26980-19442,26980,FE,17879,THOMAS M PARKER,Employer,19442,WHATCOM CO COUNCIL OF GOVERNMENTS,16-Oct,2/27/2017,17308.0,WHATCOM CO COUNCIL OF GOVERNMENTS,3399.08,0.0,3399.08,0.0,0.0,0.0,0.0,0.0,0.0,0.0,3399.08,19442.0,Direct,,,View report (https://accesshub.pdc.wa.gov/node/26980),Transportation,TRANSPORTATION,TRANSPORTATION FISCAL
15169,27610-19431,27610,FE,17879,THOMAS M PARKER,Employer,19431,CHSPSC LLC,16-Nov,2/28/2017,16349.0,CHSPSC LLC,6500.0,0.0,6500.0,0.0,0.0,0.0,0.0,0.0,0.0,0.0,6500.0,19431.0,Direct,,,View report (https://accesshub.pdc.wa.gov/node/27610),Health Care,HEALTH CARE,SEN HOUSE FISC LBR HEALTH CARE
15170,30926-18235,30926,FE,17379,ERICA D HALLOCK,Employer,18235,COUNCIL FOR A STRONG AMERICA,17-Feb,2/28/2017,16372.0,COUNCIL FOR A STRONG AMERICA,800.0,0.0,800.0,0.0,0.0,0.0,0.0,0.0,0.0,0.0,800.0,18235.0,Direct,,,View report (https://accesshub.pdc.wa.gov/node/30926),Education,"early learning; Dept of Children, Youth and Families",Senate Early Learning and K-12/House Early Learning and Human Services/Senate Ways and Means/House Appropriations
15171,30926-18236,30926,FE,17379,ERICA D HALLOCK,Employer,18236,EMPIRE HEALTH FOUNDATION,17-Feb,2/28/2017,16413.0,EMPIRE HEALTH FOUNDATION,200.0,0.0,200.0,0.0,0.0,0.0,0.0,0.0,0.0,0.0,200.0,18236.0,Direct,,,View report (https://accesshub.pdc.wa.gov/node/30926),Human services,performance based contracting,Senate Human Services/House Early Learning and Human Services/House Appropriations/Senate Ways and Means
15172,27610-19432,27610,FE,17879,THOMAS M PARKER,Employer,19432,GONZAGA UNIVERSITY,16-Nov,2/28/2017,16474.0,GONZAGA UNIVERSITY,5000.0,0.0,5000.0,0.0,0.0,0.0,0.0,0.0,0.0,0.0,5000.0,19432.0,Direct,,,View report (https://accesshub.pdc.wa.gov/node/27610),Higher education,HIGHER ED,FISCAL HIGHER ED
15173,30908-18522,30908,FE,17476,ELLICOTT DANDY,Employer,18522,ONEAMERICA,17-Feb,2/28/2017,16494.0,ONEAMERICA,1877.08,0.0,1877.08,0.0,0.0,0.0,0.0,0.0,0.0,0.0,1877.08,18522.0,Direct,,,View report (https://accesshub.pdc.wa.gov/node/30908),Human services,New Americans Program,"House Appropriations, Senate Ways & Means"
15174,27610-19433,27610,FE,17879,THOMAS M PARKER,Employer,19433,KALISPEL TRIBE,16-Nov,2/28/2017,16570.0,KALISPEL TRIBE,5000.0,0.0,5000.0,411.73,0.0,0.0,0.0,0.0,0.0,411.73,5411.73,19433.0,Direct,,,View report (https://accesshub.pdc.wa.gov/node/27610),Environmental Affairs - natural resources - parks,FISCAL ENVIRONMENT,LABOR HEALTH SEN AND HOUSE ALL
15175,27610-19434,27610,FE,17879,THOMAS M PARKER,Employer,19434,MT SPOKANE 2000,16-Nov,2/28/2017,16649.0,MT SPOKANE 2000,3000.0,0.0,3000.0,0.0,0.0,0.0,0.0,0.0,0.0,0.0,3000.0,19434.0,Direct,,,View report (https://accesshub.pdc.wa.gov/node/27610),Environmental Affairs - natural resources - parks,FISCAL,SEN HOUSE FISCAL COMMITTEES
15176,30972-29496,30972,FE,29495,Paula Sardinas,Employer,29496,GoWest Credit Union Association,16-Oct,2/28/2017,16703.0,GoWest Credit Union Association,5100.0,0.0,5100.0,0.0,0.0,250.0,0.0,0.0,0.0,250.0,5350.0,29496.0,Direct,,,View report (https://accesshub.pdc.wa.gov/node/30972),Financial institutions and insurance,Credit Union Update,"Sen. Jan Angel, Rep. Steve Kirby, DFI"
15177,30989-29496,30989,FE,29495,Paula Sardinas,Employer,29496,GoWest Credit Union Association,17-Jan,2/28/2017,16703.0,GoWest Credit Union Association,5625.0,0.0,5625.0,0.0,0.0,0.0,0.0,0.0,0.0,0.0,5625.0,29496.0,Direct,,,View report (https://accesshub.pdc.wa.gov/node/30989),Financial institutions and insurance,"HB 1053/SB 5144, HB 1209/ SB 5396","House Business and Financial Services, Senate Financial Institutions & Insurance, House GOP Caucus, House Democratic Caucus"
15178,27610-19435,27610,FE,17879,THOMAS M PARKER,Employer,19435,PAYQWICK,16-Nov,2/28/2017,16768.0,PAYQWICK,2500.0,0.0,2500.0,0.0,0.0,0.0,0.0,0.0,0.0,0.0,2500.0,19435.0,Direct,,,View report (https://accesshub.pdc.wa.gov/node/27610),Financial institutions and insurance,MARIJUANA,SEN HOUSE ALL DOR DFI
15179,27610-19436,27610,FE,17879,THOMAS M PARKER,Employer,19436,SIGNATURE HEALTHCARE SERVICES LLC,16-Nov,2/28/2017,16917.0,SIGNATURE HEALTHCARE SERVICES LLC,2000.0,0.0,2000.0,0.0,0.0,0.0,0.0,0.0,2000.0,2000.0,4000.0,19436.0,Direct,,,View report (https://accesshub.pdc.wa.gov/node/27610),Health Care,HEALTH CARE BUDGET,HEALTH CARE WAYS & MEANS APPROPRIATIONS
15180,27610-19437,27610,FE,17879,THOMAS M PARKER,Employer,19437,SPOKANE PUBLIC FACILITIES DIST,16-Nov,2/28/2017,16942.0,SPOKANE PUBLIC FACILITIES DIST,2000.0,0.0,2000.0,0.0,0.0,0.0,0.0,0.0,0.0,0.0,2000.0,19437.0,Direct,,,View report (https://accesshub.pdc.wa.gov/node/27610),Local government,LOCAL GOVT,FISCAL SEN HOUSE LOCAL GOVT
15181,27610-19438,27610,FE,17879,THOMAS M PARKER,Employer,19438,Superior Court Judges Association,16-Nov,2/28/2017,16960.0,Superior Court Judges Association,8333.33,0.0,8333.33,0.0,0.0,0.0,0.0,0.0,0.0,0.0,8333.33,19438.0,Direct,,,View report (https://accesshub.pdc.wa.gov/node/27610),Law and justice,JUDICIAL,ADMIN SEN HOUSE FISCAL JUDICIAL CHILD
15182,27610-19439,27610,FE,17879,THOMAS M PARKER,Employer,19439,SURPLUS LINE ASSN OF WA,16-Nov,2/28/2017,16962.0,SURPLUS LINE ASSN OF WA,6000.0,0.0,6000.0,0.0,0.0,0.0,0.0,0.0,0.0,0.0,6000.0,19439.0,Direct,,,View report (https://accesshub.pdc.wa.gov/node/27610),Financial institutions and insurance,INSURANCE,FIN INST INS
15183,27610-19440,27610,FE,17879,THOMAS M PARKER,Employer,19440,UNION PACIFIC RAILROAD CO,16-Nov,2/28/2017,17004.0,UNION PACIFIC RAILROAD CO,4166.0,0.0,4166.0,0.0,0.0,0.0,0.0,0.0,0.0,0.0,4166.0,19440.0,Direct,,,View report (https://accesshub.pdc.wa.gov/node/27610),Transportation,TRANSPORTATION,TRANS FISCAL ENV
15184,27610-19441,27610,FE,17879,THOMAS M PARKER,Employer,19441,WA ST CATHOLIC CONFERENCE,16-Nov,2/28/2017,17228.0,WA ST CATHOLIC CONFERENCE,3200.0,0.0,3200.0,0.0,0.0,0.0,0.0,0.0,0.0,0.0,3200.0,19441.0,Direct,,,View report (https://accesshub.pdc.wa.gov/node/27610),Human services,SOCIAL SVS,SEN HOUSE FISCAL COMMITTEES
15185,27610-19442,27610,FE,17879,THOMAS M PARKER,Employer,19442,WHATCOM CO COUNCIL OF GOVERNMENTS,16-Nov,2/28/2017,17308.0,WHATCOM CO COUNCIL OF GOVERNMENTS,3399.08,0.0,3399.08,0.0,0.0,0.0,0.0,0.0,0.0,0.0,3399.08,19442.0,Direct,,,View report (https://accesshub.pdc.wa.gov/node/27610),Transportation,TRANSPORTATION,TRANSPORTATION FISCAL
15186,30940-26838,30940,FE,17452,Julia Gorton,Employer,26838,WA Hospitality Assn,17-Jan,2/28/2017,26557.0,WA Hospitality Assn,5000.0,0.0,5000.0,0.0,0.0,0.0,0.0,0.0,0.0,0.0,5000.0,26838.0,Direct,,,View report (https://accesshub.pdc.wa.gov/node/30940),State government,Tourism 1123/5251,Legislature - all
15187,30941-26838,30941,FE,17452,Julia Gorton,Employer,26838,WA Hospitality Assn,16-Dec,2/28/2017,26557.0,WA Hospitality Assn,5000.0,0.0,5000.0,0.0,0.0,0.0,0.0,0.0,0.0,0.0,5000.0,26838.0,Direct,,,View report (https://accesshub.pdc.wa.gov/node/30941),State government,tourism,Legislature - all
15236,31024-19910,31024,FE,18102,Bryce Yadon,Employer,19910,FUTUREWISE,17-Feb,3/1/2017,16054.0,FUTUREWISE,1189.8,0.0,1189.8,0.0,0.0,0.0,0.0,0.0,0.0,0.0,1189.8,19910.0,Direct,,,View report (https://accesshub.pdc.wa.gov/node/31024),Environmental Affairs - natural resources - parks,"5239, 1885, 1918","Deptartment of Ecology, House Agcriculture Committee, Senate Agriculture Committee"
15237,31087-18316,31087,FE,17411,LARRY BROWN,Employer,18316,Intl Assn of Machinists & Aerospace Workers Dist Lodge 751,17-Feb,3/1/2017,16072.0,Intl Assn of Machinists & Aerospace Workers Dist Lodge 751,4889.6,0.0,4889.6,0.0,0.0,0.0,0.0,0.0,0.0,0.0,4889.6,18316.0,Direct,,,View report (https://accesshub.pdc.wa.gov/node/31087),Transportation,Aerospace Tax Incentives,Citizens Commissions for Tax Incentive Effectiveness
15238,31084-18976,31084,FE,17647,JON HOLDEN,Employer,18976,Intl Assn of Machinists & Aerospace Workers Dist Lodge 751,17-Feb,3/1/2017,16072.0,Intl Assn of Machinists & Aerospace Workers Dist Lodge 751,586.12,0.0,586.12,0.0,0.0,0.0,0.0,0.0,0.0,0.0,586.12,18976.0,Direct,,,View report (https://accesshub.pdc.wa.gov/node/31084),Transportation,Aerospace Tax Incentives,Citizens Commissions for Tax Incentive Effectiveness
15239,30999-18345,30999,FE,17430,CAPITOL CONNECTION*,Employer,18345,ALLIANCE FOR AUTOMOTIVE INNOVATION,17-Feb,3/1/2017,16081.0,ALLIANCE FOR AUTOMOTIVE INNOVATION,508.33,0.0,508.33,43.3,0.0,0.0,0.0,0.0,0.0,43.3,551.63,18345.0,Direct,,,View report (https://accesshub.pdc.wa.gov/node/30999),Environmental Affairs - natural resources - parks,1738- copper brake pads,Senate Energy Committee
15240,28346-18673,28346,FE,17528,LUKE ESSER,Employer,18673,"Elevance Health, and its Affiliates",16-Dec,3/1/2017,16107.0,"Elevance Health, and its Affiliates",3000.0,0.0,3000.0,0.0,0.0,0.0,0.0,0.0,0.0,0.0,3000.0,18673.0,Direct,,,View report (https://accesshub.pdc.wa.gov/node/28346),Fiscal,Medicaid,Sen. Ways & Means; House Appropriations
15241,29434-18992,29434,FE,17655,LINDSAY HOVIND,Employer,18992,AMERICAN HEART ASSN,17-Jan,3/1/2017,16108.0,AMERICAN HEART ASSN,270.0,0.0,270.0,545.38,0.0,0.0,0.0,0.0,0.0,545.38,815.38,18992.0,Direct,,,View report (https://accesshub.pdc.wa.gov/node/29434),Health Care,"SB5040, HB 1054",house and senate
15242,30996-18216,30996,FE,17367,ROBERT A BATTLES,Employer,18216,ASSN OF WA BUSINESS,16-Dec,3/1/2017,16167.0,ASSN OF WA BUSINESS,6437.5,0.0,6437.5,0.0,0.0,0.0,0.0,0.0,0.0,0.0,6437.5,18216.0,Direct,,,View report (https://accesshub.pdc.wa.gov/node/30996),Law and justice,Employment Law,"L&I, Employment Security"
15243,30997-19354,30997,FE,17843,SHERI NELSON,Employer,19354,ASSN OF WA BUSINESS,16-Dec,3/1/2017,16167.0,ASSN OF WA BUSINESS,3948.34,0.0,3948.34,0.0,0.0,0.0,0.0,0.0,0.0,0.0,3948.34,19354.0,Direct,,,View report (https://accesshub.pdc.wa.gov/node/30997),Health Care,Health Care,"HCA, State Exchange"
15244,31006-19165,31006,FE,17766,RONALD MAIN,Employer,19165,ASSN OF WA SPIRITS & WINE DISTRIBUTORS,17-Jan,3/1/2017,16172.0,ASSN OF WA SPIRITS & WINE DISTRIBUTORS,6300.0,0.0,6300.0,0.0,0.0,0.0,0.0,0.0,0.0,0.0,6300.0,19165.0,Direct,,,View report (https://accesshub.pdc.wa.gov/node/31006),Business and consumer affairs,Alcohol Regulation,Commerce Gaming and Labor committees
15245,31006-19166,31006,FE,17766,RONALD MAIN,Employer,19166,BROADBAND COMMUNICATIONS ASSN OF WA,17-Jan,3/1/2017,16209.0,BROADBAND COMMUNICATIONS ASSN OF WA,7500.0,0.0,7500.0,0.0,0.0,0.0,0.0,0.0,0.0,0.0,7500.0,19166.0,Direct,,,View report (https://accesshub.pdc.wa.gov/node/31006),,,
15247,31006-19168,31006,FE,17766,RONALD MAIN,Employer,19168,CITY OF SEATTLE,17-Jan,3/1/2017,16311.0,CITY OF SEATTLE,2500.0,0.0,2500.0,0.0,0.0,0.0,0.0,0.0,0.0,0.0,2500.0,19168.0,Direct,,,View report (https://accesshub.pdc.wa.gov/node/31006),,,
15248,28346-26311,28346,FE,17528,LUKE ESSER,Employer,26311,CITY OF SPOKANE,16-Dec,3/1/2017,16314.0,CITY OF SPOKANE,1650.0,0.0,1650.0,0.0,0.0,0.0,0.0,0.0,0.0,0.0,1650.0,26311.0,Direct,,,View report (https://accesshub.pdc.wa.gov/node/28346),Environmental Affairs - natural resources - parks,Parks,Sen. Natural Resources & Parks; House Environment
15249,31009-19895,31009,FE,18091,Kristin Wiggins,Employer,19895,COUNCIL FOR A STRONG AMERICA,17-Feb,3/1/2017,16372.0,COUNCIL FOR A STRONG AMERICA,950.0,0.0,950.0,1164.0,0.0,0.0,0.0,0.0,0.0,1164.0,2114.0,19895.0,Direct,,,View report (https://accesshub.pdc.wa.gov/node/31009),Education,"State preschool (ECEAP), expanded learning opportunities/youth program quality","House Appropriations, H Early Learning Human Services, House Capital Budget, Senate Ways and Means, Dept. of Early Learning"
15250,30999-18346,30999,FE,17430,CAPITOL CONNECTION*,Employer,18346,EQUAL JUSTICE COALITION,17-Feb,3/1/2017,16418.0,EQUAL JUSTICE COALITION,5408.33,0.0,5408.33,13.05,0.0,0.0,0.0,0.0,0.0,13.05,5421.38,18346.0,Direct,,,View report (https://accesshub.pdc.wa.gov/node/30999),Law and justice,Low income civil defense,Judiciary Committee
15251,31095-18335,31095,FE,17422,CARL E BURKE,Employer,18335,FISH NW,17-Feb,3/1/2017,16446.0,FISH NW,2500.0,0.0,2500.0,0.0,0.0,0.0,0.0,0.0,0.0,0.0,2500.0,18335.0,Direct,,,View report (https://accesshub.pdc.wa.gov/node/31095),Environmental Affairs - natural resources - parks,HB 1697,"Agriculture and Natural Resources, WDFW"
15252,31095-18336,31095,FE,17422,CARL E BURKE,Employer,18336,FRATERNAL ORDER OF POLICE,17-Feb,3/1/2017,16457.0,FRATERNAL ORDER OF POLICE,2500.0,0.0,2500.0,0.0,0.0,0.0,0.0,0.0,0.0,0.0,2500.0,18336.0,Direct,,,View report (https://accesshub.pdc.wa.gov/node/31095),Law and justice,SB 5073,"Law and Justice, Ways and Means"
15253,31022-18519,31022,FE,17473,CATHY DAHLQUIST,Employer,18519,"Northwest Fiber, LLC dba Ziply Fiber",17-Feb,3/1/2017,16463.0,"Northwest Fiber, LLC dba Ziply Fiber",6906.0,0.0,6906.0,0.0,0.0,0.0,0.0,0.0,0.0,0.0,6906.0,18519.0,Direct,,,View report (https://accesshub.pdc.wa.gov/node/31022),Technology,1954,TED
15254,28346-18674,28346,FE,17528,LUKE ESSER,Employer,18674,H2VTECH LLC,16-Dec,3/1/2017,16488.0,H2VTECH LLC,5000.0,0.0,5000.0,0.0,0.0,0.0,0.0,0.0,0.0,0.0,5000.0,18674.0,Direct,,,View report (https://accesshub.pdc.wa.gov/node/28346),Technology,Hydrogen Technology,"Sen. Energy, Env. & Telecom.; House Technology & Econ. Devpmt."
15256,30999-18347,30999,FE,17430,CAPITOL CONNECTION*,Employer,18347,ALCOA US PRIMARY METALS,17-Feb,3/1/2017,16536.0,ALCOA US PRIMARY METALS,8317.5,0.0,8317.5,13.05,0.0,0.0,0.0,0.0,0.0,13.05,8330.55,18347.0,Direct,,,View report (https://accesshub.pdc.wa.gov/node/30999),Environmental Affairs - natural resources - parks,Carbon reduction,Dept. of Ecology
15258,28346-18675,28346,FE,17528,LUKE ESSER,Employer,18675,KALISPEL TRIBE,16-Dec,3/1/2017,16570.0,KALISPEL TRIBE,4000.0,0.0,4000.0,0.0,0.0,0.0,0.0,0.0,0.0,0.0,4000.0,18675.0,Direct,,,View report (https://accesshub.pdc.wa.gov/node/28346),,,
15259,31103-18128,31103,FE,17334,MARK ALLEN,Employer,18128,WA MASSAGE OWNERS ASSN,17-Feb,3/1/2017,16621.0,WA MASSAGE OWNERS ASSN,2800.0,0.0,2800.0,0.0,0.0,0.0,0.0,0.0,0.0,0.0,2800.0,18128.0,Direct,,,View report (https://accesshub.pdc.wa.gov/node/31103),,,
15260,31006-19952,31006,FE,17766,RONALD MAIN,Employer,19952,MASTER BLDRS ASSN OF KING & SNO COUNTIES (David T. Ducharme),17-Jan,3/1/2017,16622.0,MASTER BLDRS ASSN OF KING & SNO COUNTIES,4500.0,0.0,4500.0,0.0,0.0,0.0,0.0,0.0,0.0,0.0,4500.0,19952.0,Subcontract,17501.0,David T. Ducharme,View report (https://accesshub.pdc.wa.gov/node/31006),,,
15262,31078-18331,31078,FE,17418,TOM BUGERT,Employer,18331,THE NATURE CONSERVANCY,17-Jan,3/1/2017,16677.0,THE NATURE CONSERVANCY,871.0,0.0,871.0,0.0,0.0,0.0,0.0,0.0,0.0,0.0,871.0,18331.0,Direct,,,View report (https://accesshub.pdc.wa.gov/node/31078),Fiscal,Capital budget,"House Capital Budget, Senate Ways & Means"
15263,30984-29496,30984,FE,29495,Paula Sardinas,Employer,29496,GoWest Credit Union Association,16-Nov,3/1/2017,16703.0,GoWest Credit Union Association,5625.0,0.0,5625.0,0.0,0.0,0.0,0.0,0.0,0.0,0.0,5625.0,29496.0,Direct,,,View report (https://accesshub.pdc.wa.gov/node/30984),Financial institutions and insurance,HB 1053/SB 5144,"House Business and Financial Services, Senate Financial Institutions & Insurance, Sen. Schoesler, Sen. Nelson"
15264,30986-29496,30986,FE,29495,Paula Sardinas,Employer,29496,GoWest Credit Union Association,16-Dec,3/1/2017,16703.0,GoWest Credit Union Association,7500.0,0.0,7500.0,0.0,0.0,100.0,0.0,0.0,0.0,100.0,7600.0,29496.0,Direct,,,View report (https://accesshub.pdc.wa.gov/node/30986),Financial institutions and insurance,Credit Union Update,"DFI, Rep. Kirby, Rep. Brandon Vick, Rep. Kristine Reeves, Rep. Gregerson, Rep. Tarleton, Sen. Angel, Sen. Mullett, Sen. Hobbs"
15265,31010-29496,31010,FE,29495,Paula Sardinas,Employer,29496,GoWest Credit Union Association,17-Feb,3/1/2017,16703.0,GoWest Credit Union Association,6250.0,0.0,6250.0,0.0,0.0,0.0,0.0,0.0,0.0,0.0,6250.0,29496.0,Direct,,,View report (https://accesshub.pdc.wa.gov/node/31010),Financial institutions and insurance,"HB 1053/SB 5144, HB 1209/ SB 5396","House Business and Financial Services, Senate Financial Institutions & Insurance, House GOP Caucus, House Democratic Caucus, Sen. Nelson, Sen. Schoesler, Sen. McCoy, Sen. Fain, Sen. Hobbs, Sen. Mullett, Sen. Ericksen, Sen. Fortunato, Sen. Kuderer, Frockt"
15266,31095-18337,31095,FE,17422,CARL E BURKE,Employer,18337,NW SPORTFISHING INDUSTRY ASSN,17-Feb,3/1/2017,16721.0,NW SPORTFISHING INDUSTRY ASSN,2500.0,0.0,2500.0,0.0,0.0,0.0,0.0,0.0,0.0,0.0,2500.0,18337.0,Direct,,,View report (https://accesshub.pdc.wa.gov/node/31095),Environmental Affairs - natural resources - parks,HB1697,"Agriculture and Natural Resources, WDFW"
15267,31006-19170,31006,FE,17766,RONALD MAIN,Employer,19170,PROVIDENCE HEALTH & SERVICES- WA,17-Jan,3/1/2017,16821.0,PROVIDENCE HEALTH & SERVICES- WA,5000.0,0.0,5000.0,0.0,0.0,0.0,0.0,0.0,0.0,0.0,5000.0,19170.0,Direct,,,View report (https://accesshub.pdc.wa.gov/node/31006),,,
15269,28346-18676,28346,FE,17528,LUKE ESSER,Employer,18676,SEIU 775,16-Dec,3/1/2017,16905.0,SEIU 775,4250.0,0.0,4250.0,0.0,0.0,0.0,0.0,0.0,0.0,0.0,4250.0,18676.0,Direct,,,View report (https://accesshub.pdc.wa.gov/node/28346),Fiscal,Medicaid,Sen. Ways & Means; House Appropriations
15270,28346-25026,28346,FE,17528,LUKE ESSER,Employer,25026,SIGNATURE HEALTHCARE SERVICES LLC (THOMAS M PARKER),16-Dec,3/1/2017,16917.0,SIGNATURE HEALTHCARE SERVICES LLC,2000.0,0.0,2000.0,0.0,0.0,0.0,0.0,0.0,0.0,0.0,2000.0,25026.0,Subcontract,17879.0,THOMAS M PARKER,View report (https://accesshub.pdc.wa.gov/node/28346),,,
15271,31100-18183,31100,FE,17349,JANIS D AVERY,Employer,18183,TREEHOUSE,17-Feb,3/1/2017,16992.0,TREEHOUSE,852.39,0.0,852.39,7.5,0.0,0.0,0.0,0.0,0.0,7.5,859.89,18183.0,Direct,,,View report (https://accesshub.pdc.wa.gov/node/31100),Education,5241,Early Learning & Education
15272,30999-18349,30999,FE,17430,CAPITOL CONNECTION*,Employer,18349,WA FIRE COMMISSIONERS ASSN,17-Feb,3/1/2017,17113.0,WA FIRE COMMISSIONERS ASSN,6200.0,0.0,6200.0,13.05,0.0,0.0,0.0,0.0,0.0,13.05,6213.05,18349.0,Direct,,,View report (https://accesshub.pdc.wa.gov/node/30999),Local government,5121 Fire District Levees,Senate Ways and Means
15273,31075-19539,31075,FE,17916,MICHELLE REEVES,Employer,19539,WA FOOD INDUSTRY,17-Feb,3/1/2017,17117.0,WA FOOD INDUSTRY,1800.0,0.0,1800.0,0.0,0.0,0.0,0.0,0.0,0.0,0.0,1800.0,19539.0,Direct,,,View report (https://accesshub.pdc.wa.gov/node/31075),Business and consumer affairs,HB 1351/ SB 5194,Liquor Control Board
15275,31074-19229,31074,FE,17780,THOMAS A MCBRIDE SR,Employer,19229,WA Assn of Prosecuting Attorneys,17-Feb,3/1/2017,17164.0,WA Assn of Prosecuting Attorneys,2809.1,0.0,2809.1,0.0,0.0,0.0,0.0,0.0,0.0,0.0,2809.1,19229.0,Direct,,,View report (https://accesshub.pdc.wa.gov/node/31074),Law and justice,various,various
15276,31083-18938,31083,FE,17615,DAVID W HANSON,Employer,18938,WA PUBLIC UTILITIES DISTS ASSN,17-Feb,3/1/2017,17176.0,WA PUBLIC UTILITIES DISTS ASSN,500.0,0.0,500.0,0.0,0.0,0.0,0.0,0.0,0.0,0.0,500.0,18938.0,Direct,,,View report (https://accesshub.pdc.wa.gov/node/31083),Local government,5788,Senate Committee on Law & Justice
15277,28346-29024,28346,FE,17528,LUKE ESSER,Employer,29024,WA STATE ASSN OF COUNTIES (WSAC),16-Dec,3/1/2017,17215.0,WA STATE ASSN OF COUNTIES (WSAC),2000.0,0.0,2000.0,0.0,0.0,0.0,0.0,0.0,0.0,0.0,2000.0,29024.0,Direct,,,View report (https://accesshub.pdc.wa.gov/node/28346),,,
15278,31103-18129,31103,FE,17334,MARK ALLEN,Employer,18129,WA ST ASSN OF BROADCASTERS,17-Feb,3/1/2017,17219.0,WA ST ASSN OF BROADCASTERS,2800.0,0.0,2800.0,0.0,0.0,0.0,0.0,0.0,0.0,0.0,2800.0,18129.0,Direct,,,View report (https://accesshub.pdc.wa.gov/node/31103),Fiscal,HB 2001,"Rep Nealey, House Finance Committee, Dept of Revenue"
15279,29795-19003,29795,FE,17662,MELLANI MCALEENAN,Employer,19003,WA ST DENTAL ASSN,17-Jan,3/1/2017,17238.0,WA ST DENTAL ASSN,5000.0,0.0,5000.0,0.0,6772.08,0.0,0.0,0.0,0.0,6772.08,11772.08,19003.0,Direct,,,View report (https://accesshub.pdc.wa.gov/node/29795),Health Care,Dental-related issues,"Heath Committees, Fiscal Committees, Department of Health, and Governors Office"
15280,31039-19073,31039,FE,17702,BRACKEN R KILLPACK,Employer,19073,WA ST DENTAL ASSN,17-Feb,3/1/2017,17238.0,WA ST DENTAL ASSN,3500.0,0.0,3500.0,0.0,0.0,0.0,0.0,0.0,0.0,0.0,3500.0,19073.0,Direct,,,View report (https://accesshub.pdc.wa.gov/node/31039),Health Care,Dental-related issues,"Heath Committees, Fiscal Committees, Department of Health, and Governors Office"
15281,31023-18883,31023,FE,17593,SEAN N GRAHAM,Employer,18883,WA ST MEDICAL ASSN,17-Feb,3/1/2017,17261.0,WA ST MEDICAL ASSN,2222.22,0.0,2222.22,51.0,73.0,0.0,0.0,0.0,0.0,124.0,2346.22,18883.0,Direct,,,View report (https://accesshub.pdc.wa.gov/node/31023),Health Care,Multiple,Multiple
15283,30999-18350,30999,FE,17430,CAPITOL CONNECTION*,Employer,18350,WRIGHT RUNSTAD ASSOC LIMITED PARTNERSHIP,17-Feb,3/1/2017,17317.0,WRIGHT RUNSTAD ASSOC LIMITED PARTNERSHIP,3000.0,0.0,3000.0,13.05,0.0,0.0,0.0,0.0,0.0,13.05,3013.05,18350.0,Direct,,,View report (https://accesshub.pdc.wa.gov/node/30999),Transportation,Eastside Rail Corridor funding,Transportation Committee
15285,31006-19169,31006,FE,17766,RONALD MAIN,Employer,19169,King County,17-Jan,3/1/2017,74612.0,King County,4000.0,0.0,4000.0,0.0,0.0,0.0,0.0,0.0,0.0,0.0,4000.0,19169.0,Direct,,,View report (https://accesshub.pdc.wa.gov/node/31006),,,
15291,31148-18801,31148,FE,17578,JEFFREY S GOMBOSKY,Employer,18801,ANHEUSER-BUSCH COMPANIES INC,17-Feb,3/2/2017,16128.0,ANHEUSER-BUSCH COMPANIES INC,5000.0,0.0,5000.0,0.0,0.0,0.0,0.0,0.0,0.0,0.0,5000.0,18801.0,Direct,,,View report (https://accesshub.pdc.wa.gov/node/31148),,,
15292,31128-19856,31128,FE,18071,WA ST NURSES ASSN,Employer,19856,ASSN OF ADV PRACTICE PSYCHIATRIC NURSES,17-Feb,3/2/2017,16147.0,ASSN OF ADV PRACTICE PSYCHIATRIC NURSES,400.0,0.0,400.0,0.0,0.0,0.0,0.0,0.0,0.0,0.0,400.0,19856.0,Direct,,,View report (https://accesshub.pdc.wa.gov/node/31128),Health Care,Nursing/Health Care Issues,"Healthcare, Labor, Budget Committees, Dept of Health, Labor and Industries"
15293,31114-18875,31114,FE,17587,JON GOULD,Employer,18875,Children's Alliance,17-Feb,3/2/2017,16256.0,Children's Alliance,1600.0,0.0,1600.0,0.0,0.0,0.0,0.0,0.0,0.0,0.0,1600.0,18875.0,Direct,,,View report (https://accesshub.pdc.wa.gov/node/31114),Human services,1661,mulitiple house and senate committees
15294,31125-30284,31125,FE,30283,Ann LoGerfo,Employer,30284,COLUMBIA LEGAL SERVICES,17-Jan,3/2/2017,16338.0,COLUMBIA LEGAL SERVICES,907.62,0.0,907.62,32.1,0.0,0.0,0.0,0.0,0.0,32.1,939.72,30284.0,Direct,,,View report (https://accesshub.pdc.wa.gov/node/31125),Health Care,HB 1359/SB5231,Senate Health Care Committee
15295,31148-18803,31148,FE,17578,JEFFREY S GOMBOSKY,Employer,18803,ENTERPRISE HOLDINGS LLC,17-Feb,3/2/2017,16396.0,ENTERPRISE HOLDINGS LLC,2500.0,0.0,2500.0,0.0,0.0,0.0,0.0,0.0,0.0,0.0,2500.0,18803.0,Direct,,,View report (https://accesshub.pdc.wa.gov/node/31148),,,
15296,31148-18804,31148,FE,17578,JEFFREY S GOMBOSKY,Employer,18804,ENERGY FREEDOM COALITION OF AMERICA LLC,17-Feb,3/2/2017,16414.0,ENERGY FREEDOM COALITION OF AMERICA LLC,4000.0,0.0,4000.0,0.0,0.0,0.0,0.0,0.0,0.0,0.0,4000.0,18804.0,Direct,,,View report (https://accesshub.pdc.wa.gov/node/31148),Technology,HB 1048,House Technology and Economic Development Committee
15297,31148-18805,31148,FE,17578,JEFFREY S GOMBOSKY,Employer,18805,KALISPEL TRIBE,17-Feb,3/2/2017,16570.0,KALISPEL TRIBE,5000.0,0.0,5000.0,0.0,0.0,0.0,0.0,0.0,0.0,0.0,5000.0,18805.0,Direct,,,View report (https://accesshub.pdc.wa.gov/node/31148),,,
15298,31148-18807,31148,FE,17578,JEFFREY S GOMBOSKY,Employer,18807,MULTICARE HEALTH SYSTEM,17-Feb,3/2/2017,16651.0,MULTICARE HEALTH SYSTEM,5000.0,0.0,5000.0,0.0,0.0,0.0,0.0,0.0,0.0,0.0,5000.0,18807.0,Direct,,,View report (https://accesshub.pdc.wa.gov/node/31148),Human services,"Capital Budget, General Fund Operating Budget","House Capital Budget Committee, Senate Ways and Means Committee"
15299,31110-28848,31110,FE,28847,Amber McPhee-Millard,Employer,28848,NORTHWEST AGRICULTURE BUSINESS CENTER (Melissa M Gombosky),17-Feb,3/2/2017,16696.0,NORTHWEST AGRICULTURE BUSINESS CENTER,1000.0,0.0,1000.0,0.0,0.0,0.0,0.0,0.0,0.0,0.0,1000.0,28848.0,Subcontract,17579.0,Melissa M Gombosky,View report (https://accesshub.pdc.wa.gov/node/31110),,,
15300,31123-19249,31123,FE,17792,DAN MCGRADY,Employer,19249,PEMCO Insurance,17-Feb,3/2/2017,16770.0,PEMCO Insurance,9500.0,0.0,9500.0,0.0,0.0,500.0,0.0,0.0,0.0,500.0,10000.0,19249.0,Direct,,,View report (https://accesshub.pdc.wa.gov/node/31123),Financial institutions and insurance,Insurance,"FII, BFS"
15301,31122-19630,31122,FE,17968,JAMES SKOGMAN,Employer,19630,PEMCO Insurance,17-Feb,3/2/2017,16770.0,PEMCO Insurance,2500.0,0.0,2500.0,0.0,0.0,0.0,0.0,0.0,0.0,0.0,2500.0,19630.0,Direct,,,View report (https://accesshub.pdc.wa.gov/node/31122),Financial institutions and insurance,Insurance,"FII, BFS"
15302,31148-18808,31148,FE,17578,JEFFREY S GOMBOSKY,Employer,18808,PHARMACEUTICAL RSRCH/MFG OF AMERICA,17-Feb,3/2/2017,16776.0,PHARMACEUTICAL RSRCH/MFG OF AMERICA,7833.33,0.0,7833.33,0.0,0.0,0.0,0.0,0.0,0.0,0.0,7833.33,18808.0,Direct,,,View report (https://accesshub.pdc.wa.gov/node/31148),Human services,"HB 1047, HB 1541, SB 5586","House Health Care and Wellness Committee, Senate Health Care Committee"
15303,31128-19857,31128,FE,18071,WA ST NURSES ASSN,Employer,19857,SCHOOL NURSES ORGANIZATION OF WA,17-Feb,3/2/2017,16882.0,SCHOOL NURSES ORGANIZATION OF WA,400.0,0.0,400.0,0.0,0.0,0.0,0.0,0.0,0.0,0.0,400.0,19857.0,Direct,,,View report (https://accesshub.pdc.wa.gov/node/31128),Health Care,Nursing/Health Care Issues,"Healthcare, Labor, Budget Committees, Dept of Health, Labor and Industries"
15304,31013-18422,31013,FE,17435,PATRICIA B CASE,Employer,18422,GREEN DIAMOND RESOURCE CO,17-Jan,3/2/2017,16918.0,GREEN DIAMOND RESOURCE CO,1225.0,0.0,1225.0,0.0,0.0,6000.0,0.0,0.0,0.0,6000.0,7225.0,18422.0,Direct,,,View report (https://accesshub.pdc.wa.gov/node/31013),Environmental Affairs - natural resources - parks,"1464, 5384","Judiciary, Rep. Blake"
15305,31117-18476,31117,FE,17457,MONTY COBB,Employer,18476,WA ASSN OF COUNTY OFFICIALS,17-Feb,3/2/2017,17085.0,WA ASSN OF COUNTY OFFICIALS,3000.0,0.0,3000.0,0.0,0.0,0.0,0.0,0.0,0.0,0.0,3000.0,18476.0,Direct,,,View report (https://accesshub.pdc.wa.gov/node/31117),Local government,multiple,Local and State Govt Committees
15306,31148-18811,31148,FE,17578,JEFFREY S GOMBOSKY,Employer,18811,WA HEALTH CARE ASSN,17-Feb,3/2/2017,17128.0,WA HEALTH CARE ASSN,8000.0,0.0,8000.0,0.0,0.0,0.0,0.0,0.0,0.0,0.0,8000.0,18811.0,Direct,,,View report (https://accesshub.pdc.wa.gov/node/31148),Human services,"HB 1968, SB 5715","House Appropriations Committee, Senate Ways and Means Committee"
15308,30180-25598,30180,FE,25597,Jennifer Muhm,Employer,25598,WA ST NURSES ASSN,17-Jan,3/2/2017,17265.0,WA ST NURSES ASSN,351.29,0.0,351.29,0.0,0.0,0.0,0.0,0.0,0.0,0.0,351.29,25598.0,Direct,,,View report (https://accesshub.pdc.wa.gov/node/30180),Health Care,nursing issues,WA State Nurses Asssociation
15311,31171-18599,31171,FE,17505,PATRICK DUNN & ASSOCIATES LTD*,Employer,18599,4000 PROPERTY LLC,17-Feb,3/3/2017,16056.0,4000 PROPERTY LLC,500.0,0.0,500.0,0.0,0.0,0.0,0.0,0.0,0.0,0.0,500.0,18599.0,Direct,,,View report (https://accesshub.pdc.wa.gov/node/31171),Business and consumer affairs,Regulation & Taxation,Economic Development Committee
15312,30694-18709,30694,FE,17543,H2 Government Relations,Employer,18709,ASSN OF WA ST PUBLIC FACILITIES DISTS,17-Feb,3/3/2017,16171.0,ASSN OF WA ST PUBLIC FACILITIES DISTS,3500.0,0.0,3500.0,0.0,0.0,0.0,0.0,0.0,0.0,0.0,3500.0,18709.0,Direct,,,View report (https://accesshub.pdc.wa.gov/node/30694),Fiscal,Taxes,"H Finance, S W&M"
15313,31181-18790,31181,FE,17573,CARL GIPSON,Employer,18790,AT&T SERVICES INC,17-Feb,3/3/2017,16175.0,AT&T SERVICES INC,1000.0,0.0,1000.0,0.0,0.0,0.0,0.0,0.0,0.0,0.0,1000.0,18790.0,Direct,,,View report (https://accesshub.pdc.wa.gov/node/31181),Technology,"1049, 1056, 1493, 1371, 5289, 5139",House Senate Telecom Committees/WUTC
15314,31201-18275,31201,FE,17395,CHARLOTTE L BOOTH,Employer,18275,INSTITUTE FOR FAMILY DEVELOPMENT,17-Feb,3/3/2017,16187.0,INSTITUTE FOR FAMILY DEVELOPMENT,210.39,0.0,210.39,40.6,0.0,0.0,0.0,0.0,0.0,40.6,250.99,18275.0,Direct,,,View report (https://accesshub.pdc.wa.gov/node/31201),Human services,State Budget,Representative Kagi
15315,31202-18722,31202,FE,17546,MARY G FISCHER,Employer,18722,INSTITUTE FOR FAMILY DEVELOPMENT,17-Feb,3/3/2017,16187.0,INSTITUTE FOR FAMILY DEVELOPMENT,929.17,0.0,929.17,0.0,0.0,0.0,0.0,0.0,0.0,0.0,929.17,18722.0,Direct,,,View report (https://accesshub.pdc.wa.gov/node/31202),Human services,Travel reimbursement for FPS,State legislators and aides
15316,31171-18600,31171,FE,17505,PATRICK DUNN & ASSOCIATES LTD*,Employer,18600,BENTON RURAL ELECTRIC ASSN,17-Feb,3/3/2017,16189.0,BENTON RURAL ELECTRIC ASSN,1000.0,0.0,1000.0,0.0,0.0,0.0,0.0,0.0,250.0,250.0,1250.0,18600.0,Direct,,,View report (https://accesshub.pdc.wa.gov/node/31171),Energy and utilities,Utilities,"UTC, WDOT"
15317,30694-24882,30694,FE,17543,H2 Government Relations,Employer,24882,CANNABIS ORGANIZATION OF RETAIL ESTABLISHMENTS (Recreational Services LLC),17-Feb,3/3/2017,16224.0,CANNABIS ORGANIZATION OF RETAIL ESTABLISHMENTS,2000.0,0.0,2000.0,0.0,0.0,0.0,0.0,0.0,0.0,0.0,2000.0,24882.0,Subcontract,24638.0,Recreational Services LLC,View report (https://accesshub.pdc.wa.gov/node/30694),,,
15318,31002-19794,31002,FE,18037,Michael Transue,Employer,19794,"FirstCash, Inc. dba Cash America",17-Jan,3/3/2017,16238.0,"FirstCash, Inc. dba Cash America",5000.0,0.0,5000.0,127.5,0.0,0.0,0.0,0.0,0.0,127.5,5127.5,19794.0,Direct,,,View report (https://accesshub.pdc.wa.gov/node/31002),Business and consumer affairs,10715157,"legislators, gov, exec staff"
15319,31212-18656,31212,FE,17521,EMILY MURPHY STRATEGIES LLC*,Employer,18656,Children's Alliance,17-Feb,3/3/2017,16256.0,Children's Alliance,4100.0,0.0,4100.0,0.0,0.0,0.0,0.0,0.0,0.0,0.0,4100.0,18656.0,Direct,,,View report (https://accesshub.pdc.wa.gov/node/31212),Human services,Early Learning,"ELHS, Education, Appropriations"
15320,30694-20013,30694,FE,17543,H2 Government Relations,Employer,20013,CITY OF EVERETT (Leonard A Mc Comb),17-Feb,3/3/2017,16281.0,CITY OF EVERETT,2000.0,0.0,2000.0,0.0,0.0,0.0,0.0,0.0,0.0,0.0,2000.0,20013.0,Subcontract,17786.0,Leonard A Mc Comb,View report (https://accesshub.pdc.wa.gov/node/30694),,,
15321,30694-18710,30694,FE,17543,H2 Government Relations,Employer,18710,City of Maple Valley,17-Feb,3/3/2017,16300.0,City of Maple Valley,3000.0,0.0,3000.0,0.0,0.0,0.0,0.0,0.0,0.0,0.0,3000.0,18710.0,Direct,,,View report (https://accesshub.pdc.wa.gov/node/30694),Local government,Transportation and Land Use,"H Local Government, S Gov Ops, H Trans, S Trans"
15322,30694-18711,30694,FE,17543,H2 Government Relations,Employer,18711,COMMUNITY ASSOC INSTITUTE,17-Feb,3/3/2017,16346.0,COMMUNITY ASSOC INSTITUTE,5000.0,0.0,5000.0,0.0,0.0,0.0,0.0,0.0,0.0,0.0,5000.0,18711.0,Direct,,,View report (https://accesshub.pdc.wa.gov/node/30694),Business and consumer affairs,Condo and Homeowner,"House Judiciary, Senate FII, Ways & Means, Senate Judiciary"
15323,31188-18167,31188,FE,17346,JOHN J AUDLEY,Employer,18167,CRAFT3,17-Feb,3/3/2017,16374.0,CRAFT3,833.0,0.0,833.0,0.0,0.0,0.0,0.0,0.0,0.0,0.0,833.0,18167.0,Direct,,,View report (https://accesshub.pdc.wa.gov/node/31188),Fiscal,Capital Budget,Capital Budget Committee
15324,30694-18712,30694,FE,17543,H2 Government Relations,Employer,18712,DAYBREAK YOUTH SERVICES,17-Feb,3/3/2017,16381.0,DAYBREAK YOUTH SERVICES,2300.0,0.0,2300.0,0.0,0.0,0.0,0.0,0.0,0.0,0.0,2300.0,18712.0,Direct,,,View report (https://accesshub.pdc.wa.gov/node/30694),Human services,Health Care,"H Health Care, S Health Care"
15325,31171-18601,31171,FE,17505,PATRICK DUNN & ASSOCIATES LTD*,Employer,18601,EMPIRE HEALTH FOUNDATION,17-Feb,3/3/2017,16413.0,EMPIRE HEALTH FOUNDATION,500.0,0.0,500.0,0.0,0.0,0.0,0.0,0.0,0.0,0.0,500.0,18601.0,Direct,,,View report (https://accesshub.pdc.wa.gov/node/31171),Health Care,Health & Human Services,"DSHS, Health Care Authority"
15326,31212-27334,31212,FE,17521,EMILY MURPHY STRATEGIES LLC*,Employer,27334,Washington Filmworks,17-Feb,3/3/2017,16443.0,Washington Filmworks,4750.0,0.0,4750.0,0.0,0.0,0.0,0.0,0.0,0.0,0.0,4750.0,27334.0,Direct,,,View report (https://accesshub.pdc.wa.gov/node/31212),Fiscal,Film Incentive,"Finance, Ways and Means"
15327,31002-19795,31002,FE,18037,Michael Transue,Employer,19795,L3HARRIS,17-Jan,3/3/2017,16493.0,L3HARRIS,2000.0,0.0,2000.0,57.38,0.0,0.0,0.0,0.0,0.0,57.38,2057.38,19795.0,Direct,,,View report (https://accesshub.pdc.wa.gov/node/31002),State government,transpo budget,"legislators, gov, exec staff"
15328,31165-19676,31165,FE,17988,KRAIG M STEVENSON,Employer,19676,INTL CODE COUNCIL,17-Feb,3/3/2017,16539.0,INTL CODE COUNCIL,1842.38,0.0,1842.38,860.66,0.0,0.0,0.0,0.0,0.0,860.66,2703.04,19676.0,Direct,,,View report (https://accesshub.pdc.wa.gov/node/31165),Local government,SB 5500,State and House Loc GOvt
15329,31212-27259,31212,FE,17521,EMILY MURPHY STRATEGIES LLC*,Employer,27259,LEADINGAGE WA,17-Feb,3/3/2017,16588.0,LEADINGAGE WA,3500.0,0.0,3500.0,0.0,0.0,0.0,0.0,0.0,0.0,0.0,3500.0,27259.0,Direct,,,View report (https://accesshub.pdc.wa.gov/node/31212),Health Care,Assisted Living Medicaid Reimbursement,Health Care Committees
15330,31171-18604,31171,FE,17505,PATRICK DUNN & ASSOCIATES LTD*,Employer,18604,LES SCHWAB TIRE CENTERS,17-Feb,3/3/2017,16596.0,LES SCHWAB TIRE CENTERS,1250.0,0.0,1250.0,0.0,0.0,0.0,0.0,0.0,250.0,250.0,1500.0,18604.0,Direct,,,View report (https://accesshub.pdc.wa.gov/node/31171),Transportation,Regulation & Taxation,"WDOT, DOR"
15331,31171-18606,31171,FE,17505,PATRICK DUNN & ASSOCIATES LTD*,Employer,18606,LIMEADE,17-Feb,3/3/2017,16607.0,LIMEADE,1000.0,0.0,1000.0,0.0,0.0,0.0,0.0,0.0,0.0,0.0,1000.0,18606.0,Direct,,,View report (https://accesshub.pdc.wa.gov/node/31171),Health Care,Health,Health Care Authority
15332,30694-29219,30694,FE,17543,H2 Government Relations,Employer,29219,MUCKLESHOOT INDIAN TRIBE,17-Feb,3/3/2017,16650.0,MUCKLESHOOT INDIAN TRIBE,6000.0,0.0,6000.0,0.0,0.0,0.0,0.0,0.0,0.0,0.0,6000.0,29219.0,Direct,,,View report (https://accesshub.pdc.wa.gov/node/30694),Local government,Natural Resorces,"Senate Natural Resources & Parks, House Environment, Senate Agriculture, Water & Rural Economic Development"
15333,30694-18714,30694,FE,17543,H2 Government Relations,Employer,18714,NORTHWEST YACHT BROKERS ASSN,17-Feb,3/3/2017,16724.0,NORTHWEST YACHT BROKERS ASSN,1100.0,0.0,1100.0,0.0,0.0,0.0,0.0,0.0,0.0,0.0,1100.0,18714.0,Direct,,,View report (https://accesshub.pdc.wa.gov/node/30694),Fiscal,Taxes,"S W&M, H Finance"
15334,31002-19796,31002,FE,18037,Michael Transue,Employer,19796,NOVO NORDISK INC,17-Jan,3/3/2017,16726.0,NOVO NORDISK INC,4500.0,0.0,4500.0,114.75,0.0,0.0,0.0,0.0,0.0,114.75,4614.75,19796.0,Direct,,,View report (https://accesshub.pdc.wa.gov/node/31002),Health Care,No,"legislators, gov, exec staff, HCS, DSHS, DOH"
15336,31171-18608,31171,FE,17505,PATRICK DUNN & ASSOCIATES LTD*,Employer,18608,PARTNERSHIP FOR LEARNING,17-Feb,3/3/2017,16765.0,PARTNERSHIP FOR LEARNING,1000.0,0.0,1000.0,0.0,0.0,0.0,0.0,0.0,0.0,0.0,1000.0,18608.0,Direct,,,View report (https://accesshub.pdc.wa.gov/node/31171),State government,Education,Education Committee
15337,31002-19797,31002,FE,18037,Michael Transue,Employer,19797,PAWN 1,17-Jan,3/3/2017,16767.0,PAWN 1,2500.0,0.0,2500.0,63.75,0.0,0.0,0.0,0.0,0.0,63.75,2563.75,19797.0,Direct,,,View report (https://accesshub.pdc.wa.gov/node/31002),Business and consumer affairs,10715157,"legislators, gov, exec staff"
15338,31191-18298,31191,FE,17401,Brynn Brady,Employer,18298,Pierce County Regional Council,17-Feb,3/3/2017,16785.0,Pierce County Regional Council,666.66,0.0,666.66,0.0,0.0,0.0,0.0,0.0,0.0,0.0,666.66,18298.0,Direct,,,View report (https://accesshub.pdc.wa.gov/node/31191),Local government,Local Government,Gov Ops
15339,31002-19798,31002,FE,18037,Michael Transue,Employer,19798,PIERCE CO SECURITY INC,17-Jan,3/3/2017,16786.0,PIERCE CO SECURITY INC,1750.0,0.0,1750.0,51.0,0.0,0.0,0.0,0.0,0.0,51.0,1801.0,19798.0,Direct,,,View report (https://accesshub.pdc.wa.gov/node/31002),Business and consumer affairs,No,"legislators, gov, exec staff, DOL, DOR, WSP"
15340,30694-20011,30694,FE,17543,H2 Government Relations,Employer,20011,PORT OF EVERETT (Leonard A Mc Comb),17-Feb,3/3/2017,16797.0,PORT OF EVERETT,2000.0,0.0,2000.0,0.0,0.0,0.0,0.0,0.0,0.0,0.0,2000.0,20011.0,Subcontract,17786.0,Leonard A Mc Comb,View report (https://accesshub.pdc.wa.gov/node/30694),,,
15341,30694-18715,30694,FE,17543,H2 Government Relations,Employer,18715,PROLIANCE SURGEONS,17-Feb,3/3/2017,16817.0,PROLIANCE SURGEONS,3500.0,0.0,3500.0,0.0,0.0,0.0,0.0,0.0,0.0,0.0,3500.0,18715.0,Direct,,,View report (https://accesshub.pdc.wa.gov/node/30694),Health Care,Health Care,"H Health Care, S Health Care"
15342,31191-27587,31191,FE,17401,Brynn Brady,Employer,27587,REGIONAL FISHERIES ENHANCEMENT GROUP COALITION,17-Feb,3/3/2017,16850.0,REGIONAL FISHERIES ENHANCEMENT GROUP COALITION,2000.0,0.0,2000.0,0.0,0.0,0.0,0.0,0.0,0.0,0.0,2000.0,27587.0,Direct,,,View report (https://accesshub.pdc.wa.gov/node/31191),Environmental Affairs - natural resources - parks,Environment,"House Environment, Senate Energy, Environment & Telecommunications"
15343,31212-25984,31212,FE,17521,EMILY MURPHY STRATEGIES LLC*,Employer,25984,RETIRED PUBLIC EMPLOYEES COUNCIL OF WA,17-Feb,3/3/2017,16859.0,RETIRED PUBLIC EMPLOYEES COUNCIL OF WA,3000.0,0.0,3000.0,0.0,0.0,0.0,0.0,0.0,0.0,0.0,3000.0,25984.0,Direct,,,View report (https://accesshub.pdc.wa.gov/node/31212),Health Care,PEBB Medicare Restoration,"House Appropriations, Senate Ways and Means, Health Care Committees"
15344,31171-18609,31171,FE,17505,PATRICK DUNN & ASSOCIATES LTD*,Employer,18609,Sanitary Service Co,17-Feb,3/3/2017,16872.0,Sanitary Service Co,1250.0,0.0,1250.0,0.0,0.0,0.0,0.0,0.0,250.0,250.0,1500.0,18609.0,Direct,,,View report (https://accesshub.pdc.wa.gov/node/31171),Energy and utilities,Waste & Recycling,"UTC, DOE"
15345,31002-19799,31002,FE,18037,Michael Transue,Employer,19799,Key Recovery & Life Skills Center,17-Jan,3/3/2017,16886.0,Key Recovery & Life Skills Center,750.0,0.0,750.0,57.38,0.0,0.0,0.0,0.0,0.0,57.38,807.38,19799.0,Direct,,,View report (https://accesshub.pdc.wa.gov/node/31002),,,
15346,31214-18422,31214,FE,17435,PATRICIA B CASE,Employer,18422,GREEN DIAMOND RESOURCE CO,17-Feb,3/3/2017,16918.0,GREEN DIAMOND RESOURCE CO,1041.67,0.0,1041.67,0.0,0.0,0.0,0.0,0.0,0.0,0.0,1041.67,18422.0,Direct,,,View report (https://accesshub.pdc.wa.gov/node/31214),Environmental Affairs - natural resources - parks,herbicide application,"Sen. Natural Resources & Parks, House Ag & Natural Resources"
15347,30694-18716,30694,FE,17543,H2 Government Relations,Employer,18716,GREATER SPOKANE INC,17-Feb,3/3/2017,16938.0,GREATER SPOKANE INC,4000.0,0.0,4000.0,0.0,0.0,0.0,0.0,0.0,0.0,0.0,4000.0,18716.0,Direct,,,View report (https://accesshub.pdc.wa.gov/node/30694),Higher education,"Capital, Higher Education","H Cap, H Approps, H Finance, S W&M, H Higher Ed, S Higher Ed"
15348,31002-19800,31002,FE,18037,Michael Transue,Employer,19800,TPCC,17-Jan,3/3/2017,16966.0,TPCC,2000.0,0.0,2000.0,57.38,0.0,0.0,0.0,0.0,0.0,57.38,2057.38,19800.0,Direct,,,View report (https://accesshub.pdc.wa.gov/node/31002),Business and consumer affairs,No,"legislators, gov, exec staff"
15349,31191-18299,31191,FE,17401,Brynn Brady,Employer,18299,TACOMA-PIERCE CO HEALTH DEPT,17-Feb,3/3/2017,16967.0,TACOMA-PIERCE CO HEALTH DEPT,1500.0,0.0,1500.0,0.0,0.0,0.0,0.0,0.0,0.0,0.0,1500.0,18299.0,Direct,,,View report (https://accesshub.pdc.wa.gov/node/31191),Health Care,Health Care and Wellness,Health Care
15350,31189-28446,31189,FE,17683,Legislative Solutions,Employer,28446,TACOMA PUBLIC SCHOOLS (CASCADE GOVT AFFAIRS LLC*),17-Feb,3/3/2017,16968.0,TACOMA PUBLIC SCHOOLS,2000.0,0.0,2000.0,0.0,0.0,0.0,0.0,0.0,0.0,0.0,2000.0,28446.0,Subcontract,17434.0,CASCADE GOVT AFFAIRS LLC*,View report (https://accesshub.pdc.wa.gov/node/31189),,,
15351,31171-18610,31171,FE,17505,PATRICK DUNN & ASSOCIATES LTD*,Employer,18610,Thrive Washington,17-Feb,3/3/2017,16982.0,Thrive Washington,1000.0,0.0,1000.0,0.0,0.0,0.0,0.0,0.0,0.0,0.0,1000.0,18610.0,Direct,,,View report (https://accesshub.pdc.wa.gov/node/31171),State government,Early Childhood Development,"Early Learning Committee, Dept of Early Learning"
15352,30694-18717,30694,FE,17543,H2 Government Relations,Employer,18717,WALGREENS,17-Feb,3/3/2017,17040.0,WALGREENS,4750.0,0.0,4750.0,0.0,0.0,0.0,0.0,0.0,0.0,0.0,4750.0,18717.0,Direct,,,View report (https://accesshub.pdc.wa.gov/node/30694),Health Care,Health Care,"H Health Care, S Health Care"
15353,31191-27588,31191,FE,17401,Brynn Brady,Employer,27588,WA ASSN OF COUNTY OFFICIALS,17-Feb,3/3/2017,17085.0,WA ASSN OF COUNTY OFFICIALS,1000.0,0.0,1000.0,0.0,0.0,0.0,0.0,0.0,0.0,0.0,1000.0,27588.0,Direct,,,View report (https://accesshub.pdc.wa.gov/node/31191),Local government,Local Government,Gov Ops
15354,31189-28444,31189,FE,17683,Legislative Solutions,Employer,28444,WA ASSN FOR CAREER & TECHNICAL EDUCATION,17-Feb,3/3/2017,17089.0,WA ASSN FOR CAREER & TECHNICAL EDUCATION,2000.0,0.0,2000.0,0.0,0.0,0.0,0.0,0.0,0.0,0.0,2000.0,28444.0,Direct,,,View report (https://accesshub.pdc.wa.gov/node/31189),Education,CTE,Education and Budget committees
15355,30694-18718,30694,FE,17543,H2 Government Relations,Employer,18718,WA DISTILLERS GUILD,17-Feb,3/3/2017,17095.0,WA DISTILLERS GUILD,1500.0,0.0,1500.0,0.0,0.0,0.0,0.0,0.0,0.0,0.0,1500.0,18718.0,Direct,,,View report (https://accesshub.pdc.wa.gov/node/30694),Fiscal,Distilling,"House Commerce, Senate Ways & Means"
15356,30694-18719,30694,FE,17543,H2 Government Relations,Employer,18719,Washington Multi Family Housing Association,17-Feb,3/3/2017,17149.0,Washington Multi Family Housing Association,3500.0,0.0,3500.0,0.0,0.0,0.0,0.0,0.0,0.0,0.0,3500.0,18719.0,Direct,,,View report (https://accesshub.pdc.wa.gov/node/30694),Business and consumer affairs,Landlord Tenant Act,"House Judiciary, House CTHTA, Senate FII, S Ways & Means"
15357,31211-19534,31211,FE,17911,RENEE R SINCLAIR,Employer,19534,WA PUBLIC AFFAIRS NETWORK DBA TVW,17-Feb,3/3/2017,17165.0,WA PUBLIC AFFAIRS NETWORK DBA TVW,331.12,0.0,331.12,0.0,0.0,0.0,0.0,0.0,0.0,0.0,331.12,19534.0,Direct,,,View report (https://accesshub.pdc.wa.gov/node/31211),,,
15358,31002-19801,31002,FE,18037,Michael Transue,Employer,19801,WASTE CONNECTIONS INC,17-Jan,3/3/2017,17225.0,WASTE CONNECTIONS INC,4250.0,0.0,4250.0,108.4,0.0,0.0,0.0,0.0,0.0,108.4,4358.4,19801.0,Direct,,,View report (https://accesshub.pdc.wa.gov/node/31002),Environmental Affairs - natural resources - parks,No,"legislators, gov and exec staff, DOE, WAUTC"
15359,31002-19802,31002,FE,18037,Michael Transue,Employer,19802,WA ST CONFERENCE OF MASON CONTRACTORS,17-Jan,3/3/2017,17234.0,WA ST CONFERENCE OF MASON CONTRACTORS,2000.0,0.0,2000.0,57.38,0.0,0.0,0.0,0.0,0.0,57.38,2057.38,19802.0,Direct,,,View report (https://accesshub.pdc.wa.gov/node/31002),Business and consumer affairs,No,"legislators, gov and exec staff, DOE, WAUTC"
15360,31190-19062,31190,FE,17689,Trevor Justin Government Relations,Employer,19062,WA ST MEDICAL ASSN,17-Feb,3/3/2017,17261.0,WA ST MEDICAL ASSN,1500.0,0.0,1500.0,0.0,0.0,0.0,0.0,0.0,0.0,0.0,1500.0,19062.0,Direct,,,View report (https://accesshub.pdc.wa.gov/node/31190),Health Care,Health Care / business issues,"DOH, HCA, OIC, L&CB"
15361,31171-18613,31171,FE,17505,PATRICK DUNN & ASSOCIATES LTD*,Employer,18613,WA ST MAJOR LEAGUE BASEBALL STADIUM PUBLIC FACILITIES DISTRICT (PFD),17-Feb,3/3/2017,17264.0,WA ST MAJOR LEAGUE BASEBALL STADIUM PUBLIC FACILITIES DISTRICT (PFD),500.0,0.0,500.0,0.0,0.0,0.0,0.0,0.0,0.0,0.0,500.0,18613.0,Direct,,,View report (https://accesshub.pdc.wa.gov/node/31171),Local government,Public Facilities Districts,Local Government
15362,30694-28144,30694,FE,17543,H2 Government Relations,Employer,28144,WA ST RADIOLOGICAL SOCIETY,17-Feb,3/3/2017,17281.0,WA ST RADIOLOGICAL SOCIETY,4000.0,0.0,4000.0,0.0,0.0,0.0,0.0,0.0,0.0,0.0,4000.0,28144.0,Direct,,,View report (https://accesshub.pdc.wa.gov/node/30694),Health Care,Health Care,"H Health Care, S Health Care"
15363,31002-26877,31002,FE,18037,Michael Transue,Employer,26877,LeMay-America's Car Museum,17-Jan,3/3/2017,26876.0,LeMay-America's Car Museum,3000.0,0.0,3000.0,86.07,0.0,0.0,0.0,0.0,0.0,86.07,3086.07,26877.0,Direct,,,View report (https://accesshub.pdc.wa.gov/node/31002),Business and consumer affairs,15775409,"legislators, gov, exec staff, DOR"
15364,30694-27174,30694,FE,17543,H2 Government Relations,Employer,27174,Weidner Property Management,17-Feb,3/3/2017,27172.0,Weidner Property Management,3000.0,0.0,3000.0,0.0,0.0,0.0,0.0,0.0,0.0,0.0,3000.0,27174.0,Direct,,,View report (https://accesshub.pdc.wa.gov/node/30694),Business and consumer affairs,Condo and Homeowner,"House Judiciary, Senate FII, Ways & Means, Senate Judiciary"
15365,31189-29303,31189,FE,17683,Legislative Solutions,Employer,29303,Manufacturing Industrial Council of Seattle,17-Feb,3/3/2017,29299.0,Manufacturing Industrial Council of Seattle,2000.0,0.0,2000.0,0.0,0.0,0.0,0.0,0.0,0.0,0.0,2000.0,29303.0,Direct,,,View report (https://accesshub.pdc.wa.gov/node/31189),Education,Workforce Development,"TED, Education & Budget Committees in House & Senate"
15366,31191-29611,31191,FE,17401,Brynn Brady,Employer,29611,City of Woodinville,17-Feb,3/3/2017,29610.0,City of Woodinville,3500.0,0.0,3500.0,0.0,0.0,0.0,0.0,0.0,0.0,0.0,3500.0,29611.0,Direct,,,View report (https://accesshub.pdc.wa.gov/node/31191),Local government,Local Government,Gov Ops
15367,31228-18213,31228,FE,17364,BOB BASS,Employer,18213,AT&T SERVICES INC,17-Feb,3/4/2017,16175.0,AT&T SERVICES INC,1000.0,0.0,1000.0,230.0,0.0,0.0,0.0,0.0,0.0,230.0,1230.0,18213.0,Direct,,,View report (https://accesshub.pdc.wa.gov/node/31228),Technology,SB 5711,Senate Energy Environment and Telecommunications
15370,31229-19739,31229,FE,18019,MICHAEL TEMPLE,Employer,19739,PHARMACEUTICAL CARE MANAGEMENT ASSN,17-Feb,3/4/2017,16775.0,PHARMACEUTICAL CARE MANAGEMENT ASSN,7500.0,0.0,7500.0,0.0,0.0,0.0,0.0,0.0,0.0,0.0,7500.0,19739.0,Direct,,,View report (https://accesshub.pdc.wa.gov/node/31229),Health Care,Health,Legislature and OIC
15371,31231-27140,31231,FE,17372,BRUCE K BECKETT,Employer,27140,PORT OF MOSES LAKE,17-Feb,3/4/2017,16802.0,PORT OF MOSES LAKE,3000.0,0.0,3000.0,0.0,0.0,0.0,0.0,0.0,0.0,0.0,3000.0,27140.0,Direct,,,View report (https://accesshub.pdc.wa.gov/node/31231),Transportation,Moses Lake Rail,House Senate Transportation Committee members
15373,31229-19740,31229,FE,18019,MICHAEL TEMPLE,Employer,19740,SPOKANE TRIBE OF INDIANS,17-Feb,3/4/2017,16944.0,SPOKANE TRIBE OF INDIANS,5000.0,0.0,5000.0,0.0,0.0,0.0,0.0,0.0,0.0,0.0,5000.0,19740.0,Direct,,,View report (https://accesshub.pdc.wa.gov/node/31229),Environmental Affairs - natural resources - parks,Water,Legislature and Gov
15374,31229-19741,31229,FE,18019,MICHAEL TEMPLE,Employer,19741,WA ST ASSN FOR JUSTICE,17-Feb,3/4/2017,17289.0,WA ST ASSN FOR JUSTICE,15000.0,0.0,15000.0,244.61,0.0,0.0,0.0,0.0,0.0,244.61,15244.61,19741.0,Direct,,,View report (https://accesshub.pdc.wa.gov/node/31229),Law and justice,"Arbitration, WC","Legislature, L&I, OIC, Gov"
15375,31231-26835,31231,FE,17372,BRUCE K BECKETT,Employer,26835,WA Hospitality Assn,17-Feb,3/4/2017,26557.0,WA Hospitality Assn,10000.0,0.0,10000.0,0.0,0.0,0.0,0.0,0.0,0.0,0.0,10000.0,26835.0,Direct,,,View report (https://accesshub.pdc.wa.gov/node/31231),Labor,I-1143 rule making; teen wage,Dept. of Labor & Industries; Labor and Commerce Committees
15376,31231-29456,31231,FE,17372,BRUCE K BECKETT,Employer,29456,Wenatchee Valley Chamber of Commerce,17-Feb,3/4/2017,28448.0,Wenatchee Valley Chamber of Commerce,1500.0,0.0,1500.0,0.0,0.0,0.0,0.0,0.0,0.0,0.0,1500.0,29456.0,Direct,,,View report (https://accesshub.pdc.wa.gov/node/31231),Fiscal,Tourism; HB 1123,"Senate/House Econ Development, Appropriations, Ways and Means"
15411,31235-18759,31235,FE,17565,GANO & ASSOC*,Employer,18759,Chubb,17-Feb,3/6/2017,16063.0,Chubb,3500.0,0.0,3500.0,0.0,0.0,0.0,0.0,0.0,462.25,462.25,3962.25,18759.0,Direct,,,View report (https://accesshub.pdc.wa.gov/node/31235),Financial institutions and insurance,Insurance,H S Finacial Inst and Insurance
15412,31235-18760,31235,FE,17565,GANO & ASSOC*,Employer,18760,AT&T SERVICES INC,17-Feb,3/6/2017,16175.0,AT&T SERVICES INC,6000.0,0.0,6000.0,0.0,0.0,0.0,0.0,0.0,792.43,792.43,6792.43,18760.0,Direct,,,View report (https://accesshub.pdc.wa.gov/node/31235),Technology,Cell Phone,"H Tech, Sen Tech"
15413,31235-18761,31235,FE,17565,GANO & ASSOC*,Employer,18761,AVIATION TECHNICAL SERVICES INC,17-Feb,3/6/2017,16179.0,AVIATION TECHNICAL SERVICES INC,4000.0,0.0,4000.0,0.0,0.0,0.0,0.0,0.0,528.29,528.29,4528.29,18761.0,Direct,,,View report (https://accesshub.pdc.wa.gov/node/31235),Business and consumer affairs,Airplane Repair,H S Ways Means
15414,31235-18762,31235,FE,17565,GANO & ASSOC*,Employer,18762,BUILDING INDUSTRY ASSN OF WA,17-Feb,3/6/2017,16215.0,BUILDING INDUSTRY ASSN OF WA,6000.0,0.0,6000.0,0.0,0.0,0.0,0.0,0.0,792.43,792.43,6792.43,18762.0,Direct,,,View report (https://accesshub.pdc.wa.gov/node/31235),Local government,Home Building,"H S Local Gov, Commerce Labor"
15415,31235-18763,31235,FE,17565,GANO & ASSOC*,Employer,18763,CONTINENTAL CASUALTY COMPANY (CNA Insurance Companies),17-Feb,3/6/2017,16363.0,CONTINENTAL CASUALTY COMPANY (CNA Insurance Companies),3500.0,0.0,3500.0,0.0,0.0,0.0,0.0,0.0,462.25,462.25,3962.25,18763.0,Direct,,,View report (https://accesshub.pdc.wa.gov/node/31235),Financial institutions and insurance,Insurance,H S Financial Inst and Insurance
15416,31235-18764,31235,FE,17565,GANO & ASSOC*,Employer,18764,Molson Coors Beverage Company USA LLC,17-Feb,3/6/2017,16366.0,Molson Coors Beverage Company USA LLC,4000.0,0.0,4000.0,0.0,0.0,0.0,0.0,0.0,528.29,528.29,4528.29,18764.0,Direct,,,View report (https://accesshub.pdc.wa.gov/node/31235),Business and consumer affairs,Beer,H S Commerce
15417,31243-19163,31243,FE,17764,Renee Maher,Employer,19163,COUNCIL OF METROPOLITAN POLICE & SHERIFFS,17-Feb,3/6/2017,16371.0,COUNCIL OF METROPOLITAN POLICE & SHERIFFS,3500.0,0.0,3500.0,0.0,0.0,0.0,0.0,0.0,0.0,0.0,3500.0,19163.0,Direct,,,View report (https://accesshub.pdc.wa.gov/node/31243),Law and justice,1529,House Public Safety
15418,31258-18583,31258,FE,17501,David T. Ducharme,Employer,18583,DISTILLED SPIRITS COUNCIL OF THE US,17-Jan,3/6/2017,16391.0,DISTILLED SPIRITS COUNCIL OF THE US,5000.0,0.0,5000.0,0.0,0.0,0.0,0.0,0.0,0.0,0.0,5000.0,18583.0,Direct,,,View report (https://accesshub.pdc.wa.gov/node/31258),Business and consumer affairs,Liquor Issues,Commerce and gaming
15419,31235-18765,31235,FE,17565,GANO & ASSOC*,Employer,18765,Expedia Group,17-Feb,3/6/2017,16427.0,Expedia Group,4500.0,0.0,4500.0,0.0,0.0,0.0,0.0,0.0,400.0,400.0,4900.0,18765.0,Direct,,,View report (https://accesshub.pdc.wa.gov/node/31235),Technology,Travel Agent,"H S Tech, Local Gov Business and Consumer"
15420,31235-18766,31235,FE,17565,GANO & ASSOC*,Employer,18766,GATEWAY AVIATION,17-Feb,3/6/2017,16465.0,GATEWAY AVIATION,7500.0,0.0,7500.0,0.0,0.0,0.0,0.0,0.0,490.53,490.53,7990.53,18766.0,Direct,,,View report (https://accesshub.pdc.wa.gov/node/31235),Transportation,Airplane,"H S Business, Commerce Fiscal"
15421,31235-18767,31235,FE,17565,GANO & ASSOC*,Employer,18767,CAL PORTLAND COMPANY,17-Feb,3/6/2017,16472.0,CAL PORTLAND COMPANY,4000.0,0.0,4000.0,258.47,0.0,0.0,0.0,0.0,528.29,786.76,4786.76,18767.0,Direct,,,View report (https://accesshub.pdc.wa.gov/node/31235),Agriculture,Construction Materials,"H S Ag, HS Transportation"
15422,31266-19730,31266,FE,18011,JOSHUA J SWANSON,Employer,19730,IUOE LOCAL 302,17-Feb,3/6/2017,16552.0,IUOE LOCAL 302,8433.2,0.0,8433.2,0.0,146.87,0.0,0.0,0.0,0.0,146.87,8580.07,19730.0,Direct,,,View report (https://accesshub.pdc.wa.gov/node/31266),Labor,SB 5576,"Senate Labor, Commerce and Sports"
15423,31235-18769,31235,FE,17565,GANO & ASSOC*,Employer,18769,Kapstone Paper and Packaging d/b/a WestRock,17-Feb,3/6/2017,16571.0,Kapstone Paper and Packaging d/b/a WestRock,5000.0,0.0,5000.0,0.0,0.0,0.0,0.0,0.0,660.36,660.36,5660.36,18769.0,Direct,,,View report (https://accesshub.pdc.wa.gov/node/31235),Energy and utilities,Biomass,H S Tech Sen Energy
15424,31235-18770,31235,FE,17565,GANO & ASSOC*,Employer,18770,KEYBANK,17-Feb,3/6/2017,16574.0,KEYBANK,1800.0,0.0,1800.0,0.0,0.0,0.0,0.0,0.0,237.73,237.73,2037.73,18770.0,Direct,,,View report (https://accesshub.pdc.wa.gov/node/31235),Financial institutions and insurance,Banking,H S Financial Inst
15425,31235-18771,31235,FE,17565,GANO & ASSOC*,Employer,18771,MCNA HEALTH CARE HOLDINGS,17-Feb,3/6/2017,16627.0,MCNA HEALTH CARE HOLDINGS,6500.0,0.0,6500.0,0.0,0.0,0.0,0.0,0.0,0.0,0.0,6500.0,18771.0,Direct,,,View report (https://accesshub.pdc.wa.gov/node/31235),Health Care,Medicaid Dental,H S Health Care
15426,31258-18585,31258,FE,17501,David T. Ducharme,Employer,18585,NATL UTILITY CONTRACTORS ASSN WA CHAPTER,17-Jan,3/6/2017,16674.0,NATL UTILITY CONTRACTORS ASSN WA CHAPTER,4000.0,0.0,4000.0,0.0,0.0,0.0,0.0,0.0,0.0,0.0,4000.0,18585.0,Direct,,,View report (https://accesshub.pdc.wa.gov/node/31258),Law and justice,Notice of construction claims,Law and Justice
15427,31235-18772,31235,FE,17565,GANO & ASSOC*,Employer,18772,ALTRIA CLIENT SERVICES LLC & ITS AFFILIATES,17-Feb,3/6/2017,16778.0,ALTRIA CLIENT SERVICES LLC & ITS AFFILIATES,6666.67,0.0,6666.67,0.0,0.0,0.0,0.0,0.0,480.48,480.48,7147.15,18772.0,Direct,,,View report (https://accesshub.pdc.wa.gov/node/31235),Business and consumer affairs,Tobacco,"H Commerce, Sen Commerce"
15428,31235-18773,31235,FE,17565,GANO & ASSOC*,Employer,18773,PREMERA BLUE CROSS,17-Feb,3/6/2017,16812.0,PREMERA BLUE CROSS,10084.0,0.0,10084.0,536.01,0.0,0.0,0.0,0.0,0.0,536.01,10620.01,18773.0,Direct,,,View report (https://accesshub.pdc.wa.gov/node/31235),Health Care,Health Care,H S Healthcare
15429,31235-18774,31235,FE,17565,GANO & ASSOC*,Employer,18774,SCI Shared Resources LLC,17-Feb,3/6/2017,16884.0,SCI Shared Resources LLC,4000.0,0.0,4000.0,0.0,0.0,0.0,0.0,0.0,528.29,528.29,4528.29,18774.0,Direct,,,View report (https://accesshub.pdc.wa.gov/node/31235),Business and consumer affairs,Funeral business,H S Business and Consumer Affairs
15430,31235-18775,31235,FE,17565,GANO & ASSOC*,Employer,18775,SCIENTIFIC GAMES CORPORATION,17-Feb,3/6/2017,16885.0,SCIENTIFIC GAMES CORPORATION,3000.0,0.0,3000.0,0.0,0.0,0.0,0.0,0.0,0.0,0.0,3000.0,18775.0,Direct,,,View report (https://accesshub.pdc.wa.gov/node/31235),Fiscal,Lottery Scratch Tickets,WA Lottery H S Commerce
15431,31235-18776,31235,FE,17565,GANO & ASSOC*,Employer,18776,SHELL OIL CO,17-Feb,3/6/2017,16911.0,SHELL OIL CO,5000.0,0.0,5000.0,0.0,0.0,0.0,0.0,0.0,660.36,660.36,5660.36,18776.0,Direct,,,View report (https://accesshub.pdc.wa.gov/node/31235),Transportation,Oil Refinery,H S Trans H S Business Fiscal
15432,31235-18777,31235,FE,17565,GANO & ASSOC*,Employer,18777,STE MICHELLE WINE ESTATES LLC,17-Feb,3/6/2017,16948.0,STE MICHELLE WINE ESTATES LLC,4500.0,0.0,4500.0,0.0,0.0,0.0,0.0,0.0,594.32,594.32,5094.32,18777.0,Direct,,,View report (https://accesshub.pdc.wa.gov/node/31235),Business and consumer affairs,Wine,H S Commerce
15433,31235-18778,31235,FE,17565,GANO & ASSOC*,Employer,18778,NEW SUNCADIA LLC,17-Feb,3/6/2017,16956.0,NEW SUNCADIA LLC,3250.0,0.0,3250.0,81.86,0.0,0.0,0.0,0.0,0.0,81.86,3331.86,18778.0,Direct,,,View report (https://accesshub.pdc.wa.gov/node/31235),Agriculture,"Water, Resort",H S Ag Business and Consumer
15434,31235-18780,31235,FE,17565,GANO & ASSOC*,Employer,18780,Uber Technologies Inc and Affiliates,17-Feb,3/6/2017,17001.0,Uber Technologies Inc and Affiliates,7500.0,0.0,7500.0,0.0,0.0,0.0,0.0,0.0,500.0,500.0,8000.0,18780.0,Direct,,,View report (https://accesshub.pdc.wa.gov/node/31235),Technology,Rideshare,H S Transport H S Commerce
15436,31235-18781,31235,FE,17565,GANO & ASSOC*,Employer,18781,WALMART INC.,17-Feb,3/6/2017,17042.0,WALMART INC.,9000.0,0.0,9000.0,0.0,0.0,0.0,0.0,0.0,924.5,924.5,9924.5,18781.0,Direct,,,View report (https://accesshub.pdc.wa.gov/node/31235),Business and consumer affairs,Retail Stores,H S Business H S Commerce
15437,31276-29932,31276,FE,29929,Sean P Pickard,Employer,29932,Delta Dental of WA,17-Feb,3/6/2017,17096.0,Delta Dental of WA,1000.0,0.0,1000.0,360.0,0.0,0.0,0.0,0.0,0.0,360.0,1360.0,29932.0,Direct,,,View report (https://accesshub.pdc.wa.gov/node/31276),Health Care,dental benefits,House and Senate Health Care Committees
15438,31258-18587,31258,FE,17501,David T. Ducharme,Employer,18587,WA ST TREE FRUIT ASSN,17-Jan,3/6/2017,17197.0,WA ST TREE FRUIT ASSN,5500.0,0.0,5500.0,0.0,0.0,0.0,0.0,0.0,0.0,0.0,5500.0,18587.0,Direct,,,View report (https://accesshub.pdc.wa.gov/node/31258),Labor,5720,Agriculture
15439,31245-25844,31245,FE,25843,Tonia Sorrell-Neal,Employer,25844,WA ST CONFERENCE OF MASON CONTRACTORS,17-Feb,3/6/2017,17234.0,WA ST CONFERENCE OF MASON CONTRACTORS,1500.0,0.0,1500.0,0.0,0.0,0.0,0.0,0.0,0.0,0.0,1500.0,25844.0,Direct,,,View report (https://accesshub.pdc.wa.gov/node/31245),Environmental Affairs - natural resources - parks,"SB5379,SB5450, SB5412, HB1436,","Liias, Warnick, Ranker, Fain, Miloscia, Zeiger, Wilson, McCoy, Chase, Mullet, Frockt"
15440,31250-19612,31250,FE,17959,EVAN SHEFFELS,Employer,19612,WA ST FARM BUREAU,17-Feb,3/6/2017,17246.0,WA ST FARM BUREAU,4000.0,0.0,4000.0,0.0,0.0,0.0,0.0,0.0,0.0,0.0,4000.0,19612.0,Direct,,,View report (https://accesshub.pdc.wa.gov/node/31250),Agriculture,Ag and Enviro Issues,Ag and Enviro Agencies and Committees
15441,31235-18782,31235,FE,17565,GANO & ASSOC*,Employer,18782,WELLS FARGO & CO,17-Feb,3/6/2017,17296.0,WELLS FARGO & CO,3250.0,0.0,3250.0,0.0,0.0,0.0,0.0,0.0,429.23,429.23,3679.23,18782.0,Direct,,,View report (https://accesshub.pdc.wa.gov/node/31235),Financial institutions and insurance,Banking,H S Financial Inst
15442,31235-26763,31235,FE,17565,GANO & ASSOC*,Employer,26763,Advantage Capital,17-Feb,3/6/2017,26331.0,Advantage Capital,3000.0,0.0,3000.0,0.0,0.0,0.0,0.0,0.0,0.0,0.0,3000.0,26763.0,Direct,,,View report (https://accesshub.pdc.wa.gov/node/31235),Fiscal,Rural Eco Develop,"H Tech Eco Develop, Sen Ag Eco Develp"
15443,31227-31222,31227,FE,31111,ERIK ASHLIE-VINKE,Employer,31222,Economic Alliance Snohomish County,17-Feb,3/6/2017,31220.0,Economic Alliance Snohomish County,1000.0,0.0,1000.0,155.16,0.0,0.0,0.0,0.0,0.0,155.16,1155.16,31222.0,Direct,,,View report (https://accesshub.pdc.wa.gov/node/31227),Fiscal,"Economic development, capitol & operating budget items, other EASC regional priorities",Legislature
15464,31279-18813,31279,FE,17579,Melissa M Gombosky,Employer,18813,ASSN OF AMERICAN PUBLISHERS,17-Feb,3/7/2017,16116.0,ASSN OF AMERICAN PUBLISHERS,3720.0,0.0,3720.0,0.0,0.0,0.0,0.0,0.0,0.0,0.0,3720.0,18813.0,Direct,,,View report (https://accesshub.pdc.wa.gov/node/31279),Education,education,House Education Committee and Senate Early Learning and K-12
15465,31329-18326,31329,FE,17415,BUCHHOLZ & ASSOC LLC*,Employer,18326,BUCHHOLZ FARMS,17-Jan,3/7/2017,16212.0,BUCHHOLZ FARMS,6000.0,0.0,6000.0,0.0,0.0,0.0,0.0,0.0,0.0,0.0,6000.0,18326.0,Direct,,,View report (https://accesshub.pdc.wa.gov/node/31329),,,
15466,31331-18326,31331,FE,17415,BUCHHOLZ & ASSOC LLC*,Employer,18326,BUCHHOLZ FARMS,17-Feb,3/7/2017,16212.0,BUCHHOLZ FARMS,6000.0,0.0,6000.0,0.0,0.0,0.0,0.0,0.0,0.0,0.0,6000.0,18326.0,Direct,,,View report (https://accesshub.pdc.wa.gov/node/31331),,,
15467,31271-25642,31271,FE,18088,White Tudor LLC,Employer,25642,CENTER FOR DIAGNOSTIC IMAGING,17-Feb,3/7/2017,16242.0,CENTER FOR DIAGNOSTIC IMAGING,1000.0,0.0,1000.0,0.0,0.0,0.0,0.0,0.0,0.0,0.0,1000.0,25642.0,Direct,,,View report (https://accesshub.pdc.wa.gov/node/31271),,,
15468,31329-19978,31329,FE,17415,BUCHHOLZ & ASSOC LLC*,Employer,19978,CITY OF BELLINGHAM (MCBRIDE PUBLIC AFFAIRS LLC*),17-Jan,3/7/2017,16276.0,CITY OF BELLINGHAM,496.0,0.0,496.0,0.0,0.0,0.0,0.0,0.0,0.0,0.0,496.0,19978.0,Subcontract,17779.0,MCBRIDE PUBLIC AFFAIRS LLC*,View report (https://accesshub.pdc.wa.gov/node/31329),,,
15469,31331-19978,31331,FE,17415,BUCHHOLZ & ASSOC LLC*,Employer,19978,CITY OF BELLINGHAM (MCBRIDE PUBLIC AFFAIRS LLC*),17-Feb,3/7/2017,16276.0,CITY OF BELLINGHAM,496.0,0.0,496.0,0.0,0.0,0.0,0.0,0.0,0.0,0.0,496.0,19978.0,Subcontract,17779.0,MCBRIDE PUBLIC AFFAIRS LLC*,View report (https://accesshub.pdc.wa.gov/node/31331),,,
15470,31329-20098,31329,FE,17415,BUCHHOLZ & ASSOC LLC*,Employer,20098,CITY OF KENNEWICK (MCBRIDE PUBLIC AFFAIRS LLC*),17-Jan,3/7/2017,16290.0,CITY OF KENNEWICK,2000.0,0.0,2000.0,0.0,0.0,0.0,0.0,0.0,0.0,0.0,2000.0,20098.0,Subcontract,17779.0,MCBRIDE PUBLIC AFFAIRS LLC*,View report (https://accesshub.pdc.wa.gov/node/31329),,,
15471,31331-20098,31331,FE,17415,BUCHHOLZ & ASSOC LLC*,Employer,20098,CITY OF KENNEWICK (MCBRIDE PUBLIC AFFAIRS LLC*),17-Feb,3/7/2017,16290.0,CITY OF KENNEWICK,2000.0,0.0,2000.0,0.0,0.0,0.0,0.0,0.0,0.0,0.0,2000.0,20098.0,Subcontract,17779.0,MCBRIDE PUBLIC AFFAIRS LLC*,View report (https://accesshub.pdc.wa.gov/node/31331),,,
15472,31284-26261,31284,FE,17536,Nick Federici,Employer,26261,CITY OF SPOKANE,17-Feb,3/7/2017,16314.0,CITY OF SPOKANE,1650.0,0.0,1650.0,0.0,0.0,0.0,0.0,0.0,0.0,0.0,1650.0,26261.0,Direct,,,View report (https://accesshub.pdc.wa.gov/node/31284),Local government,Issues Pertaining to City of Spokane,"Senate Ways, House approps, House Finance, Sen Healthcare, House Healthcare, House Local Government, Transportation,"
15473,31329-18327,31329,FE,17415,BUCHHOLZ & ASSOC LLC*,Employer,18327,Pacific NW Farmers Coop,17-Jan,3/7/2017,16365.0,Pacific NW Farmers Coop,3600.0,0.0,3600.0,0.0,0.0,0.0,0.0,0.0,0.0,0.0,3600.0,18327.0,Direct,,,View report (https://accesshub.pdc.wa.gov/node/31329),,,
15474,31331-18327,31331,FE,17415,BUCHHOLZ & ASSOC LLC*,Employer,18327,Pacific NW Farmers Coop,17-Feb,3/7/2017,16365.0,Pacific NW Farmers Coop,3600.0,0.0,3600.0,0.0,0.0,0.0,0.0,0.0,0.0,0.0,3600.0,18327.0,Direct,,,View report (https://accesshub.pdc.wa.gov/node/31331),,,
15476,31279-18814,31279,FE,17579,Melissa M Gombosky,Employer,18814,EDUCATIONAL SERVICE DISTRICT 105,17-Feb,3/7/2017,16406.0,EDUCATIONAL SERVICE DISTRICT 105,2500.0,0.0,2500.0,0.0,0.0,0.0,0.0,0.0,0.0,0.0,2500.0,18814.0,Direct,,,View report (https://accesshub.pdc.wa.gov/node/31279),Education,education,House Education Committee and Senate Early Learning and K-12
15477,31297-18352,31297,FE,17431,CAPITOL SOLUTIONS*,Employer,18352,EVERGREEN SCHOOL DIST #114,17-Feb,3/7/2017,16423.0,EVERGREEN SCHOOL DIST #114,996.75,0.0,996.75,0.0,0.0,0.0,0.0,0.0,0.0,0.0,996.75,18352.0,Direct,,,View report (https://accesshub.pdc.wa.gov/node/31297),Education,EDUCATION FISCAL,MULTIPLE
15478,28519-19784,28519,FE,18036,SUSAN S TRACY,Employer,19784,EVERGREEN TREATMENT SERVICES,16-Dec,3/7/2017,16424.0,EVERGREEN TREATMENT SERVICES,1500.0,0.0,1500.0,0.0,0.0,0.0,0.0,0.0,0.0,0.0,1500.0,19784.0,Direct,,,View report (https://accesshub.pdc.wa.gov/node/28519),Health Care,drug treatment,"health care, app, wm"
15479,31284-18690,31284,FE,17536,Nick Federici,Employer,18690,FAIRFAX HOSPITAL,17-Feb,3/7/2017,16431.0,FAIRFAX HOSPITAL,4000.0,0.0,4000.0,0.0,0.0,0.0,0.0,0.0,0.0,0.0,4000.0,18690.0,Direct,,,View report (https://accesshub.pdc.wa.gov/node/31284),Health Care,Mental Health,"Senate HC, Ways, HSMHH, House HC, Approps"
15480,31330-26108,31330,FE,26001,BMcConsulting,Employer,26108,FIRE SPRINKLER ADVISORY BD OF PUGET SOUND (DOTY & ASSOC INC*),17-Feb,3/7/2017,16444.0,FIRE SPRINKLER ADVISORY BD OF PUGET SOUND,1050.0,0.0,1050.0,0.0,0.0,0.0,0.0,0.0,0.0,0.0,1050.0,26108.0,Subcontract,17496.0,DOTY & ASSOC INC*,View report (https://accesshub.pdc.wa.gov/node/31330),,,
15481,31304-19353,31304,FE,17842,MAXFORD NELSEN,Employer,19353,FREEDOM FOUNDATION,17-Feb,3/7/2017,16460.0,FREEDOM FOUNDATION,1000.0,0.0,1000.0,0.0,0.0,0.0,0.0,0.0,0.0,0.0,1000.0,19353.0,Direct,,,View report (https://accesshub.pdc.wa.gov/node/31304),Labor,Unions/collective bargaining,Senate Commerce Labor and Sports Committee
15482,31324-18721,31324,FE,17545,JODY DANIELS,Employer,18721,GLAXO SMITHKLINE,17-Feb,3/7/2017,16473.0,GLAXO SMITHKLINE,2880.0,0.0,2880.0,376.04,0.0,0.0,0.0,0.0,0.0,376.04,3256.04,18721.0,Direct,,,View report (https://accesshub.pdc.wa.gov/node/31324),,,
15483,28519-27343,28519,FE,18036,SUSAN S TRACY,Employer,27343,Greater Seattle Business Assn,16-Dec,3/7/2017,16485.0,Greater Seattle Business Assn,1500.0,0.0,1500.0,0.0,0.0,0.0,0.0,0.0,0.0,0.0,1500.0,27343.0,Direct,,,View report (https://accesshub.pdc.wa.gov/node/28519),Business and consumer affairs,general business,all
15484,31279-18816,31279,FE,17579,Melissa M Gombosky,Employer,18816,INLAND EMPIRE PAPER,17-Feb,3/7/2017,16530.0,INLAND EMPIRE PAPER,3000.0,0.0,3000.0,0.0,0.0,0.0,0.0,0.0,0.0,0.0,3000.0,18816.0,Direct,,,View report (https://accesshub.pdc.wa.gov/node/31279),Environmental Affairs - natural resources - parks,environmental issues,House and Senate Environment Committees
15485,31294-19330,31294,FE,17831,DEBORAH A MURPHY,Employer,19330,LEADINGAGE WA,17-Feb,3/7/2017,16588.0,LEADINGAGE WA,6379.2,0.0,6379.2,0.0,0.0,0.0,0.0,0.0,0.0,0.0,6379.2,19330.0,Direct,,,View report (https://accesshub.pdc.wa.gov/node/31294),Health Care,"Assisted Living Funding, CCRC","Rep. Schmick, Rep. Caldier, Rep. Macri, Sen. Pederson, Sen. Mullet, Sen. Ranker, Sen. Becker, Sen. Bailey, Rep. Cody"
15487,31314-18514,31314,FE,17471,JAMES CURRY,Employer,18514,MONSANTO,17-Feb,3/7/2017,16644.0,MONSANTO,525.6,0.0,525.6,0.0,0.0,0.0,0.0,0.0,0.0,0.0,525.6,18514.0,Direct,,,View report (https://accesshub.pdc.wa.gov/node/31314),Agriculture,Agriculture and biotechnology,House and Senate Agriculture Committees and Washington State Department of Agriculture
15488,31279-18817,31279,FE,17579,Melissa M Gombosky,Employer,18817,NORTHWEST AGRICULTURE BUSINESS CENTER,17-Feb,3/7/2017,16696.0,NORTHWEST AGRICULTURE BUSINESS CENTER,2500.0,0.0,2500.0,0.0,0.0,0.0,0.0,0.0,0.0,0.0,2500.0,18817.0,Direct,,,View report (https://accesshub.pdc.wa.gov/node/31279),Agriculture,appropriations committee,Appropriations and Ways and Means Committees
15489,31330-28540,31330,FE,26001,BMcConsulting,Employer,28540,PARATRANSIT SERVICES (DOTY & ASSOC INC*),17-Feb,3/7/2017,16762.0,PARATRANSIT SERVICES,1250.0,0.0,1250.0,0.0,0.0,0.0,0.0,0.0,0.0,0.0,1250.0,28540.0,Subcontract,17496.0,DOTY & ASSOC INC*,View report (https://accesshub.pdc.wa.gov/node/31330),,,
15490,31279-18818,31279,FE,17579,Melissa M Gombosky,Employer,18818,PERSONAL CARE PRODUCTS COUNCIL,17-Feb,3/7/2017,16773.0,PERSONAL CARE PRODUCTS COUNCIL,3000.0,0.0,3000.0,0.0,0.0,0.0,0.0,0.0,0.0,0.0,3000.0,18818.0,Direct,,,View report (https://accesshub.pdc.wa.gov/node/31279),Education,education committee,House Education Committee and Senate Early Learning and K-12
15492,31284-18692,31284,FE,17536,Nick Federici,Employer,18692,PIONEER HUMAN SERVICES,17-Feb,3/7/2017,16788.0,PIONEER HUMAN SERVICES,3000.0,0.0,3000.0,0.0,0.0,0.0,0.0,0.0,0.0,0.0,3000.0,18692.0,Direct,,,View report (https://accesshub.pdc.wa.gov/node/31284),Human services,"Mental health, chemical dependency, criminal justice","Senate HC, Ways, HSMHH, L&J, House HC, Approps, Pub safety"
15493,31329-19971,31329,FE,17415,BUCHHOLZ & ASSOC LLC*,Employer,19971,PORT OF BELLINGHAM (MCBRIDE PUBLIC AFFAIRS LLC*),17-Jan,3/7/2017,16792.0,PORT OF BELLINGHAM,2000.0,0.0,2000.0,0.0,0.0,0.0,0.0,0.0,0.0,0.0,2000.0,19971.0,Subcontract,17779.0,MCBRIDE PUBLIC AFFAIRS LLC*,View report (https://accesshub.pdc.wa.gov/node/31329),,,
15494,31331-19971,31331,FE,17415,BUCHHOLZ & ASSOC LLC*,Employer,19971,PORT OF BELLINGHAM (MCBRIDE PUBLIC AFFAIRS LLC*),17-Feb,3/7/2017,16792.0,PORT OF BELLINGHAM,2000.0,0.0,2000.0,0.0,0.0,0.0,0.0,0.0,0.0,0.0,2000.0,19971.0,Subcontract,17779.0,MCBRIDE PUBLIC AFFAIRS LLC*,View report (https://accesshub.pdc.wa.gov/node/31331),,,
15495,31297-18354,31297,FE,17431,CAPITOL SOLUTIONS*,Employer,18354,PUGET SOUND CLEAN AIR AGENCY,17-Feb,3/7/2017,16826.0,PUGET SOUND CLEAN AIR AGENCY,267.94,0.0,267.94,0.0,0.0,0.0,0.0,0.0,0.0,0.0,267.94,18354.0,Direct,,,View report (https://accesshub.pdc.wa.gov/node/31297),Environmental Affairs - natural resources - parks,CLEAN AIR ENVIRONMENTAL,MULTIPLE
15496,31284-18694,31284,FE,17536,Nick Federici,Employer,18694,SEIU 775,17-Feb,3/7/2017,16905.0,SEIU 775,2500.0,0.0,2500.0,0.0,0.0,0.0,0.0,0.0,0.0,0.0,2500.0,18694.0,Direct,,,View report (https://accesshub.pdc.wa.gov/node/31284),Health Care,Long-Term Care,"Senate HC, Ways, House HC, Approps"
15497,28519-19785,28519,FE,18036,SUSAN S TRACY,Employer,19785,THERAPEUTIC HEALTH SERVICES,16-Dec,3/7/2017,16981.0,THERAPEUTIC HEALTH SERVICES,1500.0,0.0,1500.0,0.0,0.0,0.0,0.0,0.0,0.0,0.0,1500.0,19785.0,Direct,,,View report (https://accesshub.pdc.wa.gov/node/28519),Health Care,drug treatment,"health care, app, wm"
15498,31289-25496,31289,FE,25495,Caleb Weaver,Employer,25496,Uber Technologies Inc and Affiliates,17-Feb,3/7/2017,17001.0,Uber Technologies Inc and Affiliates,792.0,0.0,792.0,282.0,0.0,0.0,0.0,0.0,0.0,282.0,1074.0,25496.0,Direct,,,View report (https://accesshub.pdc.wa.gov/node/31289),Transportation,SB 5362,State unemployment insurance exemption
15499,31284-18695,31284,FE,17536,Nick Federici,Employer,18695,UNITED WAY OF KING CO,17-Feb,3/7/2017,17018.0,UNITED WAY OF KING CO,1250.0,0.0,1250.0,0.0,0.0,0.0,0.0,0.0,0.0,0.0,1250.0,18695.0,Direct,,,View report (https://accesshub.pdc.wa.gov/node/31284),Human services,"Housing, homelessness, early learning, human services","Senate HSMHH, Ways, FII, K-12, House Approps, Comm Dev, HS/EL, Ed"
15500,31271-24893,31271,FE,18088,White Tudor LLC,Employer,24893,WA ASSN OF AREA AGENCIES ON AGING,17-Feb,3/7/2017,17044.0,WA ASSN OF AREA AGENCIES ON AGING,2500.0,0.0,2500.0,0.0,0.0,0.0,0.0,0.0,0.0,0.0,2500.0,24893.0,Direct,,,View report (https://accesshub.pdc.wa.gov/node/31271),Health Care,many,"DSHS, HCA, legislature"
