,id,report_number,origin,filer_id,filer_name,type,funding_source_id,funding_source_name,filing_period,receipt_date,employer_id,employer_name,compensation,sub_lobbyist_compensation,net_compensation,personal_expenses,entertainment,contributions,advertising,political_ads,other,total_expenses,net_total,employment_registration_id,employment_type,contractor_id,contractor_name,url,legislation_subject_matter,issue_bill_number,committee_lobbied
40000,47585-27392,47585,FE,27377,Ludeman Public Affairs,Employer,27392,STE MICHELLE WINE ESTATES LLC (GANO & ASSOC*),18-Sep,10/15/2018,16948.0,STE MICHELLE WINE ESTATES LLC,594.32,0.0,594.32,0.0,0.0,0.0,0.0,0.0,0.0,0.0,594.32,27392.0,Subcontract,17565.0,GANO & ASSOC*,View report (https://accesshub.pdc.wa.gov/node/47585),,,
40001,47538-19013,47538,FE,17666,ALEX HUR,Employer,19013,STATEWIDE POVERTY ACTION NETWORK,18-Sep,10/15/2018,16952.0,STATEWIDE POVERTY ACTION NETWORK,3000.0,0.0,3000.0,0.0,0.0,0.0,0.0,0.0,0.0,0.0,3000.0,19013.0,Direct,,,View report (https://accesshub.pdc.wa.gov/node/47538),Human services,"Human Services, criminal justice reform","Human Services, Appropriations, Ways and Means"
40002,47326-19438,47326,FE,17879,THOMAS M PARKER,Employer,19438,Superior Court Judges Association,18-Sep,10/15/2018,16960.0,Superior Court Judges Association,8333.33,0.0,8333.33,0.0,0.0,0.0,0.0,0.0,0.0,0.0,8333.33,19438.0,Direct,,,View report (https://accesshub.pdc.wa.gov/node/47326),Law and justice,JUDICIAL,ADMIN SEN HOUSE FISCAL JUDICIAL CHILD
40003,47326-19439,47326,FE,17879,THOMAS M PARKER,Employer,19439,SURPLUS LINE ASSN OF WA,18-Sep,10/15/2018,16962.0,SURPLUS LINE ASSN OF WA,6500.0,0.0,6500.0,0.0,0.0,0.0,0.0,0.0,0.0,0.0,6500.0,19439.0,Direct,,,View report (https://accesshub.pdc.wa.gov/node/47326),Financial institutions and insurance,INSURANCE,FIN INST INS
40004,47247-27887,47247,FE,18034,The Nichols Group Government Relations LLC,Employer,27887,Toy Association (GRANT NELSON),18-Sep,10/15/2018,16988.0,Toy Association,2500.0,0.0,2500.0,0.0,0.0,0.0,0.0,0.0,0.0,0.0,2500.0,27887.0,Subcontract,17840.0,GRANT NELSON,View report (https://accesshub.pdc.wa.gov/node/47247),,,
40005,47585-28368,47585,FE,27377,Ludeman Public Affairs,Employer,28368,Uber Technologies Inc and Affiliates (GANO & ASSOC*),18-Sep,10/15/2018,17001.0,Uber Technologies Inc and Affiliates,500.0,0.0,500.0,0.0,0.0,0.0,0.0,0.0,0.0,0.0,500.0,28368.0,Subcontract,17565.0,GANO & ASSOC*,View report (https://accesshub.pdc.wa.gov/node/47585),,,
40006,47326-19440,47326,FE,17879,THOMAS M PARKER,Employer,19440,UNION PACIFIC RAILROAD CO,18-Sep,10/15/2018,17004.0,UNION PACIFIC RAILROAD CO,4666.0,0.0,4666.0,0.0,305.0,0.0,0.0,0.0,0.0,305.0,4971.0,19440.0,Direct,,,View report (https://accesshub.pdc.wa.gov/node/47326),Transportation,TRANSPORTATION,TRANS FISCAL ENV
40008,47538-47037,47538,FE,17666,ALEX HUR,Employer,47037,UNITED SCHOOLS INSURANCE PROGRAM,18-Sep,10/15/2018,17014.0,UNITED SCHOOLS INSURANCE PROGRAM,630.0,0.0,630.0,0.0,0.0,0.0,0.0,0.0,0.0,0.0,630.0,47037.0,Direct,,,View report (https://accesshub.pdc.wa.gov/node/47538),Financial institutions and insurance,Insurance/Risk,"FIHI, K-12, BFS"
40009,47247-19776,47247,FE,18034,The Nichols Group Government Relations LLC,Employer,19776,ARROW LAUNCH SERVICES INC,18-Sep,10/15/2018,17034.0,ARROW LAUNCH SERVICES INC,1000.0,0.0,1000.0,0.0,0.0,0.0,0.0,0.0,0.0,0.0,1000.0,19776.0,Direct,,,View report (https://accesshub.pdc.wa.gov/node/47247),Transportation,Marine transportation / services,Transportation / environmental committees
40010,47507-18483,47507,FE,17460,COMMUNICO*,Employer,18483,T-MOBILE USA INC,18-Sep,10/15/2018,17038.0,T-MOBILE USA INC,7000.0,0.0,7000.0,0.0,0.0,0.0,0.0,0.0,0.0,0.0,7000.0,18483.0,Direct,,,View report (https://accesshub.pdc.wa.gov/node/47507),Energy and utilities,Telecommunications,"S - Energy, Environment & Telecom H - Technology Econ & Dev."
40011,47585-27393,47585,FE,27377,Ludeman Public Affairs,Employer,27393,WALMART INC. (GANO & ASSOC*),18-Sep,10/15/2018,17042.0,WALMART INC.,924.5,0.0,924.5,0.0,0.0,0.0,0.0,0.0,0.0,0.0,924.5,27393.0,Subcontract,17565.0,GANO & ASSOC*,View report (https://accesshub.pdc.wa.gov/node/47585),,,
40012,47629-18242,47629,FE,17384,ROBERT G BERSCHAUER,Employer,18242,WA AMBULANCE ASSN,18-Sep,10/15/2018,17045.0,WA AMBULANCE ASSN,236.0,0.0,236.0,41.0,0.0,0.0,0.0,0.0,0.0,41.0,277.0,18242.0,Direct,,,View report (https://accesshub.pdc.wa.gov/node/47629),Health Care,Medicaid Fee Schedule,Health Care Authority
40014,47558-29050,47558,FE,17830,ABBY G MOORE,Employer,29050,WA COUNCIL FOR BEHAVIORAL HEALTH,18-Sep,10/15/2018,17083.0,WA COUNCIL FOR BEHAVIORAL HEALTH,4000.0,0.0,4000.0,0.0,0.0,0.0,0.0,0.0,0.0,0.0,4000.0,29050.0,Direct,,,View report (https://accesshub.pdc.wa.gov/node/47558),Human services,Behavioral Health Funding,Senate Ways and Means
40015,47247-19778,47247,FE,18034,The Nichols Group Government Relations LLC,Employer,19778,WA CHRISTMAS TREE GROWERS,18-Sep,10/15/2018,17090.0,WA CHRISTMAS TREE GROWERS,750.0,0.0,750.0,0.0,0.0,0.0,0.0,0.0,0.0,0.0,750.0,19778.0,Direct,,,View report (https://accesshub.pdc.wa.gov/node/47247),Agriculture,"Land use, taxation","Agricultural committees, Dept of Agriculture"
40016,47539-19420,47539,FE,17875,PAM CRONE LEGISLATIVE CONSULTING SVCS*,Employer,19420,WA EMPLOYMENT LAWYERS ASSN,18-Sep,10/15/2018,17105.0,WA EMPLOYMENT LAWYERS ASSN,500.0,-500.0,0.0,0.0,0.0,0.0,0.0,0.0,0.0,0.0,0.0,19420.0,Direct,,,View report (https://accesshub.pdc.wa.gov/node/47539),Labor,employee rights,Senate and House Labor committees
40017,47654-18784,47654,FE,17567,JANICE L GEE,Employer,18784,WA FOOD INDUSTRY,18-Sep,10/15/2018,17117.0,WA FOOD INDUSTRY,2750.0,0.0,2750.0,0.0,0.0,0.0,0.0,0.0,0.0,0.0,2750.0,18784.0,Direct,,,View report (https://accesshub.pdc.wa.gov/node/47654),Business and consumer affairs,Bona Fide Discounts,Joe Fain
40018,47650-40646,47650,FE,40645,Catherine Holm,Employer,40646,WA FOOD INDUSTRY,18-Sep,10/15/2018,17117.0,WA FOOD INDUSTRY,1200.0,0.0,1200.0,273.83,0.0,0.0,0.0,0.0,0.0,273.83,1473.83,40646.0,Direct,,,View report (https://accesshub.pdc.wa.gov/node/47650),Labor,EAP,L&I
40019,47624-18580,47624,FE,17499,MARK L DOUMIT,Employer,18580,WA FOREST PROTECTION ASSN,18-Sep,10/15/2018,17120.0,WA FOREST PROTECTION ASSN,300.0,0.0,300.0,0.0,0.0,0.0,0.0,0.0,0.0,0.0,300.0,18580.0,Direct,,,View report (https://accesshub.pdc.wa.gov/node/47624),Environmental Affairs - natural resources - parks,WFPA,Various
40020,47623-24909,47623,FE,24907,Jason Callahan,Employer,24909,WA FOREST PROTECTION ASSN,18-Sep,10/15/2018,17120.0,WA FOREST PROTECTION ASSN,600.0,0.0,600.0,229.7,0.0,0.0,0.0,0.0,0.0,229.7,829.7,24909.0,Direct,,,View report (https://accesshub.pdc.wa.gov/node/47623),Environmental Affairs - natural resources - parks,WFPA,Various
40022,47247-19779,47247,FE,18034,The Nichols Group Government Relations LLC,Employer,19779,COMMUNITY BANKERS OF WA,18-Sep,10/15/2018,17132.0,COMMUNITY BANKERS OF WA,3000.0,0.0,3000.0,0.0,0.0,0.0,0.0,0.0,0.0,0.0,3000.0,19779.0,Direct,,,View report (https://accesshub.pdc.wa.gov/node/47247),Financial institutions and insurance,Banking Issues,Senate Financial Institutions & Insurance Committee; House Business & Financial Services Committee
40024,47575-18154,47575,FE,17339,Amber D Lewis Consulting LLC,Employer,18154,WA ASSN FOR MARRIAGE & FAMILY THERAPY,18-Sep,10/15/2018,17150.0,WA ASSN FOR MARRIAGE & FAMILY THERAPY,1000.0,0.0,1000.0,0.0,0.0,0.0,0.0,0.0,0.0,0.0,1000.0,18154.0,Direct,,,View report (https://accesshub.pdc.wa.gov/node/47575),Health Care,health care,"health care committees, DoH, OIC"
40025,47247-46264,47247,FE,18034,The Nichols Group Government Relations LLC,Employer,46264,WA ASSN OF NATUROPATHIC PHYSICIANS,18-Sep,10/15/2018,17154.0,WA ASSN OF NATUROPATHIC PHYSICIANS,3500.0,0.0,3500.0,0.0,0.0,0.0,0.0,0.0,0.0,0.0,3500.0,46264.0,Direct,,,View report (https://accesshub.pdc.wa.gov/node/47247),Health Care,WANP Scope of Practice Issues,House Health Care & Wellness Committee; Senate Health & Long Term Care Committee
40026,47610-41229,47610,FE,17892,Laura Pierce,Employer,41229,Nonprofit Association of Washington,18-Sep,10/15/2018,17155.0,Nonprofit Association of Washington,250.0,0.0,250.0,30.0,0.0,0.0,0.0,0.0,0.0,30.0,280.0,41229.0,Direct,,,View report (https://accesshub.pdc.wa.gov/node/47610),Labor,Overtime Pay regulations,"Rep Dye, Rep Macri, Rep Jinkins, Sen Darnielle, Sen Billig"
40028,47539-19421,47539,FE,17875,PAM CRONE LEGISLATIVE CONSULTING SVCS*,Employer,19421,DISABILITY RIGHTS WA,18-Sep,10/15/2018,17163.0,DISABILITY RIGHTS WA,2000.0,0.0,2000.0,0.0,0.0,0.0,0.0,0.0,0.0,0.0,2000.0,19421.0,Direct,,,View report (https://accesshub.pdc.wa.gov/node/47539),,,
40029,47625-19562,47625,FE,17928,JAMES G ROWLAND,Employer,19562,ENERGY NORTHWEST,18-Sep,10/15/2018,17173.0,ENERGY NORTHWEST,7450.0,0.0,7450.0,0.0,0.0,0.0,0.0,0.0,0.0,0.0,7450.0,19562.0,Direct,,,View report (https://accesshub.pdc.wa.gov/node/47625),Energy and utilities,carbon pricing,tec eet
40030,47666-19038,47666,FE,17677,ERIC D JOHNSON,Employer,19038,Washington Public Ports Association,18-Sep,10/15/2018,17174.0,Washington Public Ports Association,1583.33,0.0,1583.33,0.0,0.0,0.0,0.0,0.0,0.0,0.0,1583.33,19038.0,Direct,,,View report (https://accesshub.pdc.wa.gov/node/47666),Local government,Port Governance,Governmental Operations
40031,47667-19379,47667,FE,17859,GERALD J O'KEEFE,Employer,19379,Washington Public Ports Association,18-Sep,10/15/2018,17174.0,Washington Public Ports Association,1026.56,0.0,1026.56,0.0,0.0,0.0,0.0,0.0,0.0,0.0,1026.56,19379.0,Direct,,,View report (https://accesshub.pdc.wa.gov/node/47667),Local government,Port Governance,Governmental Operations
40032,47665-27537,47665,FE,27536,Christopher Herman,Employer,27537,Washington Public Ports Association,18-Sep,10/15/2018,17174.0,Washington Public Ports Association,896.88,0.0,896.88,0.0,0.0,0.0,0.0,0.0,0.0,0.0,896.88,27537.0,Direct,,,View report (https://accesshub.pdc.wa.gov/node/47665),Local government,Port Governance,Governmental Operations
40034,47540-19398,47540,FE,17870,OUTCOMES BY LEVY LLC*,Employer,19398,WA RECREATION & PARKS ASSN,18-Sep,10/15/2018,17183.0,WA RECREATION & PARKS ASSN,1100.0,0.0,1100.0,390.46,0.0,0.0,0.0,0.0,0.0,390.46,1490.46,19398.0,Direct,,,View report (https://accesshub.pdc.wa.gov/node/47540),,,
40035,47611-19253,47611,FE,17796,JAMES MCMAHAN,Employer,19253,WA ASSN OF SHERIFFS & POLICE CHIEFS,18-Sep,10/15/2018,17196.0,WA ASSN OF SHERIFFS & POLICE CHIEFS,451.02,0.0,451.02,0.0,0.0,0.0,0.0,0.0,0.0,0.0,451.02,19253.0,Direct,,,View report (https://accesshub.pdc.wa.gov/node/47611),Law and justice,"I-940, HB3003",State Legislature
40036,47555-45168,47555,FE,45167,Paul Jewell,Employer,45168,WA STATE ASSN OF COUNTIES (WSAC),18-Sep,10/15/2018,17215.0,WA STATE ASSN OF COUNTIES (WSAC),432.72,0.0,432.72,0.0,0.0,0.0,0.0,0.0,0.0,0.0,432.72,45168.0,Direct,,,View report (https://accesshub.pdc.wa.gov/node/47555),Environmental Affairs - natural resources - parks,Various,Various
40037,47627-18949,47627,FE,17621,NEIL T HARTMAN,Employer,18949,WA ST BUILDING & CONSTRUCTION TRADES COUNCIL,18-Sep,10/15/2018,17223.0,WA ST BUILDING & CONSTRUCTION TRADES COUNCIL,6426.0,0.0,6426.0,0.0,0.0,0.0,0.0,0.0,0.0,0.0,6426.0,18949.0,Direct,,,View report (https://accesshub.pdc.wa.gov/node/47627),Labor,"Public Safety, Prevailing Wage, Worker Comp, UI, Safety and Health, Transportation, Capital Budget, Apprenticeship, Supplemental Budget","Labor & Industries, Employment Security, Department of Transportation, Senate Labor and Commerce, House Labor and Workforce Development, Senate and House Transportation, House Appropriations, Senate Ways and Means, Senate and House Capital Budget"
40038,47621-39997,47621,FE,39996,Mark Riker,Employer,39997,WA ST BUILDING & CONSTRUCTION TRADES COUNCIL,18-Oct,10/15/2018,17223.0,WA ST BUILDING & CONSTRUCTION TRADES COUNCIL,9000.0,0.0,9000.0,0.0,0.0,0.0,0.0,0.0,0.0,0.0,9000.0,39997.0,Direct,,,View report (https://accesshub.pdc.wa.gov/node/47621),Labor,"Public Safety, Prevailing Wage, Worker Comp, UI, Safety and Health, Transportation Capital Budget, Apprenticeship, Supplemental Budget","Labor & Industries, Employment Security, Department of Transportation, House Appropriations, Senate Labor and Commerce, House Labor and Workforce Development, Senate and House Transportation, Senate Ways and Means, Senate and House Capital Budget"
40039,47539-19422,47539,FE,17875,PAM CRONE LEGISLATIVE CONSULTING SVCS*,Employer,19422,WA ST COALITION  AGAINST DOMESTIC VIOLENCE,18-Sep,10/15/2018,17227.0,WA ST COALITION  AGAINST DOMESTIC VIOLENCE,2094.27,0.0,2094.27,0.0,0.0,0.0,0.0,0.0,0.0,0.0,2094.27,19422.0,Direct,,,View report (https://accesshub.pdc.wa.gov/node/47539),,,
40041,47580-19880,47580,FE,18083,CHELENE WHITEAKER,Employer,19880,WA ST HOSPITAL ASSN,18-Sep,10/15/2018,17252.0,WA ST HOSPITAL ASSN,250.0,0.0,250.0,178.74,0.0,0.0,0.0,0.0,0.0,178.74,428.74,19880.0,Direct,,,View report (https://accesshub.pdc.wa.gov/node/47580),Higher education,Helath care,HCA and state leadership
40044,47507-18484,47507,FE,17460,COMMUNICO*,Employer,18484,Washington State Veterinary Medical Association,18-Sep,10/15/2018,17291.0,Washington State Veterinary Medical Association,5000.0,0.0,5000.0,196.64,0.0,0.0,0.0,0.0,0.0,196.64,5196.64,18484.0,Direct,,,View report (https://accesshub.pdc.wa.gov/node/47507),Health Care,"Health Care, Taxes and Animal Cruelty","S - Agriculture& Natural Resources, H - Agriculture, Water, Trade & Econ. Dev,S - Law & Justice, H - Judiciary, S - Health Care and H - Health Care & Wellness"
40045,47585-27394,47585,FE,27377,Ludeman Public Affairs,Employer,27394,WELLS FARGO & CO (GANO & ASSOC*),18-Sep,10/15/2018,17296.0,WELLS FARGO & CO,429.23,0.0,429.23,0.0,0.0,0.0,0.0,0.0,0.0,0.0,429.23,27394.0,Subcontract,17565.0,GANO & ASSOC*,View report (https://accesshub.pdc.wa.gov/node/47585),,,
40046,47507-18485,47507,FE,17460,COMMUNICO*,Employer,18485,Western States Petroleum Assn.,18-Sep,10/15/2018,17302.0,Western States Petroleum Assn.,33333.33,0.0,33333.33,2482.3,0.0,985.57,0.0,0.0,0.0,3467.87,36801.2,18485.0,Direct,,,View report (https://accesshub.pdc.wa.gov/node/47507),Energy and utilities,"Petroleumn Issues, Transportation, Marine Safety and Taxes","H - Environment and S - Energy, Environment & Telecommunications"
40047,47326-19442,47326,FE,17879,THOMAS M PARKER,Employer,19442,WHATCOM CO COUNCIL OF GOVERNMENTS,18-Sep,10/15/2018,17308.0,WHATCOM CO COUNCIL OF GOVERNMENTS,3590.0,0.0,3590.0,0.0,0.0,0.0,0.0,0.0,0.0,0.0,3590.0,19442.0,Direct,,,View report (https://accesshub.pdc.wa.gov/node/47326),Transportation,TRANSPORTATION,TRANSPORTATION FISCAL
40048,47507-18486,47507,FE,17460,COMMUNICO*,Employer,18486,The Williams Companies,18-Sep,10/15/2018,17311.0,The Williams Companies,2500.0,0.0,2500.0,0.0,0.0,4500.0,0.0,0.0,0.0,4500.0,7000.0,18486.0,Direct,,,View report (https://accesshub.pdc.wa.gov/node/47507),Environmental Affairs - natural resources - parks,Pipeline,"H - Environment and S - Energy, Environment & Telecommunications"
40051,47598-25311,47598,FE,25302,Northwest Solutions,Employer,25311,Public Works  Board,18-Sep,10/15/2018,25309.0,Public Works  Board,4000.0,0.0,4000.0,0.0,0.0,0.0,0.0,0.0,0.0,0.0,4000.0,25311.0,Direct,,,View report (https://accesshub.pdc.wa.gov/node/47598),,,
40052,47585-36623,47585,FE,27377,Ludeman Public Affairs,Employer,36623,Advantage Capital (GANO & ASSOC*),18-Sep,10/15/2018,26331.0,Advantage Capital,3000.0,0.0,3000.0,0.0,0.0,0.0,0.0,0.0,0.0,0.0,3000.0,36623.0,Subcontract,17565.0,GANO & ASSOC*,View report (https://accesshub.pdc.wa.gov/node/47585),,,
40053,47584-27361,47584,FE,17526,Arbutus Consulting LLC,Employer,27361,City of Ferndale,18-Aug,10/15/2018,27359.0,City of Ferndale,1667.0,0.0,1667.0,0.0,0.0,0.0,0.0,0.0,0.0,0.0,1667.0,27361.0,Direct,,,View report (https://accesshub.pdc.wa.gov/node/47584),Local government,Local Government,Policy and Fiscal Committees
40054,47586-27361,47586,FE,17526,Arbutus Consulting LLC,Employer,27361,City of Ferndale,18-Sep,10/15/2018,27359.0,City of Ferndale,1667.0,0.0,1667.0,0.0,0.0,0.0,0.0,0.0,0.0,0.0,1667.0,27361.0,Direct,,,View report (https://accesshub.pdc.wa.gov/node/47586),Local government,Local Government,Policy and Fiscal Committees
40055,47558-29099,47558,FE,17830,ABBY G MOORE,Employer,29099,Association for Accessible Medicines,18-Sep,10/15/2018,29098.0,Association for Accessible Medicines,4250.0,0.0,4250.0,0.0,0.0,0.0,0.0,0.0,0.0,0.0,4250.0,29099.0,Direct,,,View report (https://accesshub.pdc.wa.gov/node/47558),Health Care,generic pharmaceuticals,Health care committees
40056,47585-29449,47585,FE,27377,Ludeman Public Affairs,Employer,29449,1-800 CONTACTS (Bill Clarke),18-Sep,10/15/2018,29415.0,1-800 CONTACTS,2500.0,0.0,2500.0,0.0,0.0,0.0,0.0,0.0,0.0,0.0,2500.0,29449.0,Subcontract,17453.0,Bill Clarke,View report (https://accesshub.pdc.wa.gov/node/47585),,,
40058,47082-31222,47082,FE,31111,ERIK ASHLIE-VINKE,Employer,31222,Economic Alliance Snohomish County,18-Sep,10/15/2018,31220.0,Economic Alliance Snohomish County,500.0,0.0,500.0,32.34,0.0,0.0,0.0,0.0,0.0,32.34,532.34,31222.0,Direct,,,View report (https://accesshub.pdc.wa.gov/node/47082),Fiscal,"Economic development,STEM, EASC regional priorities",Snohomish County Legislators
40061,47247-38818,47247,FE,18034,The Nichols Group Government Relations LLC,Employer,38818,National Association of Professional Employer Organizations,18-Sep,10/15/2018,38798.0,National Association of Professional Employer Organizations,2000.0,0.0,2000.0,0.0,0.0,0.0,0.0,0.0,0.0,0.0,2000.0,38818.0,Direct,,,View report (https://accesshub.pdc.wa.gov/node/47247),Fiscal,"SB 5765, SB 5821","Senate Ways & Means, House Finance"
40063,47247-38900,47247,FE,18034,The Nichols Group Government Relations LLC,Employer,38900,Cooke Aquaculture Pacific LLC,18-Sep,10/15/2018,38899.0,Cooke Aquaculture Pacific LLC,10000.0,0.0,10000.0,0.0,0.0,0.0,0.0,0.0,0.0,0.0,10000.0,38900.0,Direct,,,View report (https://accesshub.pdc.wa.gov/node/47247),Agriculture,Net-pen aquaculture issues,Senate & House Agriculture Committees
40064,47247-39130,47247,FE,18034,The Nichols Group Government Relations LLC,Employer,39130,City of Shelton,18-Sep,10/15/2018,39118.0,City of Shelton,2000.0,0.0,2000.0,0.0,0.0,0.0,0.0,0.0,0.0,0.0,2000.0,39130.0,Direct,,,View report (https://accesshub.pdc.wa.gov/node/47247),Fiscal,Transportation and Capital Budget Requests,"Senate Ways & Means, Senate Transportation, House Capital Budget, House Transportation"
40065,47658-39803,47658,FE,18100,KYLE WOODRING,Employer,39803,Affordable Communities Coalition,18-Sep,10/15/2018,39315.0,Affordable Communities Coalition,500.0,0.0,500.0,0.0,0.0,0.0,0.0,0.0,0.0,0.0,500.0,39803.0,Direct,,,View report (https://accesshub.pdc.wa.gov/node/47658),Business and consumer affairs,Manufactured Housing/Mobile Home Parks,Senate Ways & Means
40067,47558-42257,47558,FE,17830,ABBY G MOORE,Employer,42257,Wireless Infrastructure Association (thru MultiState Associates LLC),18-Sep,10/15/2018,41737.0,Wireless Infrastructure Association (thru MultiState Associates LLC),2500.0,0.0,2500.0,0.0,0.0,0.0,0.0,0.0,0.0,0.0,2500.0,42257.0,Direct,,,View report (https://accesshub.pdc.wa.gov/node/47558),Technology,Broadband/5G,Governor's Office
40069,47247-45630,47247,FE,18034,The Nichols Group Government Relations LLC,Employer,45630,Capital Region ESD 113,18-Sep,10/15/2018,45627.0,Capital Region ESD 113,3300.0,0.0,3300.0,0.0,0.0,0.0,0.0,0.0,0.0,0.0,3300.0,45630.0,Direct,,,View report (https://accesshub.pdc.wa.gov/node/47247),Education,Education Funding and Policy Issues,"House and Senate Education Committees, House Appropriations Committee, Senate Ways & Means Committee"
40070,47558-46715,47558,FE,17830,ABBY G MOORE,Employer,46715,Public Libraries of Washington,18-Sep,10/15/2018,46248.0,Public Libraries of Washington,2500.0,0.0,2500.0,0.0,0.0,0.0,0.0,0.0,0.0,0.0,2500.0,46715.0,Direct,,,View report (https://accesshub.pdc.wa.gov/node/47558),State government,Capital budget,House Capital budget committee
40074,47527-18371,47527,FE,17433,CARNEY BADLEY SPELLMAN*,Employer,18371,ALLSTATE INSURANCE CO,18-Sep,10/16/2018,16085.0,ALLSTATE INSURANCE CO,4500.0,0.0,4500.0,0.0,0.0,16500.0,0.0,0.0,0.0,16500.0,21000.0,18371.0,Direct,,,View report (https://accesshub.pdc.wa.gov/node/47527),Business and consumer affairs,"Insurance, Taxation, Tort Issues Insurance, Taxation, Tort Issues",Senate FII Cmte; House BFS Cmte; Senate L&J Cmte; House Jud Cmte; Senate W/M Cmte; House Approp. Cmte; Ins. Comm
40075,46771-24862,46771,FE,18045,Amber Ulvenes,Employer,24862,ALZHEIMERS ASSN WA ST CHAPTER,18-Aug,10/16/2018,16086.0,ALZHEIMERS ASSN WA ST CHAPTER,1000.0,0.0,1000.0,0.0,0.0,0.0,0.0,0.0,0.0,0.0,1000.0,24862.0,Direct,,,View report (https://accesshub.pdc.wa.gov/node/46771),Health Care,FTE funding to support DAC,"Health Care & Appropriations Committees, Jt Selected Comm on Aging & Disability"
40076,47684-24862,47684,FE,18045,Amber Ulvenes,Employer,24862,ALZHEIMERS ASSN WA ST CHAPTER,18-Sep,10/16/2018,16086.0,ALZHEIMERS ASSN WA ST CHAPTER,1000.0,0.0,1000.0,0.0,0.0,0.0,0.0,0.0,0.0,0.0,1000.0,24862.0,Direct,,,View report (https://accesshub.pdc.wa.gov/node/47684),Health Care,FTE funding to support DAC,"Health Care & Appropriations Committees, Jt Selected Comm on Aging & Disability"
40077,46771-35034,46771,FE,18045,Amber Ulvenes,Employer,35034,AMERICAN ACADEMY OF PEDIATRICS-WA CHAPTER,18-Aug,10/16/2018,16090.0,AMERICAN ACADEMY OF PEDIATRICS-WA CHAPTER,2916.67,0.0,2916.67,194.48,0.0,0.0,0.0,0.0,0.0,194.48,3111.15,35034.0,Direct,,,View report (https://accesshub.pdc.wa.gov/node/46771),Health Care,"Medicaid reimbursement, children's mental health","HCA, Health Care Committees, appropriation committees"
40078,47684-35034,47684,FE,18045,Amber Ulvenes,Employer,35034,AMERICAN ACADEMY OF PEDIATRICS-WA CHAPTER,18-Sep,10/16/2018,16090.0,AMERICAN ACADEMY OF PEDIATRICS-WA CHAPTER,2916.67,0.0,2916.67,261.6,0.0,0.0,0.0,0.0,0.0,261.6,3178.27,35034.0,Direct,,,View report (https://accesshub.pdc.wa.gov/node/47684),Health Care,"Medicaid reimbursement, children's mental health","HCA, Health Care Committees, appropriation committees"
40080,47527-18372,47527,FE,17433,CARNEY BADLEY SPELLMAN*,Employer,18372,AMERICAN COUNCIL OF LIFE INSURERS,18-Sep,10/16/2018,16098.0,AMERICAN COUNCIL OF LIFE INSURERS,4000.0,0.0,4000.0,0.0,0.0,0.0,0.0,0.0,0.0,0.0,4000.0,18372.0,Direct,,,View report (https://accesshub.pdc.wa.gov/node/47527),,,
40081,47527-18373,47527,FE,17433,CARNEY BADLEY SPELLMAN*,Employer,18373,AMERICAN FAMILY MUTUAL INSURANCE,18-Sep,10/16/2018,16103.0,AMERICAN FAMILY MUTUAL INSURANCE,3958.33,0.0,3958.33,0.0,0.0,0.0,0.0,0.0,0.0,0.0,3958.33,18373.0,Direct,,,View report (https://accesshub.pdc.wa.gov/node/47527),Business and consumer affairs,"Insurance, Taxation, Tort Issues",Senate FII Cmte; House BFS Cmte; Senate L&J Cmte; House Jud Cmte; Senate W/M Cmte; House Approp. Cmte; Ins. Comm
40082,47527-18375,47527,FE,17433,CARNEY BADLEY SPELLMAN*,Employer,18375,AMERICAS HEALTH INSURANCE PLANS,18-Sep,10/16/2018,16110.0,AMERICAS HEALTH INSURANCE PLANS,5610.41,0.0,5610.41,0.0,0.0,0.0,0.0,0.0,0.0,0.0,5610.41,18375.0,Direct,,,View report (https://accesshub.pdc.wa.gov/node/47527),Business and consumer affairs,"Health Insurance, Long Term Care Insurance",Senate HC Cmte; House HC&W Cmte; Ins. Comm.
40083,47527-18376,47527,FE,17433,CARNEY BADLEY SPELLMAN*,Employer,18376,AMERICAN INSURANCE ASSN,18-Sep,10/16/2018,16111.0,AMERICAN INSURANCE ASSN,4583.34,0.0,4583.34,0.0,0.0,0.0,0.0,0.0,0.0,0.0,4583.34,18376.0,Direct,,,View report (https://accesshub.pdc.wa.gov/node/47527),Business and consumer affairs,"Construction, Consumer Affairs, Taxation, Liability, Health Care, Data Issues, Insurance, Financial Services, Transportation, Environmental Regulation","Senate Commerce, Labor & Sports; Senate Energy, Environment & Telecommunications; Senate Financial Institutions & Insurance; Senate Health Care; Senate Human Services"
40084,47527-18378,47527,FE,17433,CARNEY BADLEY SPELLMAN*,Employer,18378,Architects and Engineers Legislative Council,18-Sep,10/16/2018,16138.0,Architects and Engineers Legislative Council,6963.34,0.0,6963.34,0.0,0.0,0.0,0.0,0.0,0.0,0.0,6963.34,18378.0,Direct,,,View report (https://accesshub.pdc.wa.gov/node/47527),Business and consumer affairs,"Construction, Consumer Affairs, Taxation, Liability, Health Care, Data Issues, Insurance, Financial Services, Transportation, Environmental Regulation","Senate Commerce, Labor & Sports; Senate Energy, Environment & Telecommunications; Senate Financial Institutions & Insurance; Senate Health Care; Senate Human Services"
40085,47527-18379,47527,FE,17433,CARNEY BADLEY SPELLMAN*,Employer,18379,ASSOCIATED BUILDERS & CONTRACTORS (WESTERN WA CHAPTER),18-Sep,10/16/2018,16148.0,ASSOCIATED BUILDERS & CONTRACTORS (WESTERN WA CHAPTER),3333.34,0.0,3333.34,0.0,0.0,0.0,0.0,0.0,0.0,0.0,3333.34,18379.0,Direct,,,View report (https://accesshub.pdc.wa.gov/node/47527),Business and consumer affairs,"Construction, Consumer Affairs, Taxation, Liability, Health Care, Data Issues, Insurance, Financial Services, Transportation, Environmental Regulation, Economic Development","Senate Commerce, Labor & Sports; Senate Energy, Environment & Telecommunications; Senate Financial Institutions & Insurance; Senate Health Care; Senate Human Services"
40086,47527-18380,47527,FE,17433,CARNEY BADLEY SPELLMAN*,Employer,18380,ABC Inland Pacific,18-Sep,10/16/2018,16150.0,ABC Inland Pacific,937.5,0.0,937.5,0.0,0.0,0.0,0.0,0.0,0.0,0.0,937.5,18380.0,Direct,,,View report (https://accesshub.pdc.wa.gov/node/47527),Business and consumer affairs,"Construction, Consumer Affairs, Taxation, Liability, Health Care, Data Issues, Insurance, Financial Services, Transportation, Environmental Regulation, Economic Development","Senate Commerce, Labor & Sports; Senate Energy, Environment & Telecommunications; Senate Financial Institutions & Insurance; Senate Health Care; Senate Human Services"
40087,47527-18381,47527,FE,17433,CARNEY BADLEY SPELLMAN*,Employer,18381,CONSUMER DATA INDUSTRY ASSN,18-Sep,10/16/2018,16151.0,CONSUMER DATA INDUSTRY ASSN,3713.0,0.0,3713.0,0.0,0.0,0.0,0.0,0.0,0.0,0.0,3713.0,18381.0,Direct,,,View report (https://accesshub.pdc.wa.gov/node/47527),Business and consumer affairs,"Construction, Consumer Affairs, Taxation, Liability, Health Care, Data Issues, Insurance, Financial Services, Transportation, Environmental Regulation, Economic Development","Senate Commerce, Labor & Sports; Senate Energy, Environment & Telecommunications; Senate Financial Institutions & Insurance; Senate Health Care; Senate Human Services"
40088,47527-18382,47527,FE,17433,CARNEY BADLEY SPELLMAN*,Employer,18382,ASSN OF DENTAL SUPPORT ORGANIZATIONS,18-Sep,10/16/2018,16153.0,ASSN OF DENTAL SUPPORT ORGANIZATIONS,5000.0,0.0,5000.0,0.0,0.0,0.0,0.0,0.0,0.0,0.0,5000.0,18382.0,Direct,,,View report (https://accesshub.pdc.wa.gov/node/47527),Business and consumer affairs,"Construction, Consumer Affairs, Taxation, Liability, Health Care, Data Issues, Insurance, Financial Services, Transportation, Environmental Regulation","Senate Commerce, Labor & Sports; Senate Energy, Environment & Telecommunications; Senate Financial Institutions & Insurance; Senate Health Care; Senate Human Services"
40090,47527-18383,47527,FE,17433,CARNEY BADLEY SPELLMAN*,Employer,18383,Chevron U.S.A. Inc. and Affiliates,18-Sep,10/16/2018,16255.0,Chevron U.S.A. Inc. and Affiliates,4583.34,0.0,4583.34,0.0,0.0,0.0,0.0,0.0,0.0,0.0,4583.34,18383.0,Direct,,,View report (https://accesshub.pdc.wa.gov/node/47527),Business and consumer affairs,"Construction, Consumer Affairs, Taxation, Liability, Health Care, Data Issues, Insurance, Financial Services, Transportation, Environmental Regulation, Economic Development","Senate Commerce, Labor & Sports; Senate Energy, Environment & Telecommunications; Senate Financial Institutions & Insurance; Senate Health Care; Senate Human Services"
40091,47527-18384,47527,FE,17433,CARNEY BADLEY SPELLMAN*,Employer,18384,CIGNA CORPORATE SERVICES,18-Sep,10/16/2018,16263.0,CIGNA CORPORATE SERVICES,2500.0,0.0,2500.0,0.0,0.0,0.0,0.0,0.0,0.0,0.0,2500.0,18384.0,Direct,,,View report (https://accesshub.pdc.wa.gov/node/47527),Business and consumer affairs,Health Insurance,Senate HC Cmte; House HC&W Cmte; Ins. Comm.
40092,47680-18318,47680,FE,17413,MARK O BROWN,Employer,18318,CITY OF LACEY,18-Sep,10/16/2018,16294.0,CITY OF LACEY,2500.0,0.0,2500.0,0.0,0.0,0.0,0.0,0.0,0.0,0.0,2500.0,18318.0,Direct,,,View report (https://accesshub.pdc.wa.gov/node/47680),Fiscal,Fiscal,Local Government
40093,47288-26311,47288,FE,17528,LUKE ESSER,Employer,26311,CITY OF SPOKANE,18-Sep,10/16/2018,16314.0,CITY OF SPOKANE,2500.0,0.0,2500.0,0.0,0.0,0.0,0.0,0.0,0.0,0.0,2500.0,26311.0,Direct,,,View report (https://accesshub.pdc.wa.gov/node/47288),Environmental Affairs - natural resources - parks,Parks,Sen. Ways & Means; House Capital Budget
40094,47680-18321,47680,FE,17413,MARK O BROWN,Employer,18321,City of Vancouver,18-Sep,10/16/2018,16319.0,City of Vancouver,8500.0,0.0,8500.0,0.0,0.0,0.0,0.0,0.0,0.0,0.0,8500.0,18321.0,Direct,,,View report (https://accesshub.pdc.wa.gov/node/47680),Fiscal,Fiscal,Local Government
40095,47288-46997,47288,FE,17528,LUKE ESSER,Employer,46997,CITY OF YAKIMA,18-Sep,10/16/2018,16321.0,CITY OF YAKIMA,2500.0,0.0,2500.0,0.0,0.0,0.0,0.0,0.0,0.0,0.0,2500.0,46997.0,Direct,,,View report (https://accesshub.pdc.wa.gov/node/47288),Environmental Affairs - natural resources - parks,Parks,"Sen. Ways & Means, House Capital Budget"
40096,47669-18922,47669,FE,17607,VLADIMIR GUTMAN-BRITTEN,Employer,18922,CLIMATE SOLUTIONS,18-Sep,10/16/2018,16327.0,CLIMATE SOLUTIONS,1750.0,0.0,1750.0,286.37,20.0,0.0,0.0,0.0,0.0,306.37,2056.37,18922.0,Direct,,,View report (https://accesshub.pdc.wa.gov/node/47669),Energy and utilities,Electricity resources,"House TED, Senate EET, other legislators"
40097,47671-18922,47671,FE,17607,VLADIMIR GUTMAN-BRITTEN,Employer,18922,CLIMATE SOLUTIONS,18-Aug,10/16/2018,16327.0,CLIMATE SOLUTIONS,1500.0,0.0,1500.0,135.78,0.0,0.0,0.0,0.0,0.0,135.78,1635.78,18922.0,Direct,,,View report (https://accesshub.pdc.wa.gov/node/47671),Transportation,"Electrification, Fuels","House Enviro, Senate EET, House Transpo, Senate Transpo"
40098,47673-18922,47673,FE,17607,VLADIMIR GUTMAN-BRITTEN,Employer,18922,CLIMATE SOLUTIONS,18-Jul,10/16/2018,16327.0,CLIMATE SOLUTIONS,350.0,0.0,350.0,14.11,0.0,0.0,0.0,0.0,0.0,14.11,364.11,18922.0,Direct,,,View report (https://accesshub.pdc.wa.gov/node/47673),Energy and utilities,Electricity resources,Senate Ways
40100,47675-18922,47675,FE,17607,VLADIMIR GUTMAN-BRITTEN,Employer,18922,CLIMATE SOLUTIONS,18-May,10/16/2018,16327.0,CLIMATE SOLUTIONS,2100.0,0.0,2100.0,740.17,0.0,0.0,0.0,0.0,0.0,740.17,2840.17,18922.0,Direct,,,View report (https://accesshub.pdc.wa.gov/node/47675),Energy and utilities,Electricity resources,"Senate EET, House TED"
40101,47676-18922,47676,FE,17607,VLADIMIR GUTMAN-BRITTEN,Employer,18922,CLIMATE SOLUTIONS,18-Apr,10/16/2018,16327.0,CLIMATE SOLUTIONS,2700.0,0.0,2700.0,883.61,0.0,0.0,0.0,0.0,0.0,883.61,3583.61,18922.0,Direct,,,View report (https://accesshub.pdc.wa.gov/node/47676),Energy and utilities,Electricity resources,"House TED, House Enviro, House Finance, House Rules"
40102,47677-18922,47677,FE,17607,VLADIMIR GUTMAN-BRITTEN,Employer,18922,CLIMATE SOLUTIONS,18-Mar,10/16/2018,16327.0,CLIMATE SOLUTIONS,2800.0,0.0,2800.0,553.14,0.0,0.0,0.0,0.0,0.0,553.14,3353.14,18922.0,Direct,,,View report (https://accesshub.pdc.wa.gov/node/47677),Energy and utilities,"HB2995, Electricity resources and regulation","House TED, House Enviro, House Finance, House Rules"
40103,37030-19271,37030,FE,17808,NATE MILES,Employer,19271,ELI LILLY & COMPANY,18-Sep,10/16/2018,16410.0,ELI LILLY & COMPANY,1500.0,0.0,1500.0,1063.75,0.0,0.0,0.0,0.0,0.0,1063.75,2563.75,19271.0,Direct,,,View report (https://accesshub.pdc.wa.gov/node/37030),,,
40104,47527-18386,47527,FE,17433,CARNEY BADLEY SPELLMAN*,Employer,18386,EXPRESS SCRIPTS HOLDING CO,18-Sep,10/16/2018,16429.0,EXPRESS SCRIPTS HOLDING CO,9000.0,0.0,9000.0,0.0,0.0,0.0,0.0,0.0,0.0,0.0,9000.0,18386.0,Direct,,,View report (https://accesshub.pdc.wa.gov/node/47527),Business and consumer affairs,"Pharmacy, Prescription Drugs",Senate HC Cmte; Senate W&M Cmte; House HC&W Cmte; Ins. Comm.
40105,47696-19089,47696,FE,17710,TERRY KOHL,Employer,19089,FAMILY WINERIES OF WA ST,18-Sep,10/16/2018,16434.0,FAMILY WINERIES OF WA ST,208.33,0.0,208.33,27.34,0.0,0.0,0.0,0.0,0.0,27.34,235.67,19089.0,Direct,,,View report (https://accesshub.pdc.wa.gov/node/47696),Business and consumer affairs,Washington Wineries,HS Senate Commerce Law
40106,47707-18662,47707,FE,17522,ENGAGE STRATEGIES SPC*,Employer,18662,ISLANDWOOD,18-Sep,10/16/2018,16549.0,ISLANDWOOD,2500.0,0.0,2500.0,0.0,0.0,0.0,0.0,0.0,0.0,0.0,2500.0,18662.0,Direct,,,View report (https://accesshub.pdc.wa.gov/node/47707),Education,Outdoore ed and rec funding; env education funding,Sen Ways and Means; House Approps; Cap budget; OFM; RCO; OSPI
40107,46771-28555,46771,FE,18045,Amber Ulvenes,Employer,28555,Kaiser Foundation Health Plan of the Northwest,18-Aug,10/16/2018,16569.0,Kaiser Foundation Health Plan of the Northwest,1350.0,0.0,1350.0,194.48,0.0,0.0,0.0,0.0,0.0,194.48,1544.48,28555.0,Direct,,,View report (https://accesshub.pdc.wa.gov/node/46771),Health Care,Various health care issues,"Health Care Committees, HCA, OFM"
40108,47684-28555,47684,FE,18045,Amber Ulvenes,Employer,28555,Kaiser Foundation Health Plan of the Northwest,18-Sep,10/16/2018,16569.0,Kaiser Foundation Health Plan of the Northwest,1350.0,0.0,1350.0,123.17,0.0,0.0,0.0,0.0,0.0,123.17,1473.17,28555.0,Direct,,,View report (https://accesshub.pdc.wa.gov/node/47684),Health Care,Various health care issues,"Health Care Committees, HCA, OFM"
40109,47288-18675,47288,FE,17528,LUKE ESSER,Employer,18675,KALISPEL TRIBE,18-Sep,10/16/2018,16570.0,KALISPEL TRIBE,5000.0,0.0,5000.0,0.0,0.0,0.0,0.0,0.0,0.0,0.0,5000.0,18675.0,Direct,,,View report (https://accesshub.pdc.wa.gov/node/47288),Environmental Affairs - natural resources - parks,Natural Resources,"Sen. Natural Resources & Parks; House Environment, Dept. of Commerce; Dept. of Ecology"
40110,47527-18388,47527,FE,17433,CARNEY BADLEY SPELLMAN*,Employer,18388,LIABILITY REFORM COALITION,18-Sep,10/16/2018,16603.0,LIABILITY REFORM COALITION,4166.67,0.0,4166.67,0.0,0.0,0.0,0.0,0.0,0.0,0.0,4166.67,18388.0,Direct,,,View report (https://accesshub.pdc.wa.gov/node/47527),Business and consumer affairs,"Construction, Consumer Affairs, Taxation, Liability, Health Care, Data Issues, Insurance, Financial Services, Transportation, Environmental Regulation, Economic Development","Senate Commerce, Labor & Sports; Senate Energy, Environment & Telecommunications; Senate Financial Institutions & Insurance; Senate Health Care; Senate Human Services"
40111,47707-18663,47707,FE,17522,ENGAGE STRATEGIES SPC*,Employer,18663,LUMMI TRIBE,18-Sep,10/16/2018,16610.0,LUMMI TRIBE,4300.0,0.0,4300.0,0.0,0.0,0.0,0.0,0.0,0.0,0.0,4300.0,18663.0,Direct,,,View report (https://accesshub.pdc.wa.gov/node/47707),Environmental Affairs - natural resources - parks,Water; natural resources; taxes; transportation; human services; education,House AGNR; Sen AG; Sen Natural Res. OFM; RCO; WDFW
40112,46771-19818,46771,FE,18045,Amber Ulvenes,Employer,19818,MIDWIVES ASSOCIATION OF WA STATE,18-Aug,10/16/2018,16637.0,MIDWIVES ASSOCIATION OF WA STATE,1200.0,0.0,1200.0,194.48,0.0,0.0,0.0,0.0,0.0,194.48,1394.48,19818.0,Direct,,,View report (https://accesshub.pdc.wa.gov/node/46771),Health Care,licensing fees,dept of health
40113,47684-19818,47684,FE,18045,Amber Ulvenes,Employer,19818,MIDWIVES ASSOCIATION OF WA STATE,18-Sep,10/16/2018,16637.0,MIDWIVES ASSOCIATION OF WA STATE,1200.0,0.0,1200.0,49.05,0.0,0.0,0.0,0.0,0.0,49.05,1249.05,19818.0,Direct,,,View report (https://accesshub.pdc.wa.gov/node/47684),Health Care,"licensing fees, doula reimbursement","dept of health, HCA"
40114,47682-26494,47682,FE,18039,ELIZABETH TRAUTMAN,Employer,26494,The Mockingbird Society,18-Aug,10/16/2018,16639.0,The Mockingbird Society,316.83,0.0,316.83,36.5,0.0,0.0,0.0,0.0,0.0,36.5,353.33,26494.0,Direct,,,View report (https://accesshub.pdc.wa.gov/node/47682),Human services,"juvenile detention, foster care","OHY Advisory Committee, Commission on Children in Foster Care"
40115,47683-26494,47683,FE,18039,ELIZABETH TRAUTMAN,Employer,26494,The Mockingbird Society,18-Sep,10/16/2018,16639.0,The Mockingbird Society,350.18,0.0,350.18,145.25,0.0,0.0,0.0,0.0,0.0,145.25,495.43,26494.0,Direct,,,View report (https://accesshub.pdc.wa.gov/node/47683),Human services,"juvenile detention, foster care","DCYF, Senator Darneille, Rep Frame"
40116,47695-19007,47695,FE,17664,MAGGIE J HUMPHREYS,Employer,19007,MOMSRISING TOGETHER,18-Sep,10/16/2018,16642.0,MOMSRISING TOGETHER,294.48,0.0,294.48,0.0,0.0,0.0,0.0,0.0,0.0,0.0,294.48,19007.0,Direct,,,View report (https://accesshub.pdc.wa.gov/node/47695),Labor,"PFML; equal pay, unemployment insurance",ESD; Legislature
40117,47686-19204,47686,FE,17776,TRENT MATSON,Employer,19204,"Moneytree, Inc.",18-Sep,10/16/2018,16643.0,"Moneytree, Inc.",2500.0,0.0,2500.0,0.0,0.0,0.0,0.0,0.0,0.0,0.0,2500.0,19204.0,Direct,,,View report (https://accesshub.pdc.wa.gov/node/47686),Financial institutions and insurance,financial,Financial committees and state legislators
40118,47527-18390,47527,FE,17433,CARNEY BADLEY SPELLMAN*,Employer,18390,NATL ASSN OF INSURANCE & FINANCIAL ADVISORS,18-Sep,10/16/2018,16655.0,NATL ASSN OF INSURANCE & FINANCIAL ADVISORS,3000.0,0.0,3000.0,0.0,0.0,0.0,0.0,0.0,0.0,0.0,3000.0,18390.0,Direct,,,View report (https://accesshub.pdc.wa.gov/node/47527),Business and consumer affairs,"Health Insurance, Life Insurance, Annuities, Long Term Care Insurance, Disability Insurance, Taxation",Senate HC Cmte; Senate W&M Cmte; Senate FII Cmte; House HC&W Cmte; House BFS Cmte; House Approp. Cmte; Ins. Comm
40119,47527-18391,47527,FE,17433,CARNEY BADLEY SPELLMAN*,Employer,18391,AMERICAN PROPERTY CASUALTY INSURANCE ASSOCIATION,18-Sep,10/16/2018,16668.0,AMERICAN PROPERTY CASUALTY INSURANCE ASSOCIATION,6583.33,0.0,6583.33,0.0,0.0,0.0,0.0,0.0,0.0,0.0,6583.33,18391.0,Direct,,,View report (https://accesshub.pdc.wa.gov/node/47527),Business and consumer affairs,"Insurance, Taxation, Tort Issues",Senate FII Cmte; House BFS Cmte; Senate L&J Cmte; House Jud Cmte; Senate W/M Cmte; House Approp. Cmte; Ins. Comm
40120,47707-23615,47707,FE,17522,ENGAGE STRATEGIES SPC*,Employer,23615,NORTHWEST ENERGY COALITION,18-Sep,10/16/2018,16700.0,NORTHWEST ENERGY COALITION,1667.0,0.0,1667.0,0.0,0.0,0.0,0.0,0.0,0.0,0.0,1667.0,23615.0,Direct,,,View report (https://accesshub.pdc.wa.gov/node/47707),Energy and utilities,"Energy Ind. Act; renewable energy, energy efficiency; capital budget; 100% clean legislation","House TED; Senate Energy, Commer, OFM; WSU Energy"
40121,47527-18392,47527,FE,17433,CARNEY BADLEY SPELLMAN*,Employer,18392,NORTHWEST MARINE TRADE ASSN,18-Sep,10/16/2018,16714.0,NORTHWEST MARINE TRADE ASSN,3465.0,0.0,3465.0,0.0,0.0,0.0,0.0,0.0,0.0,0.0,3465.0,18392.0,Direct,,,View report (https://accesshub.pdc.wa.gov/node/47527),Business and consumer affairs,"Construction, Consumer Affairs, Taxation, Liability, Health Care, Data Issues, Insurance, Financial Services, Transportation, Environmental Regulation, Economic Development","Senate Commerce, Labor & Sports; Senate Energy, Environment & Telecommunications; Senate Financial Institutions & Insurance; Senate Health Care; Senate Human Services"
40122,47527-18393,47527,FE,17433,CARNEY BADLEY SPELLMAN*,Employer,18393,PACIFIC PROPANE GAS ASSN,18-Sep,10/16/2018,16716.0,PACIFIC PROPANE GAS ASSN,2120.0,0.0,2120.0,0.0,0.0,0.0,0.0,0.0,0.0,0.0,2120.0,18393.0,Direct,,,View report (https://accesshub.pdc.wa.gov/node/47527),Business and consumer affairs,Energy; Alternative Fuels; Taxation,Senate EE&T Cmte; Senate W&M Cmte; Senate Trans Cmte; House Fin. Cmte; House Environ. Cmte; House T&ED Cmte; House Approp. Cmte
40123,47680-18323,47680,FE,17413,MARK O BROWN,Employer,18323,PARTNERS IN CAREERS,18-Sep,10/16/2018,16764.0,PARTNERS IN CAREERS,750.0,0.0,750.0,0.0,0.0,0.0,0.0,0.0,0.0,0.0,750.0,18323.0,Direct,,,View report (https://accesshub.pdc.wa.gov/node/47680),Fiscal,Fiscal,Local Government
40124,47527-18394,47527,FE,17433,CARNEY BADLEY SPELLMAN*,Employer,18394,PHARMACEUTICAL RSRCH/MFG OF AMERICA,18-Sep,10/16/2018,16776.0,PHARMACEUTICAL RSRCH/MFG OF AMERICA,9333.34,0.0,9333.34,0.0,0.0,5000.0,0.0,0.0,0.0,5000.0,14333.34,18394.0,Direct,,,View report (https://accesshub.pdc.wa.gov/node/47527),Business and consumer affairs,"Construction, Consumer Affairs, Taxation, Liability, Health Care, Data Issues, Insurance, Financial Services, Transportation, Environmental Regulation, Economic Development","Senate Commerce, Labor & Sports; Senate Energy, Environment & Telecommunications; Senate Financial Institutions & Insurance; Senate Health Care; Senate Human Services"
40125,47527-18395,47527,FE,17433,CARNEY BADLEY SPELLMAN*,Employer,18395,PROFESSIONAL INSURANCE AGENTS ASSN,18-Sep,10/16/2018,16815.0,PROFESSIONAL INSURANCE AGENTS ASSN,1750.0,0.0,1750.0,0.0,0.0,0.0,0.0,0.0,0.0,0.0,1750.0,18395.0,Direct,,,View report (https://accesshub.pdc.wa.gov/node/47527),Business and consumer affairs,"Insurance, Taxation",Ins. Comm
40126,47456-19491,47456,FE,17901,K & L GATES*,Employer,19491,PUGET SOUND SCHOOL COALITION/KING CO SCHOOL COALITION (THRU K AND L GATES),18-Sep,10/16/2018,16832.0,PUGET SOUND SCHOOL COALITION/KING CO SCHOOL COALITION (THRU K AND L GATES),630.5,0.0,630.5,0.0,0.0,0.0,0.0,0.0,0.0,0.0,630.5,19491.0,Direct,,,View report (https://accesshub.pdc.wa.gov/node/47456),Education,School Construction,Rep. Laurie Dolan; Rep. Steve Tharinger; Rep. Joe Fitzgibbon; Rep. Jake Fey; Rep. Mia Gregerson; Rep. Strom Peterson; Rep. Laurie Jinkins; Rep. Beth Doglio; Rep. Marcus Riccelli
40128,46771-19820,46771,FE,18045,Amber Ulvenes,Employer,19820,RESOLUTION WA,18-Aug,10/16/2018,16856.0,RESOLUTION WA,750.0,0.0,750.0,0.0,0.0,0.0,0.0,0.0,0.0,0.0,750.0,19820.0,Direct,,,View report (https://accesshub.pdc.wa.gov/node/46771),Law and justice,DRC funding,"Dept of Commerce, Law & Justice and Judiciary Committees, OFM"
40129,47684-19820,47684,FE,18045,Amber Ulvenes,Employer,19820,RESOLUTION WA,18-Sep,10/16/2018,16856.0,RESOLUTION WA,750.0,0.0,750.0,0.0,0.0,0.0,0.0,0.0,0.0,0.0,750.0,19820.0,Direct,,,View report (https://accesshub.pdc.wa.gov/node/47684),Law and justice,DRC funding,"Dept of Commerce, Law & Justice and Judiciary Committees, OFM"
40131,47456-19492,47456,FE,17901,K & L GATES*,Employer,19492,School Alliance,18-Sep,10/16/2018,16879.0,School Alliance,436.5,0.0,436.5,0.0,0.0,0.0,0.0,0.0,0.0,0.0,436.5,19492.0,Direct,,,View report (https://accesshub.pdc.wa.gov/node/47456),Education,School Construction Funding,Speaker Frank Chopp; Rep. Laurie Dolan; Rep. Steve Tharinger; Rep. Joe Fitzgibbon; Rep. Jake Fey; Rep. Mia Gregerson; Rep. Strom Peterson; Rep. Laurie Jinkins; Rep. Beth Doglio; Rep. Marcus Riccelli; Sen. David Frockt; Rep. Vandana Slatter; SOS Kim Wyman
40132,47288-18676,47288,FE,17528,LUKE ESSER,Employer,18676,SEIU 775,18-Sep,10/16/2018,16905.0,SEIU 775,4500.0,0.0,4500.0,0.0,0.0,1000.0,0.0,0.0,0.0,1000.0,5500.0,18676.0,Direct,,,View report (https://accesshub.pdc.wa.gov/node/47288),Fiscal,Medicaid,Sen. Ways & Means; House Appropriations
40133,47288-40644,47288,FE,17528,LUKE ESSER,Employer,40644,SIGNATURE HEALTHCARE SERVICES LLC,18-Sep,10/16/2018,16917.0,SIGNATURE HEALTHCARE SERVICES LLC,4000.0,-2000.0,2000.0,0.0,0.0,0.0,0.0,0.0,0.0,0.0,2000.0,40644.0,Direct,,,View report (https://accesshub.pdc.wa.gov/node/47288),Health Care,Mental Health,"Senate Health & Long Term Care; House Health Care & Wellness, Dept. of Health, Dept. of Social & Health Services"
40134,47527-18398,47527,FE,17433,CARNEY BADLEY SPELLMAN*,Employer,18398,7-ELEVEN INC,18-Sep,10/16/2018,16931.0,7-ELEVEN INC,3333.34,0.0,3333.34,0.0,0.0,0.0,0.0,0.0,0.0,0.0,3333.34,18398.0,Direct,,,View report (https://accesshub.pdc.wa.gov/node/47527),Business and consumer affairs,"Construction, Consumer Affairs, Taxation, Liability, Health Care, Data Issues, Insurance, Financial Services, Transportation, Environmental Regulation","Senate Commerce, Labor & Sports; Senate Energy, Environment & Telecommunications; Senate Financial Institutions & Insurance; Senate Health Care; Senate Human Services"
40135,47527-18399,47527,FE,17433,CARNEY BADLEY SPELLMAN*,Employer,18399,SPOKANE INTL AIRPORT,18-Sep,10/16/2018,16941.0,SPOKANE INTL AIRPORT,6666.67,0.0,6666.67,0.0,0.0,0.0,0.0,0.0,0.0,0.0,6666.67,18399.0,Direct,,,View report (https://accesshub.pdc.wa.gov/node/47527),Labor,"Construction, Consumer Affairs, Taxation, Liability, Health Care, Data Issues, Insurance, Financial Services, Transportation, Environmental Regulation, Economic Development","Senate Commerce, Labor & Sports; Senate Energy, Environment & Telecommunications; Senate Financial Institutions & Insurance; Senate Health Care; Senate Human Services"
40136,47664-35141,47664,FE,35140,Dawn Rains,Employer,35141,TREEHOUSE,18-Jul,10/16/2018,16992.0,TREEHOUSE,646.68,0.0,646.68,134.35,0.0,0.0,0.0,0.0,0.0,134.35,781.03,35141.0,Direct,,,View report (https://accesshub.pdc.wa.gov/node/47664),Education,foster youth education,"DCYF, Governor Inslee, OSPI"
40137,47672-35141,47672,FE,35140,Dawn Rains,Employer,35141,TREEHOUSE,18-Sep,10/16/2018,16992.0,TREEHOUSE,665.7,0.0,665.7,49.79,0.0,0.0,0.0,0.0,0.0,49.79,715.49,35141.0,Direct,,,View report (https://accesshub.pdc.wa.gov/node/47672),Education,foster youth education,"Jake Fey, Jeannie Darneille, DCYF"
40138,47527-18401,47527,FE,17433,CARNEY BADLEY SPELLMAN*,Employer,18401,UNITED TECHNOLOGIES CORP,18-Sep,10/16/2018,17016.0,UNITED TECHNOLOGIES CORP,2500.0,0.0,2500.0,0.0,0.0,0.0,0.0,0.0,0.0,0.0,2500.0,18401.0,Direct,,,View report (https://accesshub.pdc.wa.gov/node/47527),Labor,"Construction, Consumer Affairs, Taxation, Liability, Health Care, Data Issues, Insurance, Financial Services, Transportation, Environmental Regulation, Economic Development","Senate Commerce, Labor & Sports; Senate Energy, Environment & Telecommunications; Senate Financial Institutions & Insurance; Senate Health Care; Senate Human Services"
40139,47691-19104,47691,FE,17719,HERB KROHN,Employer,19104,SMART TD PAC,18-Sep,10/16/2018,17017.0,SMART TD PAC,2500.0,0.0,2500.0,0.0,0.0,0.0,0.0,0.0,0.0,0.0,2500.0,19104.0,Direct,,,View report (https://accesshub.pdc.wa.gov/node/47691),,,
40140,47527-18402,47527,FE,17433,CARNEY BADLEY SPELLMAN*,Employer,18402,WA ACADEMY OF EYE PHYSICIANS & SURGEONS,18-Sep,10/16/2018,17051.0,WA ACADEMY OF EYE PHYSICIANS & SURGEONS,2475.0,0.0,2475.0,0.0,0.0,0.0,0.0,0.0,0.0,0.0,2475.0,18402.0,Direct,,,View report (https://accesshub.pdc.wa.gov/node/47527),Business and consumer affairs,"Construction, Consumer Affairs, Taxation, Liability, Health Care, Data Issues, Insurance, Financial Services, Transportation, Environmental Regulation, Economic Development","Senate Commerce, Labor & Sports; Senate Energy, Environment & Telecommunications; Senate Financial Institutions & Insurance; Senate Health Care; Senate Human Services"
40141,47679-19251,47679,FE,17794,JEANETTE MCKAGUE,Employer,19251,WA ASSN OF REALTORS,18-Oct,10/16/2018,17059.0,WA ASSN OF REALTORS,4500.0,0.0,4500.0,0.0,0.0,250.0,0.0,0.0,0.0,250.0,4750.0,19251.0,Direct,,,View report (https://accesshub.pdc.wa.gov/node/47679),State government,Condos,Representative Senn
40142,47681-28707,47681,FE,28706,Marc Cummings,Employer,28707,Life Science Washington,18-Sep,10/16/2018,17063.0,Life Science Washington,423.0,0.0,423.0,89.0,0.0,0.0,0.0,0.0,0.0,89.0,512.0,28707.0,Direct,,,View report (https://accesshub.pdc.wa.gov/node/47681),Education,Higher Education & Workforce,Appropriations
40143,46673-44842,46673,FE,44841,Patrick D'Amelio,Employer,44842,WA CHARTERS ACTION,18-Aug,10/16/2018,17071.0,WA CHARTERS ACTION,2079.6,0.0,2079.6,49.64,3.21,0.0,0.0,0.0,0.0,52.85,2132.45,44842.0,Direct,,,View report (https://accesshub.pdc.wa.gov/node/46673),Education,various,various
40144,47527-18403,47527,FE,17433,CARNEY BADLEY SPELLMAN*,Employer,18403,WA DEFENSE TRIAL LAWYERS,18-Sep,10/16/2018,17097.0,WA DEFENSE TRIAL LAWYERS,2916.67,0.0,2916.67,0.0,0.0,0.0,0.0,0.0,0.0,0.0,2916.67,18403.0,Direct,,,View report (https://accesshub.pdc.wa.gov/node/47527),Financial institutions and insurance,"Tort Issues, Courts, Taxation",Senate L&J Cmte; Senate W&M Cmte; House Jud Cmte; House Fin Cmte.
40145,47459-19564,47459,FE,17931,JULIE K SALVI,Employer,19564,WA EDUCATION ASSN,18-Sep,10/16/2018,17098.0,WA EDUCATION ASSN,1811.88,0.0,1811.88,6.0,0.0,0.0,0.0,0.0,0.0,6.0,1817.88,19564.0,Direct,,,View report (https://accesshub.pdc.wa.gov/node/47459),Education,"SEBB Implementation, Retiree Health Care, Plan 1 COLA, Working in Retirement, K-12 Compensation","SCPP, OFM, HCA Staff, SEBB/PEBB Meetings"
40146,47464-19913,47464,FE,18106,LUCINDA L YOUNG,Employer,19913,WA EDUCATION ASSN,18-Sep,10/16/2018,17098.0,WA EDUCATION ASSN,2847.24,0.0,2847.24,273.05,0.0,661.94,0.0,0.0,0.0,934.99,3782.23,19913.0,Direct,,,View report (https://accesshub.pdc.wa.gov/node/47464),Education,"Counselors, Substitutes, Licensure for Para and Certs","Rep. Ortiz-Self, ParaEducator Board, PESB"
40147,47454-28564,47454,FE,28561,LORRELL NOAHR,Employer,28564,WA EDUCATION ASSN,18-Sep,10/16/2018,17098.0,WA EDUCATION ASSN,1488.33,0.0,1488.33,302.89,0.0,0.0,0.0,0.0,0.0,302.89,1791.22,28564.0,Direct,,,View report (https://accesshub.pdc.wa.gov/node/47454),Education,Education Fiscal Policy,"Keiser, Reeves, House Approps, OSPI, SDC Staff, Sch Const Funding TF"
40148,47721-19070,47721,FE,17698,Juliet Schindler,Employer,19070,COLLEGE SUCCESS FOUNDATION,18-Sep,10/16/2018,17104.0,COLLEGE SUCCESS FOUNDATION,3000.0,0.0,3000.0,0.0,0.0,0.0,0.0,0.0,0.0,0.0,3000.0,19070.0,Direct,,,View report (https://accesshub.pdc.wa.gov/node/47721),Higher education,student supports,"fiscal and education committees, Governor's office"
40149,47527-18404,47527,FE,17433,CARNEY BADLEY SPELLMAN*,Employer,18404,WA ASSN OF HEALTH UNDERWRITERS,18-Sep,10/16/2018,17129.0,WA ASSN OF HEALTH UNDERWRITERS,3500.0,0.0,3500.0,0.0,0.0,0.0,0.0,0.0,0.0,0.0,3500.0,18404.0,Direct,,,View report (https://accesshub.pdc.wa.gov/node/47527),Business and consumer affairs,"Health Insurance, Life Insurance,Disability Insurance, Long Term Care Insurance,Taxation",Senate HC Cmte; Senate W&M Cmte; Senate FII Cmte; House HC&W Cmte; House BFS Cmte; House Approp. Cmte; Ins. Comm
40150,47012-36292,47012,FE,36291,Elise Orlick,Employer,36292,WA PUBLIC INTEREST RESEARCH GROUP,18-Aug,10/16/2018,17172.0,WA PUBLIC INTEREST RESEARCH GROUP,287.85,0.0,287.85,38.08,0.0,0.0,0.0,0.0,0.0,38.08,325.93,36292.0,Direct,,,View report (https://accesshub.pdc.wa.gov/node/47012),Agriculture,Antibiotics use on farms,"House Health Care and Wellness; House Agriculture and Natural Resources; Senate Health and Long Term Care; Senate Agriculture, Water, Natural Resources and Parks"
40151,47696-19092,47696,FE,17710,TERRY KOHL,Employer,19092,WA ST SOCIETY OF OCULARISTS,18-Sep,10/16/2018,17195.0,WA ST SOCIETY OF OCULARISTS,5000.0,0.0,5000.0,24.42,0.0,0.0,0.0,0.0,0.0,24.42,5024.42,19092.0,Direct,,,View report (https://accesshub.pdc.wa.gov/node/47696),Health Care,Labor Commerce Healthcare,HS Sen Labor Commerce Healthcare
40152,47702-19577,47702,FE,17943,MICHAEL T SCHUTZLER,Employer,19577,WA TECHNOLOGY INDUSTRY ASSN,18-Sep,10/16/2018,17203.0,WA TECHNOLOGY INDUSTRY ASSN,200.0,0.0,200.0,0.0,0.0,0.0,0.0,0.0,0.0,0.0,200.0,19577.0,Direct,,,View report (https://accesshub.pdc.wa.gov/node/47702),Technology,2019 Budget,2019 Budget
40153,47707-44980,47707,FE,17522,ENGAGE STRATEGIES SPC*,Employer,44980,WA State Community Action Partnership,18-Sep,10/16/2018,17226.0,WA State Community Action Partnership,3000.0,0.0,3000.0,0.0,0.0,0.0,0.0,0.0,0.0,0.0,3000.0,44980.0,Direct,,,View report (https://accesshub.pdc.wa.gov/node/47707),Human services,"Affordable housing, intergenerational poverty","Commerce; DSHS, OFM, Ways and Means, Appropriations"
40154,47288-46190,47288,FE,17528,LUKE ESSER,Employer,46190,WA ST CATHOLIC CONFERENCE,18-Sep,10/16/2018,17228.0,WA ST CATHOLIC CONFERENCE,2500.0,0.0,2500.0,0.0,0.0,0.0,0.0,0.0,0.0,0.0,2500.0,46190.0,Direct,,,View report (https://accesshub.pdc.wa.gov/node/47288),Law and justice,"Criminal justice, Civil legal system","Sen. Law & Justice, House Public Safety & House Judiciary"
40155,47696-19093,47696,FE,17710,TERRY KOHL,Employer,19093,WA ST SNOWMOBILE ASSN,18-Sep,10/16/2018,17282.0,WA ST SNOWMOBILE ASSN,718.63,0.0,718.63,40.52,0.0,0.0,0.0,0.0,0.0,40.52,759.15,19093.0,Direct,,,View report (https://accesshub.pdc.wa.gov/node/47696),Environmental Affairs - natural resources - parks,Snowmobile Recreation,HS SEN Labor Commerce Healthcare DOL DOH
40156,47696-19094,47696,FE,17710,TERRY KOHL,Employer,19094,WA ST SELF STORAGE ASSN,18-Sep,10/16/2018,17287.0,WA ST SELF STORAGE ASSN,1245.83,0.0,1245.83,51.21,0.0,0.0,0.0,0.0,0.0,51.21,1297.04,19094.0,Direct,,,View report (https://accesshub.pdc.wa.gov/node/47696),Business and consumer affairs,Real Estate Self Storage Law,HS SEN Judicial Commerce Labor HS Business Finance
40157,47710-19597,47710,FE,17956,LARRY B SHANNON,Employer,19597,WA ST ASSN FOR JUSTICE,18-Sep,10/16/2018,17289.0,WA ST ASSN FOR JUSTICE,13000.0,0.0,13000.0,1734.97,0.0,0.0,0.0,0.0,0.0,1734.97,14734.97,19597.0,Direct,,,View report (https://accesshub.pdc.wa.gov/node/47710),Labor,labor,Commerce and Labor Senate Committee
40158,47527-18405,47527,FE,17433,CARNEY BADLEY SPELLMAN*,Employer,18405,THOMSON REUTERS,18-Sep,10/16/2018,17300.0,THOMSON REUTERS,1416.67,0.0,1416.67,0.0,0.0,0.0,0.0,0.0,0.0,0.0,1416.67,18405.0,Direct,,,View report (https://accesshub.pdc.wa.gov/node/47527),Business and consumer affairs,"Construction, Consumer Affairs, Taxation, Liability, Health Care, Data Issues, Insurance, Financial Services, Transportation, Environmental Regulation, Economic Development","Senate Commerce, Labor & Sports; Senate Energy, Environment & Telecommunications; Senate Financial Institutions & Insurance; Senate Health Care; Senate Human Services"
40160,47703-32054,47703,FE,32053,Samantha Louderback,Employer,32054,WA Hospitality Assn,18-Sep,10/16/2018,26557.0,WA Hospitality Assn,2000.0,0.0,2000.0,129.94,0.0,0.0,0.0,0.0,0.0,129.94,2129.94,32054.0,Direct,,,View report (https://accesshub.pdc.wa.gov/node/47703),State government,Workforce Development,All Legislature
40161,46771-42464,46771,FE,18045,Amber Ulvenes,Employer,42464,Kaiser Foundation Health Plan of Washington (CHRIS MARR),18-Aug,10/16/2018,30206.0,Kaiser Foundation Health Plan of Washington,5250.0,0.0,5250.0,361.4,0.0,0.0,0.0,0.0,0.0,361.4,5611.4,42464.0,Subcontract,17773.0,CHRIS MARR,View report (https://accesshub.pdc.wa.gov/node/46771),,,
40162,47684-42464,47684,FE,18045,Amber Ulvenes,Employer,42464,Kaiser Foundation Health Plan of Washington (CHRIS MARR),18-Sep,10/16/2018,30206.0,Kaiser Foundation Health Plan of Washington,5250.0,0.0,5250.0,265.9,0.0,0.0,0.0,0.0,0.0,265.9,5515.9,42464.0,Subcontract,17773.0,CHRIS MARR,View report (https://accesshub.pdc.wa.gov/node/47684),,,
40163,47527-36062,47527,FE,17433,CARNEY BADLEY SPELLMAN*,Employer,36062,ADP Total Source Inc,18-Sep,10/16/2018,36061.0,ADP Total Source Inc,5000.0,0.0,5000.0,0.0,0.0,0.0,0.0,0.0,0.0,0.0,5000.0,36062.0,Direct,,,View report (https://accesshub.pdc.wa.gov/node/47527),Fiscal,Insurance Taxation,"Sen. Financial Institutions Ins, House Business Financial Services, Sen. Ways & Means, House Financie, House Appropriations"
40164,47527-38691,47527,FE,17433,CARNEY BADLEY SPELLMAN*,Employer,38691,"Starkey Laboratories, Inc. dba Starkey Hearing Technologies",18-Sep,10/16/2018,38689.0,"Starkey Laboratories, Inc. dba Starkey Hearing Technologies",3000.0,0.0,3000.0,0.0,0.0,0.0,0.0,0.0,0.0,0.0,3000.0,38691.0,Direct,,,View report (https://accesshub.pdc.wa.gov/node/47527),Financial institutions and insurance,Industrial Insurance,"Senate Commerce, Labor & Sports; Senate Energy, Environment & Telecommunications; Senate Financial Institutions & Insurance; Senate Health Care; Senate Human Services"
40166,47697-46940,47697,FE,45759,"The Warren Group, LLC",Employer,46940,Klickitat County PUD,18-Aug,10/16/2018,46053.0,Klickitat County PUD,3200.0,0.0,3200.0,0.0,0.0,0.0,0.0,0.0,0.0,0.0,3200.0,46940.0,Direct,,,View report (https://accesshub.pdc.wa.gov/node/47697),Environmental Affairs - natural resources - parks,Wildfire risk reduction; Renewable Natural Gas; Fuel mix disclosure,
40167,47698-46940,47698,FE,45759,"The Warren Group, LLC",Employer,46940,Klickitat County PUD,18-Sep,10/16/2018,46053.0,Klickitat County PUD,3200.0,0.0,3200.0,0.0,0.0,0.0,0.0,0.0,0.0,0.0,3200.0,46940.0,Direct,,,View report (https://accesshub.pdc.wa.gov/node/47698),Environmental Affairs - natural resources - parks,,
40168,47288-47026,47288,FE,17528,LUKE ESSER,Employer,47026,City of Sammamish,18-Sep,10/16/2018,47025.0,City of Sammamish,1733.33,0.0,1733.33,0.0,0.0,0.0,0.0,0.0,0.0,0.0,1733.33,47026.0,Direct,,,View report (https://accesshub.pdc.wa.gov/node/47288),Environmental Affairs - natural resources - parks,Parks,Senate Ways & Means; House Capital Budget
40169,47739-46359,47739,FE,17935,Nancy Sapiro,Employer,46359,AMERICAN CIVIL LIBERTIES UNION OF WA,18-Sep,10/17/2018,16097.0,AMERICAN CIVIL LIBERTIES UNION OF WA,2500.0,0.0,2500.0,0.0,0.0,0.0,0.0,0.0,0.0,0.0,2500.0,46359.0,Direct,,,View report (https://accesshub.pdc.wa.gov/node/47739),Health Care,patient care,Members of Health Care Committees
40170,47739-23620,47739,FE,17935,Nancy Sapiro,Employer,23620,End of Life Washington,18-Sep,10/17/2018,16352.0,End of Life Washington,1125.0,0.0,1125.0,0.0,0.0,0.0,0.0,0.0,0.0,0.0,1125.0,23620.0,Direct,,,View report (https://accesshub.pdc.wa.gov/node/47739),Health Care,access to end of life care,"Health Care Committee members, HCA and OIC"
40171,47739-19968,47739,FE,17935,Nancy Sapiro,Employer,19968,CEDAR RIVER CLINICS (PAM CRONE LEGISLATIVE CONSULTING SVCS*),18-Sep,10/17/2018,16439.0,CEDAR RIVER CLINICS,375.0,0.0,375.0,0.0,0.0,0.0,0.0,0.0,0.0,0.0,375.0,19968.0,Subcontract,17875.0,PAM CRONE LEGISLATIVE CONSULTING SVCS*,View report (https://accesshub.pdc.wa.gov/node/47739),,,
40172,47739-19568,47739,FE,17935,Nancy Sapiro,Employer,19568,JEWISH FEDERATION OF GREATER SEATTLE,18-Sep,10/17/2018,16559.0,JEWISH FEDERATION OF GREATER SEATTLE,500.0,0.0,500.0,0.0,0.0,0.0,0.0,0.0,0.0,0.0,500.0,19568.0,Direct,,,View report (https://accesshub.pdc.wa.gov/node/47739),Law and justice,anti discrimination,house and senate members
40173,47739-19990,47739,FE,17935,Nancy Sapiro,Employer,19990,LEGAL VOICE (PAM CRONE LEGISLATIVE CONSULTING SVCS*),18-Sep,10/17/2018,16723.0,LEGAL VOICE,1750.0,0.0,1750.0,0.0,0.0,0.0,0.0,0.0,0.0,0.0,1750.0,19990.0,Subcontract,17875.0,PAM CRONE LEGISLATIVE CONSULTING SVCS*,View report (https://accesshub.pdc.wa.gov/node/47739),,,
40174,47739-19964,47739,FE,17935,Nancy Sapiro,Employer,19964,WA EMPLOYMENT LAWYERS ASSN (PAM CRONE LEGISLATIVE CONSULTING SVCS*),18-Sep,10/17/2018,17105.0,WA EMPLOYMENT LAWYERS ASSN,500.0,0.0,500.0,0.0,0.0,0.0,0.0,0.0,0.0,0.0,500.0,19964.0,Subcontract,17875.0,PAM CRONE LEGISLATIVE CONSULTING SVCS*,View report (https://accesshub.pdc.wa.gov/node/47739),,,
40175,47668-19763,47668,FE,18025,JAMES THOMPSON,Employer,19763,Washington Public Ports Association,18-Sep,10/17/2018,17174.0,Washington Public Ports Association,1035.49,0.0,1035.49,0.0,0.0,0.0,0.0,0.0,0.0,0.0,1035.49,19763.0,Direct,,,View report (https://accesshub.pdc.wa.gov/node/47668),Local government,Port Governance,Governmental Operations
40180,47757-19905,47757,FE,18098,CHRISTINA WONG,Employer,19905,Northwest Harvest EMM,18-Sep,10/18/2018,16708.0,Northwest Harvest EMM,478.8,0.0,478.8,58.0,0.0,0.0,0.0,0.0,0.0,58.0,536.8,19905.0,Direct,,,View report (https://accesshub.pdc.wa.gov/node/47757),Education,school meals,OSPI
40181,47741-19770,47741,FE,18031,TERRY R TILTON,Employer,19770,PACIFIC NORTHWEST REGIONAL COUNCIL OF CARPENTERS,18-Aug,10/18/2018,16754.0,PACIFIC NORTHWEST REGIONAL COUNCIL OF CARPENTERS,4700.0,0.0,4700.0,0.0,0.0,0.0,0.0,0.0,0.0,0.0,4700.0,19770.0,Direct,,,View report (https://accesshub.pdc.wa.gov/node/47741),,,
40183,47761-18558,47761,FE,17489,WILLIAM F DEWEY,Employer,18558,TAYLOR SHELLFISH CO INC,18-Sep,10/18/2018,16973.0,TAYLOR SHELLFISH CO INC,1332.12,0.0,1332.12,0.0,0.0,688.0,0.0,0.0,0.0,688.0,2020.12,18558.0,Direct,,,View report (https://accesshub.pdc.wa.gov/node/47761),Environmental Affairs - natural resources - parks,South Skagit Bay water quality,DOE
40186,47768-18216,47768,FE,17367,ROBERT A BATTLES,Employer,18216,ASSN OF WA BUSINESS,18-Sep,10/19/2018,16167.0,ASSN OF WA BUSINESS,7810.84,0.0,7810.84,0.0,0.0,0.0,0.0,0.0,0.0,0.0,7810.84,18216.0,Direct,,,View report (https://accesshub.pdc.wa.gov/node/47768),Law and justice,Paid family leave,L&I ESD Human Rights Commission
40187,47769-18428,47769,FE,17440,GARY CHANDLER,Employer,18428,ASSN OF WA BUSINESS,18-Sep,10/19/2018,16167.0,ASSN OF WA BUSINESS,7666.67,0.0,7666.67,0.0,0.0,0.0,0.0,0.0,0.0,0.0,7666.67,18428.0,Direct,,,View report (https://accesshub.pdc.wa.gov/node/47769),Environmental Affairs - natural resources - parks,SRKW Task Force,Legislative leadership Agency Directors
40188,47770-18670,47770,FE,17525,MICHAEL W ENNIS,Employer,18670,ASSN OF WA BUSINESS,18-Sep,10/19/2018,16167.0,ASSN OF WA BUSINESS,3088.68,0.0,3088.68,0.0,0.0,0.0,0.0,0.0,0.0,0.0,3088.68,18670.0,Direct,,,View report (https://accesshub.pdc.wa.gov/node/47770),Business and consumer affairs,Rural jobs,Department of Commerce House and Senate Commerce
40189,47771-18670,47771,FE,17525,MICHAEL W ENNIS,Employer,18670,ASSN OF WA BUSINESS,18-May,10/19/2018,16167.0,ASSN OF WA BUSINESS,3784.0,0.0,3784.0,0.0,0.0,0.0,0.0,0.0,0.0,0.0,3784.0,18670.0,Direct,,,View report (https://accesshub.pdc.wa.gov/node/47771),Environmental Affairs - natural resources - parks,LCFS,Dept of Transportation House Senate Transportation
40190,47767-19021,47767,FE,17673,AMY ANDERSON,Employer,19021,ASSN OF WA BUSINESS,18-Sep,10/19/2018,16167.0,ASSN OF WA BUSINESS,1125.0,0.0,1125.0,0.0,0.0,0.0,0.0,0.0,0.0,0.0,1125.0,19021.0,Direct,,,View report (https://accesshub.pdc.wa.gov/node/47767),Education,Apprenticeship,Workforce training board
40191,47773-19041,47773,FE,17680,KRISTOFER T JOHNSON,Employer,19041,ASSN OF WA BUSINESS,18-Sep,10/19/2018,16167.0,ASSN OF WA BUSINESS,525.0,0.0,525.0,0.0,0.0,0.0,0.0,0.0,0.0,0.0,525.0,19041.0,Direct,,,View report (https://accesshub.pdc.wa.gov/node/47773),Business and consumer affairs,Rural jobs,Agency Directors
40192,47772-39852,47772,FE,39851,Clay Hill,Employer,39852,ASSN OF WA BUSINESS,18-Sep,10/19/2018,16167.0,ASSN OF WA BUSINESS,5208.34,0.0,5208.34,0.0,0.0,0.0,0.0,0.0,0.0,0.0,5208.34,39852.0,Direct,,,View report (https://accesshub.pdc.wa.gov/node/47772),Fiscal,Mfg B&O Tax,Dept of Rev House Senate Ways & Means
40193,47774-37194,47774,FE,37193,Courtney Blatz,Employer,37194,ASSN OF WA SPIRITS & WINE DISTRIBUTORS (CHRISTOPHERSEN INC*),18-Sep,10/19/2018,16172.0,ASSN OF WA SPIRITS & WINE DISTRIBUTORS,222.22,0.0,222.22,0.0,0.0,0.0,0.0,0.0,0.0,0.0,222.22,37194.0,Subcontract,17348.0,CHRISTOPHERSEN INC*,View report (https://accesshub.pdc.wa.gov/node/47774),,,
40194,45978-19555,45978,FE,17926,JOHN ROTHLIN,Employer,19555,AVISTA CORP,18-Jul,10/19/2018,16180.0,AVISTA CORP,12103.2,0.0,12103.2,2577.32,140.03,39000.0,0.0,0.0,0.0,41717.35,53820.55,19555.0,Direct,,,View report (https://accesshub.pdc.wa.gov/node/45978),Environmental Affairs - natural resources - parks,Carbon policy,House and Senate
40195,47774-37205,47774,FE,37193,Courtney Blatz,Employer,37205,THE COLLEGE BOARD (CHRISTOPHERSEN INC*),18-Sep,10/19/2018,16334.0,THE COLLEGE BOARD,222.22,0.0,222.22,130.78,0.0,0.0,0.0,0.0,0.0,130.78,353.0,37205.0,Subcontract,17348.0,CHRISTOPHERSEN INC*,View report (https://accesshub.pdc.wa.gov/node/47774),,,
40196,47774-37209,47774,FE,37193,Courtney Blatz,Employer,37209,HAMPTON TREE FARMS LLC (CHRISTOPHERSEN INC*),18-Sep,10/19/2018,16490.0,HAMPTON TREE FARMS LLC,222.22,0.0,222.22,0.0,0.0,0.0,0.0,0.0,0.0,0.0,222.22,37209.0,Subcontract,17348.0,CHRISTOPHERSEN INC*,View report (https://accesshub.pdc.wa.gov/node/47774),,,
40197,47774-37201,47774,FE,37193,Courtney Blatz,Employer,37201,MERCK SHARP & DOHME LLC & AFFILIATES (CHRISTOPHERSEN INC*),18-Sep,10/19/2018,16632.0,MERCK SHARP & DOHME LLC & AFFILIATES,222.22,0.0,222.22,0.0,0.0,0.0,0.0,0.0,0.0,0.0,222.22,37201.0,Subcontract,17348.0,CHRISTOPHERSEN INC*,View report (https://accesshub.pdc.wa.gov/node/47774),,,
40198,47774-37202,47774,FE,37193,Courtney Blatz,Employer,37202,NORTHWEST KIDNEY CENTERS (CHRISTOPHERSEN INC*),18-Sep,10/19/2018,16711.0,NORTHWEST KIDNEY CENTERS,222.22,0.0,222.22,0.0,0.0,0.0,0.0,0.0,0.0,0.0,222.22,37202.0,Subcontract,17348.0,CHRISTOPHERSEN INC*,View report (https://accesshub.pdc.wa.gov/node/47774),,,
40199,47774-37203,47774,FE,37193,Courtney Blatz,Employer,37203,Pediatrix Medical Group (CHRISTOPHERSEN INC*),18-Sep,10/19/2018,16769.0,Pediatrix Medical Group,222.22,0.0,222.22,0.0,0.0,0.0,0.0,0.0,0.0,0.0,222.22,37203.0,Subcontract,17348.0,CHRISTOPHERSEN INC*,View report (https://accesshub.pdc.wa.gov/node/47774),,,
40200,47774-37204,47774,FE,37193,Courtney Blatz,Employer,37204,"STAND FOR CHILDREN, INC. (CHRISTOPHERSEN INC*)",18-Sep,10/19/2018,16949.0,"STAND FOR CHILDREN, INC.",222.22,0.0,222.22,0.0,0.0,0.0,0.0,0.0,0.0,0.0,222.22,37204.0,Subcontract,17348.0,CHRISTOPHERSEN INC*,View report (https://accesshub.pdc.wa.gov/node/47774),,,
40201,47774-37208,47774,FE,37193,Courtney Blatz,Employer,37208,WA CANNABUSINESS ASSN (CHRISTOPHERSEN INC*),18-Sep,10/19/2018,17073.0,WA CANNABUSINESS ASSN,222.24,0.0,222.24,0.0,0.0,0.0,0.0,0.0,0.0,0.0,222.24,37208.0,Subcontract,17348.0,CHRISTOPHERSEN INC*,View report (https://accesshub.pdc.wa.gov/node/47774),,,
40203,47777-19764,47777,FE,18026,Michele Thomas,Employer,19764,WA LOW-INCOME HOUSING ALLIANCE,18-Sep,10/19/2018,17143.0,WA LOW-INCOME HOUSING ALLIANCE,939.01,0.0,939.01,0.0,0.0,0.0,0.0,0.0,0.0,0.0,939.01,19764.0,Direct,,,View report (https://accesshub.pdc.wa.gov/node/47777),Human services,affordable housing,various
40204,47204-30497,47204,FE,30420,James Richard Theofelis Jr.,Employer,30497,"Third Sector New England, Inc.",18-Sep,10/19/2018,30421.0,"Third Sector New England, Inc.",508.83,0.0,508.83,34.88,0.0,0.0,0.0,0.0,0.0,34.88,543.71,30497.0,Direct,,,View report (https://accesshub.pdc.wa.gov/node/47204),Human services,YYA homelessness,Congresswoman Pramila Jayapal
40205,47774-40719,47774,FE,37193,Courtney Blatz,Employer,40719,Recompose (CHRISTOPHERSEN INC*),18-Sep,10/19/2018,38316.0,Recompose,222.22,0.0,222.22,0.0,0.0,0.0,0.0,0.0,0.0,0.0,222.22,40719.0,Subcontract,17348.0,CHRISTOPHERSEN INC*,View report (https://accesshub.pdc.wa.gov/node/47774),,,
40207,47780-18432,47780,FE,17444,SARAH I CHERIN,Employer,18432,UNITED FOOD & COMM WRKRS # 3000,18-Sep,10/21/2018,17005.0,UNITED FOOD & COMM WRKRS # 3000,2000.0,0.0,2000.0,0.0,0.0,0.0,0.0,0.0,0.0,0.0,2000.0,18432.0,Direct,,,View report (https://accesshub.pdc.wa.gov/node/47780),Labor,various,labor
40209,47011-18246,47011,FE,17388,ANNIE BLACKLEDGE,Employer,18246,The Mockingbird Society,18-Jul,10/22/2018,16639.0,The Mockingbird Society,961.6,0.0,961.6,0.0,0.0,0.0,0.0,0.0,41874.62,41874.62,42836.22,18246.0,Direct,,,View report (https://accesshub.pdc.wa.gov/node/47011),Human services,Leadership Summit,"Office of Homeless Youth, Supreme Court Commission on Youth in Foster Care"
40210,47781-32066,47781,FE,32065,Samantha Grad,Employer,32066,UNITED FOOD & COMM WRKRS # 3000,18-Sep,10/22/2018,17005.0,UNITED FOOD & COMM WRKRS # 3000,245.16,0.0,245.16,0.0,0.0,0.0,0.0,0.0,0.0,0.0,245.16,32066.0,Direct,,,View report (https://accesshub.pdc.wa.gov/node/47781),Labor,labor policies,legislators
40211,47787-18131,47787,FE,17336,ALLIANCES NORTHWEST*,Employer,18131,AMAZON.COM SERVICES LLC,18-Sep,10/23/2018,16088.0,AMAZON.COM SERVICES LLC,10000.0,0.0,10000.0,0.0,0.0,0.0,0.0,0.0,0.0,0.0,10000.0,18131.0,Direct,,,View report (https://accesshub.pdc.wa.gov/node/47787),Technology,"Subject Matter, Issue, or Bill Number -- All matters relating to business, commercial development, the environment, internet, insurance, finance, retail, tax and transportation issues.","2) Legislative Committee or State Agency Considering Matter -- All committees of the Legislature, the Executive, CTED, DOE, DOH, DOR, DFI, DOT, DSHS, DNR, GA, the and the Secretary of State."
40212,47787-18132,47787,FE,17336,ALLIANCES NORTHWEST*,Employer,18132,BP AMERICA INC,18-Sep,10/23/2018,16139.0,BP AMERICA INC,8000.0,0.0,8000.0,901.54,174.24,0.0,0.0,0.0,0.0,1075.78,9075.78,18132.0,Direct,,,View report (https://accesshub.pdc.wa.gov/node/47787),Business and consumer affairs,"Subject Matter, Issue, or Bill Number -- All matters relating to business, commercial development, the environment, energy, Hanford, health care, insurance, finance, retail, tax and transportation issues.","Legislative Committee or State Agency Considering Matter -- All committees of the Legislature, the Executive, DOE, DOH, DOR, DFI, DOT, DSHS, DNR, GA, the Insurance Commissioner, the Treasurer, and the Secretary of State."
40213,46256-34066,46256,FE,17594,ALISON R PHELAN,Employer,34066,BOEING EMPLOYEES CREDIT UNION,18-Aug,10/23/2018,16200.0,BOEING EMPLOYEES CREDIT UNION,9800.0,0.0,9800.0,0.0,0.0,16000.0,0.0,0.0,0.0,16000.0,25800.0,34066.0,Direct,,,View report (https://accesshub.pdc.wa.gov/node/46256),Financial institutions and insurance,General credit union/financial institutions issues,Senate Financial Institutions & Insurance; House Business & Financial Services; Department of Financial Institutions
40214,47796-34066,47796,FE,17594,ALISON R PHELAN,Employer,34066,BOEING EMPLOYEES CREDIT UNION,18-Sep,10/23/2018,16200.0,BOEING EMPLOYEES CREDIT UNION,9800.0,0.0,9800.0,0.0,0.0,0.0,0.0,0.0,0.0,0.0,9800.0,34066.0,Direct,,,View report (https://accesshub.pdc.wa.gov/node/47796),Financial institutions and insurance,General credit union/financial institutions issues,Senate Financial Institutions & Insurance; House Business & Financial Services; Department of Financial Institutions
40215,47798-19250,47798,FE,17793,MARY MCHALE,Employer,19250,AMERICAN CANCER SOCIETY CANCER ACTION NETWORK,18-Sep,10/23/2018,16221.0,AMERICAN CANCER SOCIETY CANCER ACTION NETWORK,630.0,0.0,630.0,0.0,0.0,0.0,0.0,0.0,0.0,0.0,630.0,19250.0,Direct,,,View report (https://accesshub.pdc.wa.gov/node/47798),Health Care,Tobacco Control,"legislature, AG, Gov"
40216,47787-18133,47787,FE,17336,ALLIANCES NORTHWEST*,Employer,18133,Delta Air Lines,18-Sep,10/23/2018,16385.0,Delta Air Lines,5000.0,0.0,5000.0,486.18,0.0,0.0,0.0,0.0,0.0,486.18,5486.18,18133.0,Direct,,,View report (https://accesshub.pdc.wa.gov/node/47787),Transportation,"Subject Matter, Issue, or Bill Number -- All matters relating to business, commercial development, the environment, energy, health care, insurance, finance, retail, tax and transportation issues.","Legislative Committee or State Agency Considering Matter -- All committees of the Legislature, the Executive, DOE, DOH, DOR, DFI, DOT, DSHS, DNR, GA, the Insurance Commissioner, the Treasurer, and the Secretary of State."
40217,47214-25544,47214,FE,17554,DAVID S FOSTER,Employer,25544,INTERCITY TRANSIT,18-Sep,10/23/2018,16542.0,INTERCITY TRANSIT,1750.0,0.0,1750.0,0.0,0.0,0.0,0.0,0.0,0.0,0.0,1750.0,25544.0,Direct,,,View report (https://accesshub.pdc.wa.gov/node/47214),Transportation,Transit,Transportation
40218,47214-47215,47214,FE,17554,DAVID S FOSTER,Employer,47215,KING CO COUNCIL,18-Sep,10/23/2018,16575.0,KING CO COUNCIL,6966.66,0.0,6966.66,0.0,0.0,0.0,0.0,0.0,0.0,0.0,6966.66,47215.0,Direct,,,View report (https://accesshub.pdc.wa.gov/node/47214),Local government,Local Government,"Transpo, Local Gov, Approps, W&M"
40219,47787-18134,47787,FE,17336,ALLIANCES NORTHWEST*,Employer,18134,NINTENDO OF AMERICA,18-Sep,10/23/2018,16686.0,NINTENDO OF AMERICA,5850.0,0.0,5850.0,481.54,0.0,0.0,0.0,0.0,0.0,481.54,6331.54,18134.0,Direct,,,View report (https://accesshub.pdc.wa.gov/node/47787),Technology,"Subject Matter, Issue, or Bill Number -- All matters relating to business, commercial development, the environment, health care, insurance, finance, technology, retail, tax and transportation issues.","Legislative Committee or State Agency Considering Matter -- All committees of the Legislature, the Executive, CTED, DOE, DOH, DOR, DFI, DOT, DSHS, DNR, GA, L&I, and the Secretary of State."
40220,47214-18738,47214,FE,17554,DAVID S FOSTER,Employer,18738,PACIFIC SCIENCE CENTER,18-Sep,10/23/2018,16758.0,PACIFIC SCIENCE CENTER,3150.0,0.0,3150.0,0.0,0.0,0.0,0.0,0.0,0.0,0.0,3150.0,18738.0,Direct,,,View report (https://accesshub.pdc.wa.gov/node/47214),Education,"Education, Budget","Capital Budget, Appropriations, Ways & Means"
40221,47787-18135,47787,FE,17336,ALLIANCES NORTHWEST*,Employer,18135,PUGET SOUND ENERGY INC,18-Sep,10/23/2018,16828.0,PUGET SOUND ENERGY INC,10000.0,0.0,10000.0,358.37,0.0,0.0,0.0,0.0,0.0,358.37,10358.37,18135.0,Direct,,,View report (https://accesshub.pdc.wa.gov/node/47787),Energy and utilities,"Subject Matter, Issue, or Bill Number -- All matters relating to business, commercial development, the environment, energy, Hanford, insurance, finance, local government, retail, tax and transportation issues.","Legislative Committee or State Agency Considering Matter -- All committees of the Legislature, the Executive, CTED, DOE, DOH, DOR, DFI, DOT, DSHS, DNR, GA, the UTC, the Treasurer, and the Secretary of State."
40222,47214-18740,47214,FE,17554,DAVID S FOSTER,Employer,18740,SEATTLE AQUARIUM SOCIETY,18-Sep,10/23/2018,16888.0,SEATTLE AQUARIUM SOCIETY,3000.0,0.0,3000.0,0.0,0.0,0.0,0.0,0.0,0.0,0.0,3000.0,18740.0,Direct,,,View report (https://accesshub.pdc.wa.gov/node/47214),Fiscal,Budget,"Approps, Ways & Means, Cap Budget"
40223,47787-18137,47787,FE,17336,ALLIANCES NORTHWEST*,Employer,18137,STARBUCKS,18-Sep,10/23/2018,16950.0,STARBUCKS,5000.0,0.0,5000.0,459.74,0.0,0.0,0.0,0.0,0.0,459.74,5459.74,18137.0,Direct,,,View report (https://accesshub.pdc.wa.gov/node/47787),Business and consumer affairs,"Subject Matter, Issue, or Bill Number -- All matters relating to business, commercial development, the environment, health care, insurance, finance, restaurant, retail, tax and transportation issues.","Legislative Committee or State Agency Considering Matter -- All committees of the Legislature, the Executive, DOE, DOH, DOR, DOR, DFI, DOT, DSHS, GA, the Insurance Commissioner, the Treasurer, and the Secretary of State."
40224,47787-27286,47787,FE,17336,ALLIANCES NORTHWEST*,Employer,27286,VERIZON,18-Sep,10/23/2018,17030.0,VERIZON,6000.0,0.0,6000.0,517.89,168.95,0.0,0.0,0.0,0.0,686.84,6686.84,27286.0,Direct,,,View report (https://accesshub.pdc.wa.gov/node/47787),Technology,"Subject Matter, Issue, or Bill Number -- All matters relating to business, commercial development, the environment, energy, Hanford, insurance, finance, local government, retail, tax, telecommunications, and transportation issues.","Legislative Committee or State Agency Considering Matter -- All committees of the Legislature, the Executive, CTED, DOE, DOH, DOR, DFI, DOT, DSHS, DNR, GA, the UTC, the Treasurer, and the Secretary of State."
40225,47787-38837,47787,FE,17336,ALLIANCES NORTHWEST*,Employer,38837,WA ASSN OF REALTORS,18-Sep,10/23/2018,17059.0,WA ASSN OF REALTORS,9000.0,0.0,9000.0,622.82,110.11,0.0,0.0,0.0,0.0,732.93,9732.93,38837.0,Direct,,,View report (https://accesshub.pdc.wa.gov/node/47787),Business and consumer affairs,"Subject Matter, Issue, or Bill Number -- All matters relating to financial institutions, business, commercial development, the environment, health care, , housing, insurance, finance, licensing, retail, tax and transportation issues.","Legislative Committee or State Agency Considering Matter -- All committees of the Legislature, the Executive, DOE, DOH, DOR, DFI, DOL, DOT, DSHS, DNR, GA, the Insurance Commissioner, the Treasurer, and the Secretary of State."
40226,47787-18139,47787,FE,17336,ALLIANCES NORTHWEST*,Employer,18139,Delta Dental of WA,18-Sep,10/23/2018,17096.0,Delta Dental of WA,10000.0,0.0,10000.0,503.34,91.21,0.0,0.0,0.0,0.0,594.55,10594.55,18139.0,Direct,,,View report (https://accesshub.pdc.wa.gov/node/47787),Health Care,"Subject Matter, Issue, or Bill Number -- All matters relating to business, the environment, health care, insurance, finance, and tax issues.","2) Legislative Committee or State Agency Considering Matter -- All committees of the Legislature, the Executive, DOH, DOR, DFI, DSHS, the Insurance Commissioner, the Treasurer, and the Secretary of State."
40227,47214-18742,47214,FE,17554,DAVID S FOSTER,Employer,18742,Washington State Alliance of YMCAs,18-Sep,10/23/2018,17323.0,Washington State Alliance of YMCAs,3200.0,0.0,3200.0,0.0,0.0,0.0,0.0,0.0,0.0,0.0,3200.0,18742.0,Direct,,,View report (https://accesshub.pdc.wa.gov/node/47214),Human services,"Childcare, budget","Early Learning Human Services, Approps, Cap Budget"
40228,47787-26591,47787,FE,17336,ALLIANCES NORTHWEST*,Employer,26591,WA Hospitality Assn,18-Sep,10/23/2018,26557.0,WA Hospitality Assn,9192.75,0.0,9192.75,509.47,0.0,0.0,0.0,0.0,0.0,509.47,9702.22,26591.0,Direct,,,View report (https://accesshub.pdc.wa.gov/node/47787),Business and consumer affairs,"Subject Matter, Issue, or Bill Number -- All matters relating to business, commercial development, the environment, health care, insurance, finance, restaurant, retail, tax and transportation issues.","Legislative Committee or State Agency Considering Matter -- All committees of the Legislature, the Executive, DOE, DOH, DOR, DOR, DFI, DOT, DSHS, GA, the Insurance Commissioner, the Treasurer, and the Secretary of State."
40229,47214-39821,47214,FE,17554,DAVID S FOSTER,Employer,39821,FareStart,18-Sep,10/23/2018,39820.0,FareStart,2000.0,0.0,2000.0,0.0,0.0,0.0,0.0,0.0,0.0,0.0,2000.0,39821.0,Direct,,,View report (https://accesshub.pdc.wa.gov/node/47214),Human services,"Homelessness, job training","Approps, W&M"
40230,47214-43392,47214,FE,17554,DAVID S FOSTER,Employer,43392,"KinderCare Learning Companies, LLC",18-Sep,10/23/2018,43391.0,"KinderCare Learning Companies, LLC",3500.0,0.0,3500.0,0.0,0.0,0.0,0.0,0.0,0.0,0.0,3500.0,43392.0,Direct,,,View report (https://accesshub.pdc.wa.gov/node/47214),Human services,"Childcare, budget","Early Learning, Education, Approps, Wasy & Means"
40231,46133-44618,46133,FE,44616,DeVere Public Affairs and Consulting,Employer,44618,City of Liberty Lake (JENNIFER ZIEGLER),18-Jul,10/23/2018,44526.0,City of Liberty Lake,1000.0,0.0,1000.0,0.0,0.0,0.0,0.0,0.0,0.0,0.0,1000.0,44618.0,Subcontract,18108.0,JENNIFER ZIEGLER,View report (https://accesshub.pdc.wa.gov/node/46133),,,
40232,46783-44618,46783,FE,44616,DeVere Public Affairs and Consulting,Employer,44618,City of Liberty Lake (JENNIFER ZIEGLER),18-Aug,10/23/2018,44526.0,City of Liberty Lake,1000.0,0.0,1000.0,0.0,0.0,0.0,0.0,0.0,0.0,0.0,1000.0,44618.0,Subcontract,18108.0,JENNIFER ZIEGLER,View report (https://accesshub.pdc.wa.gov/node/46783),,,
40233,47687-44618,47687,FE,44616,DeVere Public Affairs and Consulting,Employer,44618,City of Liberty Lake (JENNIFER ZIEGLER),18-Sep,10/23/2018,44526.0,City of Liberty Lake,1000.0,0.0,1000.0,0.0,0.0,0.0,0.0,0.0,0.0,0.0,1000.0,44618.0,Subcontract,18108.0,JENNIFER ZIEGLER,View report (https://accesshub.pdc.wa.gov/node/47687),,,
40234,47687-46486,47687,FE,44616,DeVere Public Affairs and Consulting,Employer,46486,MVD Express,18-Sep,10/23/2018,46158.0,MVD Express,2000.0,0.0,2000.0,0.0,0.0,0.0,0.0,0.0,0.0,0.0,2000.0,46486.0,Direct,,,View report (https://accesshub.pdc.wa.gov/node/47687),Transportation,Fiscal,Transportation committees
40235,47241-46893,47241,FE,17372,BRUCE K BECKETT,Employer,46893,AMERICAN FOREST RESOURCE CNCL,18-Sep,10/25/2018,16105.0,AMERICAN FOREST RESOURCE CNCL,1500.0,0.0,1500.0,0.0,0.0,0.0,0.0,0.0,0.0,0.0,1500.0,46893.0,Direct,,,View report (https://accesshub.pdc.wa.gov/node/47241),Environmental Affairs - natural resources - parks,DNR Timber Supply,Board of Natural Resources; House/Senate NR Committees
40236,47241-27140,47241,FE,17372,BRUCE K BECKETT,Employer,27140,PORT OF MOSES LAKE,18-Sep,10/25/2018,16802.0,PORT OF MOSES LAKE,3000.0,0.0,3000.0,371.44,0.0,0.0,0.0,0.0,0.0,371.44,3371.44,27140.0,Direct,,,View report (https://accesshub.pdc.wa.gov/node/47241),Transportation,Econ Development; aviation; workforce development; air cargo,"Air Cargo Task Force; Dept of Transportation; Dept of Commerce; ESD, L&I"
40237,47688-28169,47688,FE,17742,SHAWN M LEWIS,Employer,28169,WA EDUCATION ASSN,18-Sep,10/25/2018,17098.0,WA EDUCATION ASSN,631.32,0.0,631.32,0.0,0.0,2516.81,0.0,0.0,0.0,2516.81,3148.13,28169.0,Direct,,,View report (https://accesshub.pdc.wa.gov/node/47688),Education,"School Funding, Collective Bargaining","Laurie Jinkins, Bob Ferguson OFM Staff"
40238,47241-38993,47241,FE,17372,BRUCE K BECKETT,Employer,38993,WA RETAIL ASSN,18-Sep,10/25/2018,17180.0,WA RETAIL ASSN,4000.0,0.0,4000.0,0.0,0.0,0.0,0.0,0.0,0.0,0.0,4000.0,38993.0,Direct,,,View report (https://accesshub.pdc.wa.gov/node/47241),Labor,Non Competes; Secure scheduling,House/Senate Labor Committee; Rep. Stanford; Sen. Liias
40239,47241-29456,47241,FE,17372,BRUCE K BECKETT,Employer,29456,Wenatchee Valley Chamber of Commerce,18-Sep,10/25/2018,28448.0,Wenatchee Valley Chamber of Commerce,2000.0,0.0,2000.0,0.0,0.0,0.0,0.0,0.0,0.0,0.0,2000.0,29456.0,Direct,,,View report (https://accesshub.pdc.wa.gov/node/47241),State government,Mission Ridge Expansion; tourism; transportation,Dept of Commerce; WDFW; WTA Board
40240,47241-32598,47241,FE,17372,BRUCE K BECKETT,Employer,32598,Port of Port Angeles,18-Sep,10/25/2018,32592.0,Port of Port Angeles,3000.0,0.0,3000.0,0.0,0.0,0.0,0.0,0.0,0.0,0.0,3000.0,32598.0,Direct,,,View report (https://accesshub.pdc.wa.gov/node/47241),State government,Aviation; economic development; stormwater,Dept. of Ecology; Dept of Commerce; 24th District Legislators
40241,46197-19129,46197,FE,17741,JEAN M LEONARD*,Employer,19129,AMERICAN INTERNATIONAL GROUP INC,18-Jul,10/26/2018,16112.0,AMERICAN INTERNATIONAL GROUP INC,3500.0,0.0,3500.0,0.0,0.0,0.0,0.0,0.0,0.0,0.0,3500.0,19129.0,Direct,,,View report (https://accesshub.pdc.wa.gov/node/46197),Financial institutions and insurance,"S FIH, S JUD, H FII, H JUD TR",
40242,46941-19129,46941,FE,17741,JEAN M LEONARD*,Employer,19129,AMERICAN INTERNATIONAL GROUP INC,18-Aug,10/26/2018,16112.0,AMERICAN INTERNATIONAL GROUP INC,3500.0,0.0,3500.0,0.0,0.0,0.0,0.0,0.0,0.0,0.0,3500.0,19129.0,Direct,,,View report (https://accesshub.pdc.wa.gov/node/46941),Financial institutions and insurance,"S FIH, S JUD, H FII, H JUD TR",
40243,47699-19129,47699,FE,17741,JEAN M LEONARD*,Employer,19129,AMERICAN INTERNATIONAL GROUP INC,18-Sep,10/26/2018,16112.0,AMERICAN INTERNATIONAL GROUP INC,3500.0,0.0,3500.0,0.0,0.0,0.0,0.0,0.0,0.0,0.0,3500.0,19129.0,Direct,,,View report (https://accesshub.pdc.wa.gov/node/47699),Financial institutions and insurance,"S FIH, S JUD, H FII, H JUD TR",
40244,46197-19130,46197,FE,17741,JEAN M LEONARD*,Employer,19130,ENTERTAINMENT SOFTWARE ASSN,18-Jul,10/26/2018,16416.0,ENTERTAINMENT SOFTWARE ASSN,5333.33,0.0,5333.33,0.0,0.0,0.0,0.0,0.0,0.0,0.0,5333.33,19130.0,Direct,,,View report (https://accesshub.pdc.wa.gov/node/46197),Technology,"S CFS, S JUD, H JUD, H JJFJ",
40245,46941-19130,46941,FE,17741,JEAN M LEONARD*,Employer,19130,ENTERTAINMENT SOFTWARE ASSN,18-Aug,10/26/2018,16416.0,ENTERTAINMENT SOFTWARE ASSN,5333.33,0.0,5333.33,0.0,137.95,0.0,0.0,0.0,0.0,137.95,5471.28,19130.0,Direct,,,View report (https://accesshub.pdc.wa.gov/node/46941),Technology,"S CFS, S JUD, H JUD, H JJFJ",
40246,47699-19130,47699,FE,17741,JEAN M LEONARD*,Employer,19130,ENTERTAINMENT SOFTWARE ASSN,18-Sep,10/26/2018,16416.0,ENTERTAINMENT SOFTWARE ASSN,5333.33,0.0,5333.33,0.0,0.0,0.0,0.0,0.0,0.0,0.0,5333.33,19130.0,Direct,,,View report (https://accesshub.pdc.wa.gov/node/47699),Technology,"S CFS, S JUD, H JUD, H JJFJ",
40247,46197-19132,46197,FE,17741,JEAN M LEONARD*,Employer,19132,NATIONWIDE INSURANCE,18-Jul,10/26/2018,16676.0,NATIONWIDE INSURANCE,3000.0,0.0,3000.0,56.66,0.0,0.0,0.0,0.0,0.0,56.66,3056.66,19132.0,Direct,,,View report (https://accesshub.pdc.wa.gov/node/46197),Financial institutions and insurance,"S FIH, S JUD, H FII, H JUD TR",
40248,46941-19132,46941,FE,17741,JEAN M LEONARD*,Employer,19132,NATIONWIDE INSURANCE,18-Aug,10/26/2018,16676.0,NATIONWIDE INSURANCE,3000.0,0.0,3000.0,56.66,0.0,0.0,0.0,0.0,0.0,56.66,3056.66,19132.0,Direct,,,View report (https://accesshub.pdc.wa.gov/node/46941),Financial institutions and insurance,"S FIH, S JUD, H FII, H JUD TR",
40249,47699-19132,47699,FE,17741,JEAN M LEONARD*,Employer,19132,NATIONWIDE INSURANCE,18-Sep,10/26/2018,16676.0,NATIONWIDE INSURANCE,3000.0,0.0,3000.0,56.66,0.0,0.0,0.0,0.0,0.0,56.66,3056.66,19132.0,Direct,,,View report (https://accesshub.pdc.wa.gov/node/47699),Financial institutions and insurance,"S FIH, S JUD, H FII, H JUD TR",
40250,46197-19133,46197,FE,17741,JEAN M LEONARD*,Employer,19133,SPRINT NEXTEL,18-Jul,10/26/2018,16683.0,SPRINT NEXTEL,3000.0,0.0,3000.0,0.0,0.0,0.0,0.0,0.0,0.0,0.0,3000.0,19133.0,Direct,,,View report (https://accesshub.pdc.wa.gov/node/46197),Technology,"H APPROP, C CPH, S WET",
40251,46941-19133,46941,FE,17741,JEAN M LEONARD*,Employer,19133,SPRINT NEXTEL,18-Aug,10/26/2018,16683.0,SPRINT NEXTEL,3000.0,0.0,3000.0,0.0,0.0,500.0,0.0,0.0,0.0,500.0,3500.0,19133.0,Direct,,,View report (https://accesshub.pdc.wa.gov/node/46941),Technology,"H APPROP, C CPH, S WET",
40252,47699-19133,47699,FE,17741,JEAN M LEONARD*,Employer,19133,SPRINT NEXTEL,18-Sep,10/26/2018,16683.0,SPRINT NEXTEL,3000.0,0.0,3000.0,0.0,0.0,6000.0,0.0,0.0,0.0,6000.0,9000.0,19133.0,Direct,,,View report (https://accesshub.pdc.wa.gov/node/47699),Technology,"H APPROP, C CPH, S WET",
40254,46197-19134,46197,FE,17741,JEAN M LEONARD*,Employer,19134,STATE FARM INSURANCE COMPANIES,18-Jul,10/26/2018,16951.0,STATE FARM INSURANCE COMPANIES,8366.67,0.0,8366.67,37.94,0.0,0.0,0.0,0.0,0.0,37.94,8404.61,19134.0,Direct,,,View report (https://accesshub.pdc.wa.gov/node/46197),Financial institutions and insurance,"S FIH, S JUD, H FII, H JUD TR",
40255,46941-19134,46941,FE,17741,JEAN M LEONARD*,Employer,19134,STATE FARM INSURANCE COMPANIES,18-Aug,10/26/2018,16951.0,STATE FARM INSURANCE COMPANIES,8366.67,0.0,8366.67,57.55,0.0,0.0,0.0,0.0,0.0,57.55,8424.22,19134.0,Direct,,,View report (https://accesshub.pdc.wa.gov/node/46941),Financial institutions and insurance,"S FIH, S JUD, H FII, H JUD TR",
40256,47699-19134,47699,FE,17741,JEAN M LEONARD*,Employer,19134,STATE FARM INSURANCE COMPANIES,18-Sep,10/26/2018,16951.0,STATE FARM INSURANCE COMPANIES,8366.67,0.0,8366.67,55.38,0.0,0.0,0.0,0.0,0.0,55.38,8422.05,19134.0,Direct,,,View report (https://accesshub.pdc.wa.gov/node/47699),Financial institutions and insurance,"S FIH, S JUD, H FII, H JUD TR",
40257,46197-19135,46197,FE,17741,JEAN M LEONARD*,Employer,19135,WA INSURERS,18-Jul,10/26/2018,17130.0,WA INSURERS,7750.75,0.0,7750.75,0.0,0.0,0.0,0.0,0.0,0.0,0.0,7750.75,19135.0,Direct,,,View report (https://accesshub.pdc.wa.gov/node/46197),Financial institutions and insurance,"S FIH, S JUD, H FII, H JUD TR",
40258,46941-19135,46941,FE,17741,JEAN M LEONARD*,Employer,19135,WA INSURERS,18-Aug,10/26/2018,17130.0,WA INSURERS,7750.75,0.0,7750.75,0.0,0.0,0.0,0.0,0.0,0.0,0.0,7750.75,19135.0,Direct,,,View report (https://accesshub.pdc.wa.gov/node/46941),Financial institutions and insurance,"S FIH, S JUD, H FII, H JUD TR",
40259,47699-19135,47699,FE,17741,JEAN M LEONARD*,Employer,19135,WA INSURERS,18-Sep,10/26/2018,17130.0,WA INSURERS,7750.75,0.0,7750.75,0.0,0.0,0.0,0.0,0.0,0.0,0.0,7750.75,19135.0,Direct,,,View report (https://accesshub.pdc.wa.gov/node/47699),Financial institutions and insurance,"S FIH, S JUD, H FII, H JUD TR",
40260,45446-19613,45446,FE,17960,JEB C SHEPARD,Employer,19613,WA ST MEDICAL ASSN,18-Jul,10/26/2018,17261.0,WA ST MEDICAL ASSN,4500.0,0.0,4500.0,0.0,0.0,0.0,0.0,0.0,0.0,0.0,4500.0,19613.0,Direct,,,View report (https://accesshub.pdc.wa.gov/node/45446),Health Care,opioids,DOH
40261,47815-19613,47815,FE,17960,JEB C SHEPARD,Employer,19613,WA ST MEDICAL ASSN,18-Sep,10/26/2018,17261.0,WA ST MEDICAL ASSN,4500.0,0.0,4500.0,0.0,0.0,0.0,0.0,0.0,0.0,0.0,4500.0,19613.0,Direct,,,View report (https://accesshub.pdc.wa.gov/node/47815),Health Care,"prior authorization, opioids, credentialing","DOH, OIC, HCA"
40262,47817-26837,47817,FE,17638,MORGAN HICKEL,Employer,26837,WA Hospitality Assn,18-Sep,10/26/2018,26557.0,WA Hospitality Assn,2800.0,0.0,2800.0,0.0,0.0,0.0,0.0,0.0,0.0,0.0,2800.0,26837.0,Direct,,,View report (https://accesshub.pdc.wa.gov/node/47817),State government,Short-term rentals,DOR; DOC; Legislature - All
40263,46197-38977,46197,FE,17741,JEAN M LEONARD*,Employer,38977,Crown Castle and Affiliates,18-Jul,10/26/2018,38969.0,Crown Castle and Affiliates,6000.0,0.0,6000.0,0.0,0.0,0.0,0.0,0.0,0.0,0.0,6000.0,38977.0,Direct,,,View report (https://accesshub.pdc.wa.gov/node/46197),Technology,,
40264,46941-38977,46941,FE,17741,JEAN M LEONARD*,Employer,38977,Crown Castle and Affiliates,18-Aug,10/26/2018,38969.0,Crown Castle and Affiliates,6000.0,0.0,6000.0,0.0,0.0,0.0,0.0,0.0,0.0,0.0,6000.0,38977.0,Direct,,,View report (https://accesshub.pdc.wa.gov/node/46941),Technology,,
40265,47699-38977,47699,FE,17741,JEAN M LEONARD*,Employer,38977,Crown Castle and Affiliates,18-Sep,10/26/2018,38969.0,Crown Castle and Affiliates,6000.0,0.0,6000.0,0.0,0.0,0.0,0.0,0.0,0.0,0.0,6000.0,38977.0,Direct,,,View report (https://accesshub.pdc.wa.gov/node/47699),Technology,,
40266,46197-39066,46197,FE,17741,JEAN M LEONARD*,Employer,39066,DJI Technology Inc,18-Jul,10/26/2018,39061.0,DJI Technology Inc,7000.0,0.0,7000.0,0.0,0.0,0.0,0.0,0.0,0.0,0.0,7000.0,39066.0,Direct,,,View report (https://accesshub.pdc.wa.gov/node/46197),,,
40267,46941-39066,46941,FE,17741,JEAN M LEONARD*,Employer,39066,DJI Technology Inc,18-Aug,10/26/2018,39061.0,DJI Technology Inc,7000.0,0.0,7000.0,0.0,0.0,0.0,0.0,0.0,0.0,0.0,7000.0,39066.0,Direct,,,View report (https://accesshub.pdc.wa.gov/node/46941),,,
40268,47699-39066,47699,FE,17741,JEAN M LEONARD*,Employer,39066,DJI Technology Inc,18-Sep,10/26/2018,39061.0,DJI Technology Inc,7000.0,0.0,7000.0,0.0,0.0,0.0,0.0,0.0,0.0,0.0,7000.0,39066.0,Direct,,,View report (https://accesshub.pdc.wa.gov/node/47699),,,
40269,46197-39625,46197,FE,17741,JEAN M LEONARD*,Employer,39625,Blue Origin LLC,18-Jul,10/26/2018,39619.0,Blue Origin LLC,5416.67,0.0,5416.67,0.0,0.0,0.0,0.0,0.0,0.0,0.0,5416.67,39625.0,Direct,,,View report (https://accesshub.pdc.wa.gov/node/46197),Technology,,
40270,46941-39625,46941,FE,17741,JEAN M LEONARD*,Employer,39625,Blue Origin LLC,18-Aug,10/26/2018,39619.0,Blue Origin LLC,5416.67,0.0,5416.67,0.0,0.0,0.0,0.0,0.0,0.0,0.0,5416.67,39625.0,Direct,,,View report (https://accesshub.pdc.wa.gov/node/46941),Technology,,
40271,47699-39625,47699,FE,17741,JEAN M LEONARD*,Employer,39625,Blue Origin LLC,18-Sep,10/26/2018,39619.0,Blue Origin LLC,5416.67,0.0,5416.67,0.0,0.0,0.0,0.0,0.0,0.0,0.0,5416.67,39625.0,Direct,,,View report (https://accesshub.pdc.wa.gov/node/47699),Technology,,
40272,47824-39809,47824,FE,17437,Scott Cave,Employer,39809,Score Officer Guild,18-Sep,10/28/2018,39808.0,Score Officer Guild,1150.0,0.0,1150.0,0.0,0.0,0.0,0.0,0.0,0.0,0.0,1150.0,39809.0,Direct,,,View report (https://accesshub.pdc.wa.gov/node/47824),Law and justice,Adding binding interest arbitration,"Sen. Keiser, Rep. Goodman"
40273,47829-19676,47829,FE,17988,KRAIG M STEVENSON,Employer,19676,INTL CODE COUNCIL,18-Oct,10/29/2018,16539.0,INTL CODE COUNCIL,287.76,0.0,287.76,87.93,0.0,0.0,0.0,0.0,0.0,87.93,375.69,19676.0,Direct,,,View report (https://accesshub.pdc.wa.gov/node/47829),State government,Building Codes,"Rep Buys, Rep Senn, Senator Takko"
40275,47826-39387,47826,FE,39386,Teresa Taylor,Employer,39387,WA ST COUNCIL OF POLICE & SHERIFFS,18-Sep,10/29/2018,17236.0,WA ST COUNCIL OF POLICE & SHERIFFS,2500.0,0.0,2500.0,0.0,0.0,0.0,0.0,0.0,0.0,0.0,2500.0,39387.0,Direct,,,View report (https://accesshub.pdc.wa.gov/node/47826),Law and justice,"Initiative 940, ESHB 3003","Goodman, Hayes"
40276,47827-36766,47827,FE,36747,Zachary Lindahl,Employer,36766,WA Hospitality Assn,18-Oct,10/29/2018,26557.0,WA Hospitality Assn,1600.0,0.0,1600.0,0.0,0.0,0.0,0.0,0.0,0.0,0.0,1600.0,36766.0,Direct,,,View report (https://accesshub.pdc.wa.gov/node/47827),State government,Alcohol Policy,Liquor and Cannabis Board
40277,47843-18235,47843,FE,17379,ERICA D HALLOCK,Employer,18235,COUNCIL FOR A STRONG AMERICA,18-Oct,10/31/2018,16372.0,COUNCIL FOR A STRONG AMERICA,400.0,0.0,400.0,0.0,0.0,0.0,0.0,0.0,0.0,0.0,400.0,18235.0,Direct,,,View report (https://accesshub.pdc.wa.gov/node/47843),Human services,early learning,"House Early Learning Committee, Senate Early Learning Committee"
40278,47150-18336,47150,FE,17422,CARL E BURKE,Employer,18336,FRATERNAL ORDER OF POLICE,18-Oct,10/31/2018,16457.0,FRATERNAL ORDER OF POLICE,2500.0,0.0,2500.0,218.93,0.0,0.0,0.0,0.0,0.0,218.93,2718.93,18336.0,Direct,,,View report (https://accesshub.pdc.wa.gov/node/47150),,,
40280,47150-38041,47150,FE,17422,CARL E BURKE,Employer,38041,NORTHWEST MARINE TRADE ASSN,18-Oct,10/31/2018,16714.0,NORTHWEST MARINE TRADE ASSN,2500.0,0.0,2500.0,0.0,0.0,0.0,0.0,0.0,0.0,0.0,2500.0,38041.0,Direct,,,View report (https://accesshub.pdc.wa.gov/node/47150),Environmental Affairs - natural resources - parks,meet new agency director-discuss fishing issues,WDFW
40281,47150-18337,47150,FE,17422,CARL E BURKE,Employer,18337,NW SPORTFISHING INDUSTRY ASSN,18-Oct,10/31/2018,16721.0,NW SPORTFISHING INDUSTRY ASSN,2500.0,0.0,2500.0,0.0,0.0,0.0,0.0,0.0,0.0,0.0,2500.0,18337.0,Direct,,,View report (https://accesshub.pdc.wa.gov/node/47150),Environmental Affairs - natural resources - parks,meet new agency director-discuss fishing issues,WDFW
40294,47848-18875,47848,FE,17587,JON GOULD,Employer,18875,Children's Alliance,18-Oct,11/1/2018,16256.0,Children's Alliance,1000.0,0.0,1000.0,0.0,0.0,0.0,0.0,0.0,0.0,0.0,1000.0,18875.0,Direct,,,View report (https://accesshub.pdc.wa.gov/node/47848),Human services,multiple,"multiple house and senate committees and Dept of Children, Youth, Families\"
40295,47854-19163,47854,FE,17764,Renee Maher,Employer,19163,COUNCIL OF METROPOLITAN POLICE & SHERIFFS,18-Oct,11/1/2018,16371.0,COUNCIL OF METROPOLITAN POLICE & SHERIFFS,2012.5,0.0,2012.5,0.0,0.0,1000.0,0.0,0.0,0.0,1000.0,3012.5,19163.0,Direct,,,View report (https://accesshub.pdc.wa.gov/node/47854),Law and justice,i940,ballot initiative
40296,47858-18128,47858,FE,17334,MARK ALLEN,Employer,18128,WA MASSAGE OWNERS ASSN,18-Oct,11/1/2018,16621.0,WA MASSAGE OWNERS ASSN,2800.0,0.0,2800.0,0.0,0.0,0.0,0.0,0.0,0.0,0.0,2800.0,18128.0,Direct,,,View report (https://accesshub.pdc.wa.gov/node/47858),,,
40297,47845-19739,47845,FE,18019,MICHAEL TEMPLE,Employer,19739,PHARMACEUTICAL CARE MANAGEMENT ASSN,18-Oct,11/1/2018,16775.0,PHARMACEUTICAL CARE MANAGEMENT ASSN,5000.0,0.0,5000.0,305.98,0.0,0.0,0.0,0.0,0.0,305.98,5305.98,19739.0,Direct,,,View report (https://accesshub.pdc.wa.gov/node/47845),Health Care,Health,"Legislature, Governor,OIC"
40298,47845-19740,47845,FE,18019,MICHAEL TEMPLE,Employer,19740,SPOKANE TRIBE OF INDIANS,18-Oct,11/1/2018,16944.0,SPOKANE TRIBE OF INDIANS,5000.0,0.0,5000.0,0.0,0.0,0.0,0.0,0.0,0.0,0.0,5000.0,19740.0,Direct,,,View report (https://accesshub.pdc.wa.gov/node/47845),Environmental Affairs - natural resources - parks,Tribal Issues,"Legislature,DNR,LCB, Governor"
40303,47858-18129,47858,FE,17334,MARK ALLEN,Employer,18129,WA ST ASSN OF BROADCASTERS,18-Oct,11/1/2018,17219.0,WA ST ASSN OF BROADCASTERS,4500.0,0.0,4500.0,0.0,0.0,0.0,0.0,0.0,0.0,0.0,4500.0,18129.0,Direct,,,View report (https://accesshub.pdc.wa.gov/node/47858),State government,First Informer Broadcaster,"Sen. Sam Hunt, Rep. Mike Chapman, Rep. Roger Goodman,WA St Emergency Management Division"
40304,47869-18883,47869,FE,17593,SEAN N GRAHAM,Employer,18883,WA ST MEDICAL ASSN,18-Oct,11/1/2018,17261.0,WA ST MEDICAL ASSN,2222.22,0.0,2222.22,482.0,0.0,0.0,0.0,0.0,0.0,482.0,2704.22,18883.0,Direct,,,View report (https://accesshub.pdc.wa.gov/node/47869),Health Care,Multiple,Multiple
40305,47845-19741,47845,FE,18019,MICHAEL TEMPLE,Employer,19741,WA ST ASSN FOR JUSTICE,18-Oct,11/1/2018,17289.0,WA ST ASSN FOR JUSTICE,15000.0,0.0,15000.0,2071.64,0.0,0.0,0.0,0.0,0.0,2071.64,17071.64,19741.0,Direct,,,View report (https://accesshub.pdc.wa.gov/node/47845),Law and justice,Civil Justice,"Legislature,Governor,OIC,LNI"
40308,47907-19856,47907,FE,18071,WA ST NURSES ASSN,Employer,19856,ASSN OF ADV PRACTICE PSYCHIATRIC NURSES,18-Oct,11/2/2018,16147.0,ASSN OF ADV PRACTICE PSYCHIATRIC NURSES,400.0,0.0,400.0,0.0,0.0,0.0,0.0,0.0,0.0,0.0,400.0,19856.0,Direct,,,View report (https://accesshub.pdc.wa.gov/node/47907),Health Care,Nursing/Health Care Issues,"Healthcare, Labor, Budget Committees, Dept of Health, Labor and Industries"
40313,47056-18721,47056,FE,17545,JODY DANIELS,Employer,18721,GLAXO SMITHKLINE,18-Oct,11/2/2018,16473.0,GLAXO SMITHKLINE,1440.0,0.0,1440.0,0.0,0.0,0.0,0.0,0.0,0.0,0.0,1440.0,18721.0,Direct,,,View report (https://accesshub.pdc.wa.gov/node/47056),Health Care,Vaccines Drug price transparency,House and Senate Health Care
40319,47907-19857,47907,FE,18071,WA ST NURSES ASSN,Employer,19857,SCHOOL NURSES ORGANIZATION OF WA,18-Oct,11/2/2018,16882.0,SCHOOL NURSES ORGANIZATION OF WA,400.0,0.0,400.0,0.0,0.0,0.0,0.0,0.0,0.0,0.0,400.0,19857.0,Direct,,,View report (https://accesshub.pdc.wa.gov/node/47907),Health Care,Nursing/Health Care Issues,"Healthcare, Labor, Budget Committees, Dept of Health, Labor and Industries"
40323,47886-18544,47886,FE,17483,THOMAS M DAVIS,Employer,18544,WA ST FARM BUREAU,18-Oct,11/2/2018,17246.0,WA ST FARM BUREAU,4000.0,0.0,4000.0,0.0,0.0,0.0,0.0,0.0,0.0,0.0,4000.0,18544.0,Direct,,,View report (https://accesshub.pdc.wa.gov/node/47886),Agriculture,All agricultural issues,"WSDA, WDFW and House and Senate Ag committees"
40324,47901-25598,47901,FE,25597,Jennifer Muhm,Employer,25598,WA ST NURSES ASSN,18-Oct,11/2/2018,17265.0,WA ST NURSES ASSN,432.74,0.0,432.74,759.54,0.0,0.0,0.0,0.0,0.0,759.54,1192.28,25598.0,Direct,,,View report (https://accesshub.pdc.wa.gov/node/47901),Health Care,"rest breaks, workplace violence, surprise billing, school nurses, nursing education funding, public health funding",House and Senate
40325,47915-18975,47915,FE,17646,DEDI LITTLE,Employer,18975,WA ST PHARMACY ASSN,18-Sep,11/2/2018,17271.0,WA ST PHARMACY ASSN,6215.0,0.0,6215.0,0.0,0.0,0.0,0.0,0.0,0.0,0.0,6215.0,18975.0,Direct,,,View report (https://accesshub.pdc.wa.gov/node/47915),Health Care,pharmacy profession issues,"HCA, DOH, OIC"
40326,47916-18975,47916,FE,17646,DEDI LITTLE,Employer,18975,WA ST PHARMACY ASSN,18-Oct,11/2/2018,17271.0,WA ST PHARMACY ASSN,6215.0,0.0,6215.0,0.0,0.0,0.0,0.0,0.0,0.0,0.0,6215.0,18975.0,Direct,,,View report (https://accesshub.pdc.wa.gov/node/47916),Health Care,pharmacy profession issues,"HCA, DOH, OIC"
40327,47917-18975,47917,FE,17646,DEDI LITTLE,Employer,18975,WA ST PHARMACY ASSN,18-Aug,11/2/2018,17271.0,WA ST PHARMACY ASSN,6215.0,0.0,6215.0,0.0,0.0,0.0,0.0,0.0,0.0,0.0,6215.0,18975.0,Direct,,,View report (https://accesshub.pdc.wa.gov/node/47917),Health Care,pharmacy profession issues,"OIC, HCA, DOH"
40328,47887-26837,47887,FE,17638,MORGAN HICKEL,Employer,26837,WA Hospitality Assn,18-Oct,11/2/2018,26557.0,WA Hospitality Assn,2800.0,0.0,2800.0,0.0,0.0,0.0,0.0,0.0,0.0,0.0,2800.0,26837.0,Direct,,,View report (https://accesshub.pdc.wa.gov/node/47887),Labor,Overtime Exemptions,Labor & Industries
40330,32759-31281,32759,FE,30107,Kimberly Powe,Employer,31281,Puget Sound Sage,17-Mar,11/2/2018,31280.0,Puget Sound Sage,346.0,0.0,346.0,95.27,0.0,0.0,0.0,0.0,0.0,95.27,441.27,31281.0,Direct,,,View report (https://accesshub.pdc.wa.gov/node/32759),Energy and utilities,HB 1646,House Committee on Labor and Workplace Standards
