,id,report_number,origin,filer_id,filer_name,type,funding_source_id,funding_source_name,filing_period,receipt_date,employer_id,employer_name,compensation,sub_lobbyist_compensation,net_compensation,personal_expenses,entertainment,contributions,advertising,political_ads,other,total_expenses,net_total,employment_registration_id,employment_type,contractor_id,contractor_name,url,legislation_subject_matter,issue_bill_number,committee_lobbied
105000,82444-32856,82444,FE,25651,Insight Strategic Partners LLC,Employer,32856,CHELAN CO PUBLIC UTILITY DIST #1,21-Aug,3/3/2022,16254.0,CHELAN CO PUBLIC UTILITY DIST #1,9950.0,0.0,9950.0,0.0,0.0,0.0,0.0,0.0,0.0,0.0,9950.0,32856.0,Direct,,,View report (https://accesshub.pdc.wa.gov/node/82444),Energy and utilities,Energy and natural resources,"Energy and Environment, Governors Office, Ecology"
105001,83751-32856,83751,FE,25651,Insight Strategic Partners LLC,Employer,32856,CHELAN CO PUBLIC UTILITY DIST #1,21-Sep,3/3/2022,16254.0,CHELAN CO PUBLIC UTILITY DIST #1,9950.0,0.0,9950.0,0.0,0.0,0.0,0.0,0.0,0.0,0.0,9950.0,32856.0,Direct,,,View report (https://accesshub.pdc.wa.gov/node/83751),Energy and utilities,Energy and natural resources,"Energy and Environment, Governors Office, Ecology"
105002,84477-32856,84477,FE,25651,Insight Strategic Partners LLC,Employer,32856,CHELAN CO PUBLIC UTILITY DIST #1,21-Oct,3/3/2022,16254.0,CHELAN CO PUBLIC UTILITY DIST #1,9950.0,0.0,9950.0,0.0,0.0,0.0,0.0,0.0,0.0,0.0,9950.0,32856.0,Direct,,,View report (https://accesshub.pdc.wa.gov/node/84477),Energy and utilities,Energy and natural resources,"Energy and Environment, Governors Office, Ecology"
105003,85228-32856,85228,FE,25651,Insight Strategic Partners LLC,Employer,32856,CHELAN CO PUBLIC UTILITY DIST #1,21-Nov,3/3/2022,16254.0,CHELAN CO PUBLIC UTILITY DIST #1,9950.0,0.0,9950.0,0.0,0.0,0.0,0.0,0.0,0.0,0.0,9950.0,32856.0,Direct,,,View report (https://accesshub.pdc.wa.gov/node/85228),Energy and utilities,Energy and natural resources,"Energy and Environment, Governors Office, Ecology"
105004,86334-32856,86334,FE,25651,Insight Strategic Partners LLC,Employer,32856,CHELAN CO PUBLIC UTILITY DIST #1,21-Dec,3/3/2022,16254.0,CHELAN CO PUBLIC UTILITY DIST #1,9950.0,0.0,9950.0,0.0,0.0,0.0,0.0,0.0,0.0,0.0,9950.0,32856.0,Direct,,,View report (https://accesshub.pdc.wa.gov/node/86334),Energy and utilities,Energy and natural resources,"Energy and Environment, Governors Office, Ecology"
105005,88048-38464,88048,FE,38463,Cadena Consulting,Employer,38464,CITY OF BURIEN,22-Jan,3/3/2022,16275.0,CITY OF BURIEN,3853.41,0.0,3853.41,0.0,0.0,0.0,0.0,0.0,0.0,0.0,3853.41,38464.0,Direct,,,View report (https://accesshub.pdc.wa.gov/node/88048),Local government,"5974, 5975, 1711, 1241, 1717, 1099, 1782, 1981",house and senate members
105006,88048-45099,88048,FE,38463,Cadena Consulting,Employer,45099,CITY OF EVERETT,22-Jan,3/3/2022,16281.0,CITY OF EVERETT,3090.0,0.0,3090.0,0.0,0.0,0.0,0.0,0.0,0.0,0.0,3090.0,45099.0,Direct,,,View report (https://accesshub.pdc.wa.gov/node/88048),Local government,"5974, 5975, 1711, 1241, 1717, 1099, 1782, 1981",house and senate members
105007,76110-47842,76110,FE,25651,Insight Strategic Partners LLC,Employer,47842,CNSI,21-Jan,3/3/2022,16330.0,CNSI,5000.0,0.0,5000.0,0.0,0.0,0.0,0.0,0.0,0.0,0.0,5000.0,47842.0,Direct,,,View report (https://accesshub.pdc.wa.gov/node/76110),,,
105008,80349-47842,80349,FE,25651,Insight Strategic Partners LLC,Employer,47842,CNSI,21-May,3/3/2022,16330.0,CNSI,5000.0,0.0,5000.0,0.0,0.0,0.0,0.0,0.0,0.0,0.0,5000.0,47842.0,Direct,,,View report (https://accesshub.pdc.wa.gov/node/80349),,,
105009,81504-47842,81504,FE,25651,Insight Strategic Partners LLC,Employer,47842,CNSI,21-Jun,3/3/2022,16330.0,CNSI,5000.0,0.0,5000.0,0.0,0.0,0.0,0.0,0.0,0.0,0.0,5000.0,47842.0,Direct,,,View report (https://accesshub.pdc.wa.gov/node/81504),,,
105010,81854-47842,81854,FE,25651,Insight Strategic Partners LLC,Employer,47842,CNSI,21-Jul,3/3/2022,16330.0,CNSI,5000.0,0.0,5000.0,0.0,0.0,0.0,0.0,0.0,0.0,0.0,5000.0,47842.0,Direct,,,View report (https://accesshub.pdc.wa.gov/node/81854),,,
105011,82444-47842,82444,FE,25651,Insight Strategic Partners LLC,Employer,47842,CNSI,21-Aug,3/3/2022,16330.0,CNSI,5000.0,0.0,5000.0,0.0,0.0,0.0,0.0,0.0,0.0,0.0,5000.0,47842.0,Direct,,,View report (https://accesshub.pdc.wa.gov/node/82444),,,
105012,83751-47842,83751,FE,25651,Insight Strategic Partners LLC,Employer,47842,CNSI,21-Sep,3/3/2022,16330.0,CNSI,5000.0,0.0,5000.0,0.0,0.0,0.0,0.0,0.0,0.0,0.0,5000.0,47842.0,Direct,,,View report (https://accesshub.pdc.wa.gov/node/83751),,,
105013,84477-47842,84477,FE,25651,Insight Strategic Partners LLC,Employer,47842,CNSI,21-Oct,3/3/2022,16330.0,CNSI,5000.0,0.0,5000.0,0.0,0.0,0.0,0.0,0.0,0.0,0.0,5000.0,47842.0,Direct,,,View report (https://accesshub.pdc.wa.gov/node/84477),,,
105014,85228-47842,85228,FE,25651,Insight Strategic Partners LLC,Employer,47842,CNSI,21-Nov,3/3/2022,16330.0,CNSI,5000.0,0.0,5000.0,0.0,0.0,0.0,0.0,0.0,0.0,0.0,5000.0,47842.0,Direct,,,View report (https://accesshub.pdc.wa.gov/node/85228),,,
105015,86334-47842,86334,FE,25651,Insight Strategic Partners LLC,Employer,47842,CNSI,21-Dec,3/3/2022,16330.0,CNSI,5000.0,0.0,5000.0,0.0,0.0,0.0,0.0,0.0,0.0,0.0,5000.0,47842.0,Direct,,,View report (https://accesshub.pdc.wa.gov/node/86334),,,
105016,80349-75617,80349,FE,25651,Insight Strategic Partners LLC,Employer,75617,Darigold,21-May,3/3/2022,16378.0,Darigold,8500.0,0.0,8500.0,0.0,0.0,0.0,0.0,0.0,0.0,0.0,8500.0,75617.0,Direct,,,View report (https://accesshub.pdc.wa.gov/node/80349),Labor,Labor Issues,Department of Labor
105017,76110-28134,76110,FE,25651,Insight Strategic Partners LLC,Employer,28134,FRED HUTCHINSON CANCER RESEARCH CENTER,21-Jan,3/3/2022,16458.0,FRED HUTCHINSON CANCER RESEARCH CENTER,8000.0,0.0,8000.0,0.0,0.0,0.0,0.0,0.0,0.0,0.0,8000.0,28134.0,Direct,,,View report (https://accesshub.pdc.wa.gov/node/76110),Health Care,Health care,"Health Care, Appropriations, Ways and Means, OFM, Commerce"
105018,80349-28134,80349,FE,25651,Insight Strategic Partners LLC,Employer,28134,FRED HUTCHINSON CANCER RESEARCH CENTER,21-May,3/3/2022,16458.0,FRED HUTCHINSON CANCER RESEARCH CENTER,8000.0,0.0,8000.0,0.0,0.0,0.0,0.0,0.0,0.0,0.0,8000.0,28134.0,Direct,,,View report (https://accesshub.pdc.wa.gov/node/80349),Health Care,Health care,"Health Care, Appropriations, Ways and Means, OFM, Commerce"
105019,81504-28134,81504,FE,25651,Insight Strategic Partners LLC,Employer,28134,FRED HUTCHINSON CANCER RESEARCH CENTER,21-Jun,3/3/2022,16458.0,FRED HUTCHINSON CANCER RESEARCH CENTER,8000.0,0.0,8000.0,0.0,0.0,0.0,0.0,0.0,0.0,0.0,8000.0,28134.0,Direct,,,View report (https://accesshub.pdc.wa.gov/node/81504),Health Care,Health care,"Health Care, Appropriations, Ways and Means, OFM, Commerce"
105020,81854-28134,81854,FE,25651,Insight Strategic Partners LLC,Employer,28134,FRED HUTCHINSON CANCER RESEARCH CENTER,21-Jul,3/3/2022,16458.0,FRED HUTCHINSON CANCER RESEARCH CENTER,8000.0,0.0,8000.0,0.0,0.0,0.0,0.0,0.0,0.0,0.0,8000.0,28134.0,Direct,,,View report (https://accesshub.pdc.wa.gov/node/81854),Health Care,Health care,"Health Care, Appropriations, Ways and Means, OFM, Commerce"
105021,82444-28134,82444,FE,25651,Insight Strategic Partners LLC,Employer,28134,FRED HUTCHINSON CANCER RESEARCH CENTER,21-Aug,3/3/2022,16458.0,FRED HUTCHINSON CANCER RESEARCH CENTER,8000.0,0.0,8000.0,0.0,0.0,0.0,0.0,0.0,0.0,0.0,8000.0,28134.0,Direct,,,View report (https://accesshub.pdc.wa.gov/node/82444),Health Care,Health care,"Health Care, Appropriations, Ways and Means, OFM, Commerce"
105022,83751-28134,83751,FE,25651,Insight Strategic Partners LLC,Employer,28134,FRED HUTCHINSON CANCER RESEARCH CENTER,21-Sep,3/3/2022,16458.0,FRED HUTCHINSON CANCER RESEARCH CENTER,8000.0,0.0,8000.0,0.0,0.0,0.0,0.0,0.0,0.0,0.0,8000.0,28134.0,Direct,,,View report (https://accesshub.pdc.wa.gov/node/83751),Health Care,Health care,"Health Care, Appropriations, Ways and Means, OFM, Commerce"
105023,84477-28134,84477,FE,25651,Insight Strategic Partners LLC,Employer,28134,FRED HUTCHINSON CANCER RESEARCH CENTER,21-Oct,3/3/2022,16458.0,FRED HUTCHINSON CANCER RESEARCH CENTER,8000.0,0.0,8000.0,0.0,0.0,0.0,0.0,0.0,0.0,0.0,8000.0,28134.0,Direct,,,View report (https://accesshub.pdc.wa.gov/node/84477),Health Care,Health care,"Health Care, Appropriations, Ways and Means, OFM, Commerce"
105024,85228-28134,85228,FE,25651,Insight Strategic Partners LLC,Employer,28134,FRED HUTCHINSON CANCER RESEARCH CENTER,21-Nov,3/3/2022,16458.0,FRED HUTCHINSON CANCER RESEARCH CENTER,8000.0,0.0,8000.0,0.0,0.0,0.0,0.0,0.0,0.0,0.0,8000.0,28134.0,Direct,,,View report (https://accesshub.pdc.wa.gov/node/85228),Health Care,Health care,"Health Care, Appropriations, Ways and Means, OFM, Commerce"
105025,86334-28134,86334,FE,25651,Insight Strategic Partners LLC,Employer,28134,FRED HUTCHINSON CANCER RESEARCH CENTER,21-Dec,3/3/2022,16458.0,FRED HUTCHINSON CANCER RESEARCH CENTER,8000.0,0.0,8000.0,0.0,0.0,0.0,0.0,0.0,0.0,0.0,8000.0,28134.0,Direct,,,View report (https://accesshub.pdc.wa.gov/node/86334),Health Care,Health care,"Health Care, Appropriations, Ways and Means, OFM, Commerce"
105026,76110-25652,76110,FE,25651,Insight Strategic Partners LLC,Employer,25652,LYFT INC,21-Jan,3/3/2022,16612.0,LYFT INC,4000.0,-4000.0,0.0,0.0,0.0,0.0,0.0,0.0,0.0,0.0,0.0,25652.0,Direct,,,View report (https://accesshub.pdc.wa.gov/node/76110),Transportation,"Transportation, Privacy",Transportation
105027,80349-25652,80349,FE,25651,Insight Strategic Partners LLC,Employer,25652,LYFT INC,21-May,3/3/2022,16612.0,LYFT INC,8000.0,-4000.0,4000.0,0.0,0.0,0.0,0.0,0.0,0.0,0.0,4000.0,25652.0,Direct,,,View report (https://accesshub.pdc.wa.gov/node/80349),Transportation,"Transportation, Privacy",Transportation
105028,81504-25652,81504,FE,25651,Insight Strategic Partners LLC,Employer,25652,LYFT INC,21-Jun,3/3/2022,16612.0,LYFT INC,8000.0,-4000.0,4000.0,0.0,0.0,0.0,0.0,0.0,0.0,0.0,4000.0,25652.0,Direct,,,View report (https://accesshub.pdc.wa.gov/node/81504),Transportation,"Transportation, Privacy",Transportation
105029,81854-25652,81854,FE,25651,Insight Strategic Partners LLC,Employer,25652,LYFT INC,21-Jul,3/3/2022,16612.0,LYFT INC,8000.0,-4000.0,4000.0,0.0,0.0,0.0,0.0,0.0,0.0,0.0,4000.0,25652.0,Direct,,,View report (https://accesshub.pdc.wa.gov/node/81854),Transportation,"Transportation, Privacy",Transportation
105030,82444-25652,82444,FE,25651,Insight Strategic Partners LLC,Employer,25652,LYFT INC,21-Aug,3/3/2022,16612.0,LYFT INC,8000.0,-4000.0,4000.0,0.0,0.0,0.0,0.0,0.0,0.0,0.0,4000.0,25652.0,Direct,,,View report (https://accesshub.pdc.wa.gov/node/82444),Transportation,"Transportation, Privacy",Transportation
105031,83751-25652,83751,FE,25651,Insight Strategic Partners LLC,Employer,25652,LYFT INC,21-Sep,3/3/2022,16612.0,LYFT INC,8000.0,-4000.0,4000.0,0.0,0.0,0.0,0.0,0.0,0.0,0.0,4000.0,25652.0,Direct,,,View report (https://accesshub.pdc.wa.gov/node/83751),Transportation,"Transportation, Privacy",Transportation
105032,84477-25652,84477,FE,25651,Insight Strategic Partners LLC,Employer,25652,LYFT INC,21-Oct,3/3/2022,16612.0,LYFT INC,8000.0,-4000.0,4000.0,0.0,0.0,0.0,0.0,0.0,0.0,0.0,4000.0,25652.0,Direct,,,View report (https://accesshub.pdc.wa.gov/node/84477),Transportation,"Transportation, Privacy",Transportation
105033,85228-25652,85228,FE,25651,Insight Strategic Partners LLC,Employer,25652,LYFT INC,21-Nov,3/3/2022,16612.0,LYFT INC,8000.0,-4000.0,4000.0,0.0,0.0,0.0,0.0,0.0,0.0,0.0,4000.0,25652.0,Direct,,,View report (https://accesshub.pdc.wa.gov/node/85228),Transportation,"Transportation, Privacy",Transportation
105034,86334-25652,86334,FE,25651,Insight Strategic Partners LLC,Employer,25652,LYFT INC,21-Dec,3/3/2022,16612.0,LYFT INC,8000.0,-4000.0,4000.0,0.0,0.0,0.0,0.0,0.0,0.0,0.0,4000.0,25652.0,Direct,,,View report (https://accesshub.pdc.wa.gov/node/86334),Transportation,"Transportation, Privacy",Transportation
105035,89585-18794,89585,FE,17575,DAVOR GJURASIC,Employer,18794,NISQUALLY INDIAN TRIBE,22-Feb,3/3/2022,16687.0,NISQUALLY INDIAN TRIBE,7750.0,0.0,7750.0,0.0,0.0,0.0,0.0,0.0,0.0,0.0,7750.0,18794.0,Direct,,,View report (https://accesshub.pdc.wa.gov/node/89585),Environmental Affairs - natural resources - parks,"Transportation, Salmon Recovery","House and Senate Transportation, Agriculture Water NR & Parks, Rural Development Agriculture and NR"
105036,88048-59721,88048,FE,38463,Cadena Consulting,Employer,59721,GoWest Credit Union Association,22-Jan,3/3/2022,16703.0,GoWest Credit Union Association,4750.0,0.0,4750.0,0.0,0.0,0.0,0.0,0.0,0.0,0.0,4750.0,59721.0,Direct,,,View report (https://accesshub.pdc.wa.gov/node/88048),Business and consumer affairs,"1165, 1850, 1650",house and senate members
105037,89574-70470,89574,FE,70469,Johns-Brown Governmental Relations,Employer,70470,PLANNED PARENTHOOD ALLIANCE ADVOCATES,22-Feb,3/3/2022,16789.0,PLANNED PARENTHOOD ALLIANCE ADVOCATES,1500.0,0.0,1500.0,0.0,0.0,0.0,0.0,0.0,0.0,0.0,1500.0,70470.0,Direct,,,View report (https://accesshub.pdc.wa.gov/node/89574),Fiscal,pandemic relief funding,Appropriations and Ways and Means
105038,89585-18795,89585,FE,17575,DAVOR GJURASIC,Employer,18795,PORT GAMBLE S'KLALLAM TRIBE,22-Feb,3/3/2022,16799.0,PORT GAMBLE S'KLALLAM TRIBE,6666.66,-3333.33,3333.33,0.0,0.0,0.0,0.0,0.0,0.0,0.0,3333.33,18795.0,Direct,,,View report (https://accesshub.pdc.wa.gov/node/89585),Environmental Affairs - natural resources - parks,Salmon Recovery,"Agriculture Water NR & Parks, Rural Development Agriculture & NR"
105039,89577-27140,89577,FE,17372,BRUCE K BECKETT,Employer,27140,PORT OF MOSES LAKE,22-Feb,3/3/2022,16802.0,PORT OF MOSES LAKE,3500.0,0.0,3500.0,0.0,0.0,0.0,0.0,0.0,0.0,0.0,3500.0,27140.0,Direct,,,View report (https://accesshub.pdc.wa.gov/node/89577),State government,"SB 5849, solar incentives; rail funding; aviation funding",House/Senate Fiscal Committees; House/Senate Transportation;
105040,76110-51412,76110,FE,25651,Insight Strategic Partners LLC,Employer,51412,PUBLIC CONSULTING GROUP LLC  c/o MultiState Associates Inc.,21-Jan,3/3/2022,16823.0,PUBLIC CONSULTING GROUP LLC  c/o MultiState Associates Inc.,6000.0,0.0,6000.0,0.0,0.0,0.0,0.0,0.0,0.0,0.0,6000.0,51412.0,Direct,,,View report (https://accesshub.pdc.wa.gov/node/76110),,,
105041,80349-51412,80349,FE,25651,Insight Strategic Partners LLC,Employer,51412,PUBLIC CONSULTING GROUP LLC  c/o MultiState Associates Inc.,21-May,3/3/2022,16823.0,PUBLIC CONSULTING GROUP LLC  c/o MultiState Associates Inc.,6000.0,0.0,6000.0,0.0,0.0,0.0,0.0,0.0,0.0,0.0,6000.0,51412.0,Direct,,,View report (https://accesshub.pdc.wa.gov/node/80349),,,
105042,81504-51412,81504,FE,25651,Insight Strategic Partners LLC,Employer,51412,PUBLIC CONSULTING GROUP LLC  c/o MultiState Associates Inc.,21-Jun,3/3/2022,16823.0,PUBLIC CONSULTING GROUP LLC  c/o MultiState Associates Inc.,6000.0,0.0,6000.0,0.0,0.0,0.0,0.0,0.0,0.0,0.0,6000.0,51412.0,Direct,,,View report (https://accesshub.pdc.wa.gov/node/81504),,,
105043,81854-51412,81854,FE,25651,Insight Strategic Partners LLC,Employer,51412,PUBLIC CONSULTING GROUP LLC  c/o MultiState Associates Inc.,21-Jul,3/3/2022,16823.0,PUBLIC CONSULTING GROUP LLC  c/o MultiState Associates Inc.,6000.0,0.0,6000.0,0.0,0.0,0.0,0.0,0.0,0.0,0.0,6000.0,51412.0,Direct,,,View report (https://accesshub.pdc.wa.gov/node/81854),,,
105044,82444-51412,82444,FE,25651,Insight Strategic Partners LLC,Employer,51412,PUBLIC CONSULTING GROUP LLC  c/o MultiState Associates Inc.,21-Aug,3/3/2022,16823.0,PUBLIC CONSULTING GROUP LLC  c/o MultiState Associates Inc.,6000.0,0.0,6000.0,0.0,0.0,0.0,0.0,0.0,0.0,0.0,6000.0,51412.0,Direct,,,View report (https://accesshub.pdc.wa.gov/node/82444),,,
105045,83751-51412,83751,FE,25651,Insight Strategic Partners LLC,Employer,51412,PUBLIC CONSULTING GROUP LLC  c/o MultiState Associates Inc.,21-Sep,3/3/2022,16823.0,PUBLIC CONSULTING GROUP LLC  c/o MultiState Associates Inc.,6000.0,0.0,6000.0,0.0,0.0,0.0,0.0,0.0,0.0,0.0,6000.0,51412.0,Direct,,,View report (https://accesshub.pdc.wa.gov/node/83751),,,
105046,84477-51412,84477,FE,25651,Insight Strategic Partners LLC,Employer,51412,PUBLIC CONSULTING GROUP LLC  c/o MultiState Associates Inc.,21-Oct,3/3/2022,16823.0,PUBLIC CONSULTING GROUP LLC  c/o MultiState Associates Inc.,6000.0,0.0,6000.0,0.0,0.0,0.0,0.0,0.0,0.0,0.0,6000.0,51412.0,Direct,,,View report (https://accesshub.pdc.wa.gov/node/84477),,,
105047,85228-51412,85228,FE,25651,Insight Strategic Partners LLC,Employer,51412,PUBLIC CONSULTING GROUP LLC  c/o MultiState Associates Inc.,21-Nov,3/3/2022,16823.0,PUBLIC CONSULTING GROUP LLC  c/o MultiState Associates Inc.,6000.0,0.0,6000.0,0.0,0.0,0.0,0.0,0.0,0.0,0.0,6000.0,51412.0,Direct,,,View report (https://accesshub.pdc.wa.gov/node/85228),,,
105048,86334-51412,86334,FE,25651,Insight Strategic Partners LLC,Employer,51412,PUBLIC CONSULTING GROUP LLC  c/o MultiState Associates Inc.,21-Dec,3/3/2022,16823.0,PUBLIC CONSULTING GROUP LLC  c/o MultiState Associates Inc.,6000.0,0.0,6000.0,0.0,0.0,0.0,0.0,0.0,0.0,0.0,6000.0,51412.0,Direct,,,View report (https://accesshub.pdc.wa.gov/node/86334),,,
105049,87306-59427,87306,FE,59426,Richard B Chisa,Employer,59427,PUBLIC SCHOOL EMPLOYEES OF WA,22-Feb,3/3/2022,16824.0,PUBLIC SCHOOL EMPLOYEES OF WA,20156.4,0.0,20156.4,126.16,0.0,15096.93,0.0,0.0,0.0,15223.09,35379.49,59427.0,Direct,,,View report (https://accesshub.pdc.wa.gov/node/87306),Education,Unknown,Unknown
105050,76110-25657,76110,FE,25651,Insight Strategic Partners LLC,Employer,25657,PUGET SOUND ENERGY INC,21-Jan,3/3/2022,16828.0,PUGET SOUND ENERGY INC,11500.0,0.0,11500.0,0.0,0.0,0.0,0.0,0.0,0.0,0.0,11500.0,25657.0,Direct,,,View report (https://accesshub.pdc.wa.gov/node/76110),Energy and utilities,Energy,Energy & Environment
105051,80349-25657,80349,FE,25651,Insight Strategic Partners LLC,Employer,25657,PUGET SOUND ENERGY INC,21-May,3/3/2022,16828.0,PUGET SOUND ENERGY INC,11500.0,0.0,11500.0,0.0,0.0,0.0,0.0,0.0,0.0,0.0,11500.0,25657.0,Direct,,,View report (https://accesshub.pdc.wa.gov/node/80349),Energy and utilities,Energy,Energy & Environment
105052,81504-25657,81504,FE,25651,Insight Strategic Partners LLC,Employer,25657,PUGET SOUND ENERGY INC,21-Jun,3/3/2022,16828.0,PUGET SOUND ENERGY INC,11500.0,0.0,11500.0,0.0,0.0,0.0,0.0,0.0,0.0,0.0,11500.0,25657.0,Direct,,,View report (https://accesshub.pdc.wa.gov/node/81504),Energy and utilities,Energy,Energy & Environment
105053,81854-25657,81854,FE,25651,Insight Strategic Partners LLC,Employer,25657,PUGET SOUND ENERGY INC,21-Jul,3/3/2022,16828.0,PUGET SOUND ENERGY INC,11500.0,0.0,11500.0,0.0,0.0,0.0,0.0,0.0,0.0,0.0,11500.0,25657.0,Direct,,,View report (https://accesshub.pdc.wa.gov/node/81854),Energy and utilities,Energy,Energy & Environment
105054,82444-25657,82444,FE,25651,Insight Strategic Partners LLC,Employer,25657,PUGET SOUND ENERGY INC,21-Aug,3/3/2022,16828.0,PUGET SOUND ENERGY INC,11500.0,0.0,11500.0,0.0,0.0,0.0,0.0,0.0,0.0,0.0,11500.0,25657.0,Direct,,,View report (https://accesshub.pdc.wa.gov/node/82444),Energy and utilities,Energy,Energy & Environment
105055,83751-25657,83751,FE,25651,Insight Strategic Partners LLC,Employer,25657,PUGET SOUND ENERGY INC,21-Sep,3/3/2022,16828.0,PUGET SOUND ENERGY INC,11500.0,0.0,11500.0,0.0,0.0,0.0,0.0,0.0,0.0,0.0,11500.0,25657.0,Direct,,,View report (https://accesshub.pdc.wa.gov/node/83751),Energy and utilities,Energy,Energy & Environment
105056,84477-25657,84477,FE,25651,Insight Strategic Partners LLC,Employer,25657,PUGET SOUND ENERGY INC,21-Oct,3/3/2022,16828.0,PUGET SOUND ENERGY INC,11500.0,0.0,11500.0,0.0,0.0,0.0,0.0,0.0,0.0,0.0,11500.0,25657.0,Direct,,,View report (https://accesshub.pdc.wa.gov/node/84477),Energy and utilities,Energy,Energy & Environment
105057,85228-25657,85228,FE,25651,Insight Strategic Partners LLC,Employer,25657,PUGET SOUND ENERGY INC,21-Nov,3/3/2022,16828.0,PUGET SOUND ENERGY INC,11500.0,0.0,11500.0,0.0,0.0,0.0,0.0,0.0,0.0,0.0,11500.0,25657.0,Direct,,,View report (https://accesshub.pdc.wa.gov/node/85228),Energy and utilities,Energy,Energy & Environment
105058,86334-25657,86334,FE,25651,Insight Strategic Partners LLC,Employer,25657,PUGET SOUND ENERGY INC,21-Dec,3/3/2022,16828.0,PUGET SOUND ENERGY INC,11500.0,0.0,11500.0,0.0,0.0,0.0,0.0,0.0,0.0,0.0,11500.0,25657.0,Direct,,,View report (https://accesshub.pdc.wa.gov/node/86334),Energy and utilities,Energy,Energy & Environment
105059,76110-40091,76110,FE,25651,Insight Strategic Partners LLC,Employer,40091,SALTCHUK RESOURCES INC,21-Jan,3/3/2022,16869.0,SALTCHUK RESOURCES INC,6000.0,0.0,6000.0,0.0,0.0,0.0,0.0,0.0,0.0,0.0,6000.0,40091.0,Direct,,,View report (https://accesshub.pdc.wa.gov/node/76110),Transportation,Transportation,"Transportation, Governor's Office"
105060,80349-40091,80349,FE,25651,Insight Strategic Partners LLC,Employer,40091,SALTCHUK RESOURCES INC,21-May,3/3/2022,16869.0,SALTCHUK RESOURCES INC,7500.0,0.0,7500.0,0.0,0.0,0.0,0.0,0.0,0.0,0.0,7500.0,40091.0,Direct,,,View report (https://accesshub.pdc.wa.gov/node/80349),Transportation,Transportation,"Transportation, Governor's Office"
105061,81504-40091,81504,FE,25651,Insight Strategic Partners LLC,Employer,40091,SALTCHUK RESOURCES INC,21-Jun,3/3/2022,16869.0,SALTCHUK RESOURCES INC,7500.0,0.0,7500.0,0.0,0.0,0.0,0.0,0.0,0.0,0.0,7500.0,40091.0,Direct,,,View report (https://accesshub.pdc.wa.gov/node/81504),Transportation,Transportation,"Transportation, Governor's Office"
105062,81854-40091,81854,FE,25651,Insight Strategic Partners LLC,Employer,40091,SALTCHUK RESOURCES INC,21-Jul,3/3/2022,16869.0,SALTCHUK RESOURCES INC,7500.0,0.0,7500.0,0.0,0.0,0.0,0.0,0.0,0.0,0.0,7500.0,40091.0,Direct,,,View report (https://accesshub.pdc.wa.gov/node/81854),Transportation,Transportation,"Transportation, Governor's Office"
105063,82444-40091,82444,FE,25651,Insight Strategic Partners LLC,Employer,40091,SALTCHUK RESOURCES INC,21-Aug,3/3/2022,16869.0,SALTCHUK RESOURCES INC,7500.0,0.0,7500.0,0.0,0.0,0.0,0.0,0.0,0.0,0.0,7500.0,40091.0,Direct,,,View report (https://accesshub.pdc.wa.gov/node/82444),Transportation,Transportation,"Transportation, Governor's Office"
105064,83751-40091,83751,FE,25651,Insight Strategic Partners LLC,Employer,40091,SALTCHUK RESOURCES INC,21-Sep,3/3/2022,16869.0,SALTCHUK RESOURCES INC,6000.0,0.0,6000.0,0.0,0.0,0.0,0.0,0.0,0.0,0.0,6000.0,40091.0,Direct,,,View report (https://accesshub.pdc.wa.gov/node/83751),Transportation,Transportation,"Transportation, Governor's Office"
105065,84477-40091,84477,FE,25651,Insight Strategic Partners LLC,Employer,40091,SALTCHUK RESOURCES INC,21-Oct,3/3/2022,16869.0,SALTCHUK RESOURCES INC,6000.0,0.0,6000.0,0.0,0.0,0.0,0.0,0.0,0.0,0.0,6000.0,40091.0,Direct,,,View report (https://accesshub.pdc.wa.gov/node/84477),Transportation,Transportation,"Transportation, Governor's Office"
105066,85228-40091,85228,FE,25651,Insight Strategic Partners LLC,Employer,40091,SALTCHUK RESOURCES INC,21-Nov,3/3/2022,16869.0,SALTCHUK RESOURCES INC,6000.0,0.0,6000.0,0.0,0.0,0.0,0.0,0.0,0.0,0.0,6000.0,40091.0,Direct,,,View report (https://accesshub.pdc.wa.gov/node/85228),Transportation,Transportation,"Transportation, Governor's Office"
105067,86334-40091,86334,FE,25651,Insight Strategic Partners LLC,Employer,40091,SALTCHUK RESOURCES INC,21-Dec,3/3/2022,16869.0,SALTCHUK RESOURCES INC,6000.0,0.0,6000.0,0.0,0.0,0.0,0.0,0.0,0.0,0.0,6000.0,40091.0,Direct,,,View report (https://accesshub.pdc.wa.gov/node/86334),Transportation,Transportation,"Transportation, Governor's Office"
105072,89585-18796,89585,FE,17575,DAVOR GJURASIC,Employer,18796,SNOHOMISH CO PTBA CORP,22-Feb,3/3/2022,16923.0,SNOHOMISH CO PTBA CORP,7083.33,0.0,7083.33,0.0,0.0,0.0,0.0,0.0,0.0,0.0,7083.33,18796.0,Direct,,,View report (https://accesshub.pdc.wa.gov/node/89585),Transportation,Transportation Funding,House and Senate Transportation Committees
105073,88048-43382,88048,FE,38463,Cadena Consulting,Employer,43382,SOUTHERN GLAZER'S WINE & SPIRITS,22-Jan,3/3/2022,16935.0,SOUTHERN GLAZER'S WINE & SPIRITS,4000.0,0.0,4000.0,0.0,0.0,0.0,0.0,0.0,0.0,0.0,4000.0,43382.0,Direct,,,View report (https://accesshub.pdc.wa.gov/node/88048),Business and consumer affairs,1734,house and senate members
105074,89585-18797,89585,FE,17575,DAVOR GJURASIC,Employer,18797,Swinomish Indian Tribal Community,22-Feb,3/3/2022,16963.0,Swinomish Indian Tribal Community,7500.0,0.0,7500.0,0.0,0.0,0.0,0.0,0.0,0.0,0.0,7500.0,18797.0,Direct,,,View report (https://accesshub.pdc.wa.gov/node/89585),Environmental Affairs - natural resources - parks,"Salmon Recovery, Transportation funding","Ways and Means, Appropriations, Transportation, Agriculture Water Natural Resources and Parks, Environment and Energy, Rural Development Agriculture and Natural Resources"
105075,76110-57163,76110,FE,25651,Insight Strategic Partners LLC,Employer,57163,TALGO INC,21-Jan,3/3/2022,16971.0,TALGO INC,5000.0,0.0,5000.0,0.0,0.0,0.0,0.0,0.0,0.0,0.0,5000.0,57163.0,Direct,,,View report (https://accesshub.pdc.wa.gov/node/76110),Transportation,Transportation,"Department of Transportation, Governor's Office"
105076,89569-19461,89569,FE,17895,PLAUCHE & CARR LLP*,Employer,19461,TROUT UNLIMITED,22-Feb,3/3/2022,16995.0,TROUT UNLIMITED,245.0,0.0,245.0,0.0,0.0,0.0,0.0,0.0,0.0,0.0,245.0,19461.0,Direct,,,View report (https://accesshub.pdc.wa.gov/node/89569),Environmental Affairs - natural resources - parks,State Operating Budget,"Rep. Dent, Rep. Ybarra"
105077,88048-89445,88048,FE,38463,Cadena Consulting,Employer,89445,VIRGINIA MASON FRANCISCAN HEALTH,22-Jan,3/3/2022,17037.0,VIRGINIA MASON FRANCISCAN HEALTH,3500.0,0.0,3500.0,0.0,0.0,0.0,0.0,0.0,0.0,0.0,3500.0,89445.0,Direct,,,View report (https://accesshub.pdc.wa.gov/node/88048),,,
105078,88048-83605,88048,FE,38463,Cadena Consulting,Employer,83605,OPTOMETRIC PHYSICIANS OF WA,22-Jan,3/3/2022,17057.0,OPTOMETRIC PHYSICIANS OF WA,4000.0,0.0,4000.0,0.0,0.0,0.0,0.0,0.0,0.0,0.0,4000.0,83605.0,Direct,,,View report (https://accesshub.pdc.wa.gov/node/88048),Health Care,5542,house and senate members
105079,76110-60371,76110,FE,25651,Insight Strategic Partners LLC,Employer,60371,WA ACADEMY OF PHYSICIAN ASSISTANTS,21-Jan,3/3/2022,17058.0,WA ACADEMY OF PHYSICIAN ASSISTANTS,5000.0,0.0,5000.0,0.0,0.0,0.0,0.0,0.0,0.0,0.0,5000.0,60371.0,Direct,,,View report (https://accesshub.pdc.wa.gov/node/76110),Health Care,Health Care,Health Care
105080,80349-60371,80349,FE,25651,Insight Strategic Partners LLC,Employer,60371,WA ACADEMY OF PHYSICIAN ASSISTANTS,21-May,3/3/2022,17058.0,WA ACADEMY OF PHYSICIAN ASSISTANTS,5000.0,0.0,5000.0,0.0,0.0,0.0,0.0,0.0,0.0,0.0,5000.0,60371.0,Direct,,,View report (https://accesshub.pdc.wa.gov/node/80349),Health Care,Health Care,Health Care
105081,81504-60371,81504,FE,25651,Insight Strategic Partners LLC,Employer,60371,WA ACADEMY OF PHYSICIAN ASSISTANTS,21-Jun,3/3/2022,17058.0,WA ACADEMY OF PHYSICIAN ASSISTANTS,5000.0,0.0,5000.0,0.0,0.0,0.0,0.0,0.0,0.0,0.0,5000.0,60371.0,Direct,,,View report (https://accesshub.pdc.wa.gov/node/81504),Health Care,Health Care,"Health Care, Medical Commission, Dept of Health"
105082,81854-60371,81854,FE,25651,Insight Strategic Partners LLC,Employer,60371,WA ACADEMY OF PHYSICIAN ASSISTANTS,21-Jul,3/3/2022,17058.0,WA ACADEMY OF PHYSICIAN ASSISTANTS,5000.0,0.0,5000.0,0.0,0.0,0.0,0.0,0.0,0.0,0.0,5000.0,60371.0,Direct,,,View report (https://accesshub.pdc.wa.gov/node/81854),Health Care,Health Care,"Health Care, Medical Commission, Dept of Health"
105083,82444-60371,82444,FE,25651,Insight Strategic Partners LLC,Employer,60371,WA ACADEMY OF PHYSICIAN ASSISTANTS,21-Aug,3/3/2022,17058.0,WA ACADEMY OF PHYSICIAN ASSISTANTS,5000.0,0.0,5000.0,0.0,0.0,0.0,0.0,0.0,0.0,0.0,5000.0,60371.0,Direct,,,View report (https://accesshub.pdc.wa.gov/node/82444),Health Care,Health Care,"Health Care, Medical Commission, Dept of Health"
105084,83751-60371,83751,FE,25651,Insight Strategic Partners LLC,Employer,60371,WA ACADEMY OF PHYSICIAN ASSISTANTS,21-Sep,3/3/2022,17058.0,WA ACADEMY OF PHYSICIAN ASSISTANTS,5000.0,0.0,5000.0,0.0,0.0,0.0,0.0,0.0,0.0,0.0,5000.0,60371.0,Direct,,,View report (https://accesshub.pdc.wa.gov/node/83751),Health Care,Health Care,"Health Care, Medical Commission, Dept of Health"
105085,84477-60371,84477,FE,25651,Insight Strategic Partners LLC,Employer,60371,WA ACADEMY OF PHYSICIAN ASSISTANTS,21-Oct,3/3/2022,17058.0,WA ACADEMY OF PHYSICIAN ASSISTANTS,5000.0,0.0,5000.0,0.0,0.0,0.0,0.0,0.0,0.0,0.0,5000.0,60371.0,Direct,,,View report (https://accesshub.pdc.wa.gov/node/84477),Health Care,Health Care,"Health Care, Medical Commission, Dept of Health"
105086,85228-60371,85228,FE,25651,Insight Strategic Partners LLC,Employer,60371,WA ACADEMY OF PHYSICIAN ASSISTANTS,21-Nov,3/3/2022,17058.0,WA ACADEMY OF PHYSICIAN ASSISTANTS,5000.0,0.0,5000.0,0.0,0.0,0.0,0.0,0.0,0.0,0.0,5000.0,60371.0,Direct,,,View report (https://accesshub.pdc.wa.gov/node/85228),Health Care,Health Care,"Health Care, Medical Commission, Dept of Health"
105087,86334-60371,86334,FE,25651,Insight Strategic Partners LLC,Employer,60371,WA ACADEMY OF PHYSICIAN ASSISTANTS,21-Dec,3/3/2022,17058.0,WA ACADEMY OF PHYSICIAN ASSISTANTS,5000.0,0.0,5000.0,0.0,0.0,0.0,0.0,0.0,0.0,0.0,5000.0,60371.0,Direct,,,View report (https://accesshub.pdc.wa.gov/node/86334),Health Care,Health Care,"Health Care, Medical Commission, Dept of Health"
105088,89570-19764,89570,FE,18026,Michele Thomas,Employer,19764,WA LOW-INCOME HOUSING ALLIANCE,22-Feb,3/3/2022,17143.0,WA LOW-INCOME HOUSING ALLIANCE,502.0,0.0,502.0,0.0,0.0,0.0,0.0,0.0,0.0,0.0,502.0,19764.0,Direct,,,View report (https://accesshub.pdc.wa.gov/node/89570),Human services,Various affordable housing and homelessness issues,"Various lawmakers, Dept of Commerce"
105089,89550-86630,89550,FE,86629,"Green Corps, Inc.",Employer,86630,WA PUBLIC INTEREST RESEARCH GROUP (Nicole Walter),22-Feb,3/3/2022,17172.0,WA PUBLIC INTEREST RESEARCH GROUP,638.64,0.0,638.64,0.0,0.0,0.0,0.0,0.0,0.0,0.0,638.64,86630.0,Subcontract,83637.0,Nicole Walter,View report (https://accesshub.pdc.wa.gov/node/89550),,,
105090,89577-38993,89577,FE,17372,BRUCE K BECKETT,Employer,38993,WA RETAIL ASSN,22-Feb,3/3/2022,17180.0,WA RETAIL ASSN,4800.0,0.0,4800.0,0.0,0.0,0.0,0.0,0.0,0.0,0.0,4800.0,38993.0,Direct,,,View report (https://accesshub.pdc.wa.gov/node/89577),Labor,"5873, Unemployment Insurance; 5649, paid family leave; 1795 non disclosure agreements; 5761 wage information; warehouse legislation","House/Senate Labor Committees; Dept. of Labor and Industries; ESD, Unemployment Insurance Advisory Committee,"
105091,89594-19153,89594,FE,17754,KENT LOPEZ,Employer,19153,WA RURAL ELECTRIC CO-OP ASSN,22-Feb,3/3/2022,17181.0,WA RURAL ELECTRIC CO-OP ASSN,8000.0,0.0,8000.0,0.0,0.0,0.0,0.0,0.0,0.0,0.0,8000.0,19153.0,Direct,,,View report (https://accesshub.pdc.wa.gov/node/89594),Energy and utilities,5803,"Senate EET, House E&E"
105092,89571-19018,89571,FE,17670,ANDREA IMLER,Employer,19018,Washington Trails Association,22-Feb,3/3/2022,17200.0,Washington Trails Association,2600.0,0.0,2600.0,0.0,0.0,0.0,0.0,0.0,0.0,0.0,2600.0,19018.0,Direct,,,View report (https://accesshub.pdc.wa.gov/node/89571),Environmental Affairs - natural resources - parks,Reducing Maintenance Backlog Budget Request,"House and Senate members; Rep. Ryu, Sen. Warnick, Sen. Nobles"
105093,76110-72558,76110,FE,25651,Insight Strategic Partners LLC,Employer,72558,WA TRUST FOR HISTORIC PRESERVATION,21-Jan,3/3/2022,17202.0,WA TRUST FOR HISTORIC PRESERVATION,2000.0,0.0,2000.0,0.0,0.0,0.0,0.0,0.0,0.0,0.0,2000.0,72558.0,Direct,,,View report (https://accesshub.pdc.wa.gov/node/76110),Business and consumer affairs,Economic Development,Economic Development and Capital Budget
105094,80349-72558,80349,FE,25651,Insight Strategic Partners LLC,Employer,72558,WA TRUST FOR HISTORIC PRESERVATION,21-May,3/3/2022,17202.0,WA TRUST FOR HISTORIC PRESERVATION,2000.0,0.0,2000.0,0.0,0.0,0.0,0.0,0.0,0.0,0.0,2000.0,72558.0,Direct,,,View report (https://accesshub.pdc.wa.gov/node/80349),Business and consumer affairs,Economic Development,Economic Development and Capital Budget
105095,81504-72558,81504,FE,25651,Insight Strategic Partners LLC,Employer,72558,WA TRUST FOR HISTORIC PRESERVATION,21-Jun,3/3/2022,17202.0,WA TRUST FOR HISTORIC PRESERVATION,2000.0,0.0,2000.0,0.0,0.0,0.0,0.0,0.0,0.0,0.0,2000.0,72558.0,Direct,,,View report (https://accesshub.pdc.wa.gov/node/81504),Business and consumer affairs,Economic Development,Economic Development and Capital Budget
105096,81854-72558,81854,FE,25651,Insight Strategic Partners LLC,Employer,72558,WA TRUST FOR HISTORIC PRESERVATION,21-Jul,3/3/2022,17202.0,WA TRUST FOR HISTORIC PRESERVATION,2000.0,0.0,2000.0,0.0,0.0,0.0,0.0,0.0,0.0,0.0,2000.0,72558.0,Direct,,,View report (https://accesshub.pdc.wa.gov/node/81854),Business and consumer affairs,Economic Development,Economic Development and Capital Budget
105097,82444-72558,82444,FE,25651,Insight Strategic Partners LLC,Employer,72558,WA TRUST FOR HISTORIC PRESERVATION,21-Aug,3/3/2022,17202.0,WA TRUST FOR HISTORIC PRESERVATION,2000.0,0.0,2000.0,0.0,0.0,0.0,0.0,0.0,0.0,0.0,2000.0,72558.0,Direct,,,View report (https://accesshub.pdc.wa.gov/node/82444),Business and consumer affairs,Economic Development,Economic Development and Capital Budget
105098,83751-72558,83751,FE,25651,Insight Strategic Partners LLC,Employer,72558,WA TRUST FOR HISTORIC PRESERVATION,21-Sep,3/3/2022,17202.0,WA TRUST FOR HISTORIC PRESERVATION,2000.0,0.0,2000.0,0.0,0.0,0.0,0.0,0.0,0.0,0.0,2000.0,72558.0,Direct,,,View report (https://accesshub.pdc.wa.gov/node/83751),Business and consumer affairs,Economic Development,Economic Development and Capital Budget
105099,84477-72558,84477,FE,25651,Insight Strategic Partners LLC,Employer,72558,WA TRUST FOR HISTORIC PRESERVATION,21-Oct,3/3/2022,17202.0,WA TRUST FOR HISTORIC PRESERVATION,2000.0,0.0,2000.0,0.0,0.0,0.0,0.0,0.0,0.0,0.0,2000.0,72558.0,Direct,,,View report (https://accesshub.pdc.wa.gov/node/84477),Business and consumer affairs,Economic Development,Economic Development and Capital Budget
105100,85228-72558,85228,FE,25651,Insight Strategic Partners LLC,Employer,72558,WA TRUST FOR HISTORIC PRESERVATION,21-Nov,3/3/2022,17202.0,WA TRUST FOR HISTORIC PRESERVATION,2000.0,0.0,2000.0,0.0,0.0,0.0,0.0,0.0,0.0,0.0,2000.0,72558.0,Direct,,,View report (https://accesshub.pdc.wa.gov/node/85228),Business and consumer affairs,Economic Development,Economic Development and Capital Budget
105101,86334-72558,86334,FE,25651,Insight Strategic Partners LLC,Employer,72558,WA TRUST FOR HISTORIC PRESERVATION,21-Dec,3/3/2022,17202.0,WA TRUST FOR HISTORIC PRESERVATION,2000.0,0.0,2000.0,0.0,0.0,0.0,0.0,0.0,0.0,0.0,2000.0,72558.0,Direct,,,View report (https://accesshub.pdc.wa.gov/node/86334),Business and consumer affairs,Economic Development,Economic Development and Capital Budget
105102,76110-25653,76110,FE,25651,Insight Strategic Partners LLC,Employer,25653,WA TECHNOLOGY INDUSTRY ASSN,21-Jan,3/3/2022,17203.0,WA TECHNOLOGY INDUSTRY ASSN,4000.0,-4000.0,0.0,0.0,0.0,0.0,0.0,0.0,0.0,0.0,0.0,25653.0,Direct,,,View report (https://accesshub.pdc.wa.gov/node/76110),Technology,Technology,Technology
105103,80349-25653,80349,FE,25651,Insight Strategic Partners LLC,Employer,25653,WA TECHNOLOGY INDUSTRY ASSN,21-May,3/3/2022,17203.0,WA TECHNOLOGY INDUSTRY ASSN,4000.0,-4000.0,0.0,0.0,0.0,0.0,0.0,0.0,0.0,0.0,0.0,25653.0,Direct,,,View report (https://accesshub.pdc.wa.gov/node/80349),Technology,Technology,Technology
105104,81504-25653,81504,FE,25651,Insight Strategic Partners LLC,Employer,25653,WA TECHNOLOGY INDUSTRY ASSN,21-Jun,3/3/2022,17203.0,WA TECHNOLOGY INDUSTRY ASSN,4000.0,-4000.0,0.0,0.0,0.0,0.0,0.0,0.0,0.0,0.0,0.0,25653.0,Direct,,,View report (https://accesshub.pdc.wa.gov/node/81504),Technology,Technology,Technology
105105,81854-25653,81854,FE,25651,Insight Strategic Partners LLC,Employer,25653,WA TECHNOLOGY INDUSTRY ASSN,21-Jul,3/3/2022,17203.0,WA TECHNOLOGY INDUSTRY ASSN,4000.0,-4000.0,0.0,0.0,0.0,0.0,0.0,0.0,0.0,0.0,0.0,25653.0,Direct,,,View report (https://accesshub.pdc.wa.gov/node/81854),Technology,Technology,Technology
105106,82444-25653,82444,FE,25651,Insight Strategic Partners LLC,Employer,25653,WA TECHNOLOGY INDUSTRY ASSN,21-Aug,3/3/2022,17203.0,WA TECHNOLOGY INDUSTRY ASSN,4000.0,-4000.0,0.0,0.0,0.0,0.0,0.0,0.0,0.0,0.0,0.0,25653.0,Direct,,,View report (https://accesshub.pdc.wa.gov/node/82444),Technology,Technology,Technology
105107,83751-25653,83751,FE,25651,Insight Strategic Partners LLC,Employer,25653,WA TECHNOLOGY INDUSTRY ASSN,21-Sep,3/3/2022,17203.0,WA TECHNOLOGY INDUSTRY ASSN,4000.0,-4000.0,0.0,0.0,0.0,0.0,0.0,0.0,0.0,0.0,0.0,25653.0,Direct,,,View report (https://accesshub.pdc.wa.gov/node/83751),Technology,Technology,Technology
105108,84477-25653,84477,FE,25651,Insight Strategic Partners LLC,Employer,25653,WA TECHNOLOGY INDUSTRY ASSN,21-Oct,3/3/2022,17203.0,WA TECHNOLOGY INDUSTRY ASSN,4000.0,-4000.0,0.0,0.0,0.0,0.0,0.0,0.0,0.0,0.0,0.0,25653.0,Direct,,,View report (https://accesshub.pdc.wa.gov/node/84477),Technology,Technology,Technology
105109,85228-25653,85228,FE,25651,Insight Strategic Partners LLC,Employer,25653,WA TECHNOLOGY INDUSTRY ASSN,21-Nov,3/3/2022,17203.0,WA TECHNOLOGY INDUSTRY ASSN,4000.0,-4000.0,0.0,0.0,0.0,0.0,0.0,0.0,0.0,0.0,0.0,25653.0,Direct,,,View report (https://accesshub.pdc.wa.gov/node/85228),Technology,Technology,Technology
105110,86334-25653,86334,FE,25651,Insight Strategic Partners LLC,Employer,25653,WA TECHNOLOGY INDUSTRY ASSN,21-Dec,3/3/2022,17203.0,WA TECHNOLOGY INDUSTRY ASSN,4000.0,-4000.0,0.0,0.0,0.0,0.0,0.0,0.0,0.0,0.0,0.0,25653.0,Direct,,,View report (https://accesshub.pdc.wa.gov/node/86334),Technology,Technology,Technology
105111,86276-84282,86276,FE,84281,Ashlen Strong,Employer,84282,WA ST HOSPITAL ASSN,21-Dec,3/3/2022,17252.0,WA ST HOSPITAL ASSN,459.38,0.0,459.38,0.0,0.0,0.0,0.0,0.0,0.0,0.0,459.38,84282.0,Direct,,,View report (https://accesshub.pdc.wa.gov/node/86276),Health Care,HB 1272,Department of Health
105112,89591-84282,89591,FE,84281,Ashlen Strong,Employer,84282,WA ST HOSPITAL ASSN,22-Jan,3/3/2022,17252.0,WA ST HOSPITAL ASSN,350.0,0.0,350.0,0.0,0.0,0.0,0.0,0.0,0.0,0.0,350.0,84282.0,Direct,,,View report (https://accesshub.pdc.wa.gov/node/89591),Health Care,HB 1868,"Sens. C. Wilson, Das; Reps. Champman, Ormsby, Orcutt, Stonier, Wagoner, Berry, Springer, Sullivan"
105113,88048-62168,88048,FE,38463,Cadena Consulting,Employer,62168,"WASTE MANAGEMENT OF WASHINGTON, INC. (BOSWELL CONSULTING*)",22-Jan,3/3/2022,17260.0,"WASTE MANAGEMENT OF WASHINGTON, INC.",1500.0,0.0,1500.0,0.0,0.0,0.0,0.0,0.0,0.0,0.0,1500.0,62168.0,Subcontract,17398.0,BOSWELL CONSULTING*,View report (https://accesshub.pdc.wa.gov/node/88048),,,
105114,89585-18798,89585,FE,17575,DAVOR GJURASIC,Employer,18798,WA ST PATROL TROOPERS ASSN,22-Feb,3/3/2022,17278.0,WA ST PATROL TROOPERS ASSN,7083.33,0.0,7083.33,0.0,0.0,0.0,0.0,0.0,0.0,0.0,7083.33,18798.0,Direct,,,View report (https://accesshub.pdc.wa.gov/node/89585),Transportation,"1785, 2057",House and Senate Transportation Committee
105115,88048-45563,88048,FE,38463,Cadena Consulting,Employer,45563,WA ST TRANSIT ASSN,22-Jan,3/3/2022,17288.0,WA ST TRANSIT ASSN,4400.0,0.0,4400.0,0.0,0.0,0.0,0.0,0.0,0.0,0.0,4400.0,45563.0,Direct,,,View report (https://accesshub.pdc.wa.gov/node/88048),Transportation,"5974, 5975, transportation budget",house and senate members
105116,88048-43384,88048,FE,38463,Cadena Consulting,Employer,43384,WA ST UNIVERSITY,22-Jan,3/3/2022,17290.0,WA ST UNIVERSITY,1500.0,0.0,1500.0,0.0,0.0,0.0,0.0,0.0,0.0,0.0,1500.0,43384.0,Direct,,,View report (https://accesshub.pdc.wa.gov/node/88048),Higher education,"higher education funding, 1621, 1622",house and senate members
105117,89574-82677,89574,FE,70469,Johns-Brown Governmental Relations,Employer,82677,Quaker Voice on Washington Public Policy,22-Feb,3/3/2022,27328.0,Quaker Voice on Washington Public Policy,2700.0,0.0,2700.0,0.0,0.0,0.0,0.0,0.0,0.0,0.0,2700.0,82677.0,Direct,,,View report (https://accesshub.pdc.wa.gov/node/89574),,,
105118,76110-58644,76110,FE,25651,Insight Strategic Partners LLC,Employer,58644,Acadia Healthcare,21-Jan,3/3/2022,27349.0,Acadia Healthcare,6000.0,0.0,6000.0,0.0,0.0,0.0,0.0,0.0,0.0,0.0,6000.0,58644.0,Direct,,,View report (https://accesshub.pdc.wa.gov/node/76110),Health Care,Behavioral Health,"Health care committees, Governor's office, Dept. of Health, HCA"
105119,80349-58644,80349,FE,25651,Insight Strategic Partners LLC,Employer,58644,Acadia Healthcare,21-May,3/3/2022,27349.0,Acadia Healthcare,6000.0,0.0,6000.0,0.0,0.0,0.0,0.0,0.0,0.0,0.0,6000.0,58644.0,Direct,,,View report (https://accesshub.pdc.wa.gov/node/80349),Health Care,Behavioral Health,"Health care committees, Governor's office, Dept. of Health, HCA"
105120,81504-58644,81504,FE,25651,Insight Strategic Partners LLC,Employer,58644,Acadia Healthcare,21-Jun,3/3/2022,27349.0,Acadia Healthcare,6000.0,0.0,6000.0,0.0,0.0,0.0,0.0,0.0,0.0,0.0,6000.0,58644.0,Direct,,,View report (https://accesshub.pdc.wa.gov/node/81504),Health Care,Behavioral Health,"Health care committees, Governor's office, Dept. of Health, HCA"
105121,81854-58644,81854,FE,25651,Insight Strategic Partners LLC,Employer,58644,Acadia Healthcare,21-Jul,3/3/2022,27349.0,Acadia Healthcare,6000.0,0.0,6000.0,0.0,0.0,0.0,0.0,0.0,0.0,0.0,6000.0,58644.0,Direct,,,View report (https://accesshub.pdc.wa.gov/node/81854),Health Care,Behavioral Health,"Health care committees, Governor's office, Dept. of Health, HCA"
105122,82444-58644,82444,FE,25651,Insight Strategic Partners LLC,Employer,58644,Acadia Healthcare,21-Aug,3/3/2022,27349.0,Acadia Healthcare,6000.0,0.0,6000.0,0.0,0.0,0.0,0.0,0.0,0.0,0.0,6000.0,58644.0,Direct,,,View report (https://accesshub.pdc.wa.gov/node/82444),Health Care,Behavioral Health,"Health care committees, Governor's office, Dept. of Health, HCA"
105123,83751-58644,83751,FE,25651,Insight Strategic Partners LLC,Employer,58644,Acadia Healthcare,21-Sep,3/3/2022,27349.0,Acadia Healthcare,6000.0,0.0,6000.0,0.0,0.0,0.0,0.0,0.0,0.0,0.0,6000.0,58644.0,Direct,,,View report (https://accesshub.pdc.wa.gov/node/83751),Health Care,Behavioral Health,"Health care committees, Governor's office, Dept. of Health, HCA"
105124,84477-58644,84477,FE,25651,Insight Strategic Partners LLC,Employer,58644,Acadia Healthcare,21-Oct,3/3/2022,27349.0,Acadia Healthcare,6000.0,0.0,6000.0,0.0,0.0,0.0,0.0,0.0,0.0,0.0,6000.0,58644.0,Direct,,,View report (https://accesshub.pdc.wa.gov/node/84477),Health Care,Behavioral Health,"Health care committees, Governor's office, Dept. of Health, HCA"
105125,85228-58644,85228,FE,25651,Insight Strategic Partners LLC,Employer,58644,Acadia Healthcare,21-Nov,3/3/2022,27349.0,Acadia Healthcare,6000.0,0.0,6000.0,0.0,0.0,0.0,0.0,0.0,0.0,0.0,6000.0,58644.0,Direct,,,View report (https://accesshub.pdc.wa.gov/node/85228),Health Care,Behavioral Health,"Health care committees, Governor's office, Dept. of Health, HCA"
105126,86334-58644,86334,FE,25651,Insight Strategic Partners LLC,Employer,58644,Acadia Healthcare,21-Dec,3/3/2022,27349.0,Acadia Healthcare,6000.0,0.0,6000.0,0.0,0.0,0.0,0.0,0.0,0.0,0.0,6000.0,58644.0,Direct,,,View report (https://accesshub.pdc.wa.gov/node/86334),Health Care,Behavioral Health,"Health care committees, Governor's office, Dept. of Health, HCA"
105127,76110-43858,76110,FE,25651,Insight Strategic Partners LLC,Employer,43858,Seattle Theatre Group,21-Jan,3/3/2022,27353.0,Seattle Theatre Group,1000.0,0.0,1000.0,0.0,0.0,0.0,0.0,0.0,0.0,0.0,1000.0,43858.0,Direct,,,View report (https://accesshub.pdc.wa.gov/node/76110),Technology,Internet ticket sales legislation,"- Environment, Energy & Technology and Innovation, Technology & Economic Development"
105128,80349-43858,80349,FE,25651,Insight Strategic Partners LLC,Employer,43858,Seattle Theatre Group,21-May,3/3/2022,27353.0,Seattle Theatre Group,1000.0,0.0,1000.0,0.0,0.0,0.0,0.0,0.0,0.0,0.0,1000.0,43858.0,Direct,,,View report (https://accesshub.pdc.wa.gov/node/80349),Technology,Internet ticket sales legislation,"- Environment, Energy & Technology and Innovation, Technology & Economic Development"
105129,81504-43858,81504,FE,25651,Insight Strategic Partners LLC,Employer,43858,Seattle Theatre Group,21-Jun,3/3/2022,27353.0,Seattle Theatre Group,1000.0,0.0,1000.0,0.0,0.0,0.0,0.0,0.0,0.0,0.0,1000.0,43858.0,Direct,,,View report (https://accesshub.pdc.wa.gov/node/81504),Technology,Internet ticket sales legislation,"- Environment, Energy & Technology and Innovation, Technology & Economic Development"
105130,81854-43858,81854,FE,25651,Insight Strategic Partners LLC,Employer,43858,Seattle Theatre Group,21-Jul,3/3/2022,27353.0,Seattle Theatre Group,1000.0,0.0,1000.0,0.0,0.0,0.0,0.0,0.0,0.0,0.0,1000.0,43858.0,Direct,,,View report (https://accesshub.pdc.wa.gov/node/81854),Technology,Internet ticket sales legislation,"- Environment, Energy & Technology and Innovation, Technology & Economic Development"
105131,82444-43858,82444,FE,25651,Insight Strategic Partners LLC,Employer,43858,Seattle Theatre Group,21-Aug,3/3/2022,27353.0,Seattle Theatre Group,1000.0,0.0,1000.0,0.0,0.0,0.0,0.0,0.0,0.0,0.0,1000.0,43858.0,Direct,,,View report (https://accesshub.pdc.wa.gov/node/82444),Technology,Internet ticket sales legislation,"- Environment, Energy & Technology and Innovation, Technology & Economic Development"
105132,83751-43858,83751,FE,25651,Insight Strategic Partners LLC,Employer,43858,Seattle Theatre Group,21-Sep,3/3/2022,27353.0,Seattle Theatre Group,1000.0,0.0,1000.0,0.0,0.0,0.0,0.0,0.0,0.0,0.0,1000.0,43858.0,Direct,,,View report (https://accesshub.pdc.wa.gov/node/83751),Technology,Internet ticket sales legislation,"- Environment, Energy & Technology and Innovation, Technology & Economic Development"
105133,84477-43858,84477,FE,25651,Insight Strategic Partners LLC,Employer,43858,Seattle Theatre Group,21-Oct,3/3/2022,27353.0,Seattle Theatre Group,1000.0,0.0,1000.0,0.0,0.0,0.0,0.0,0.0,0.0,0.0,1000.0,43858.0,Direct,,,View report (https://accesshub.pdc.wa.gov/node/84477),Technology,Internet ticket sales legislation,"- Environment, Energy & Technology and Innovation, Technology & Economic Development"
105134,85228-43858,85228,FE,25651,Insight Strategic Partners LLC,Employer,43858,Seattle Theatre Group,21-Nov,3/3/2022,27353.0,Seattle Theatre Group,1000.0,0.0,1000.0,0.0,0.0,0.0,0.0,0.0,0.0,0.0,1000.0,43858.0,Direct,,,View report (https://accesshub.pdc.wa.gov/node/85228),Technology,Internet ticket sales legislation,"- Environment, Energy & Technology and Innovation, Technology & Economic Development"
105135,86334-43858,86334,FE,25651,Insight Strategic Partners LLC,Employer,43858,Seattle Theatre Group,21-Dec,3/3/2022,27353.0,Seattle Theatre Group,1000.0,0.0,1000.0,0.0,0.0,0.0,0.0,0.0,0.0,0.0,1000.0,43858.0,Direct,,,View report (https://accesshub.pdc.wa.gov/node/86334),Technology,Internet ticket sales legislation,"- Environment, Energy & Technology and Innovation, Technology & Economic Development"
105136,89577-29456,89577,FE,17372,BRUCE K BECKETT,Employer,29456,Wenatchee Valley Chamber of Commerce,22-Feb,3/3/2022,28448.0,Wenatchee Valley Chamber of Commerce,3750.0,0.0,3750.0,0.0,0.0,0.0,0.0,0.0,0.0,0.0,3750.0,29456.0,Direct,,,View report (https://accesshub.pdc.wa.gov/node/89577),State government,"SB 5868;housing; SB 5873 unemployment insurance; 1868, Hospitals staffing",House and Senate Fiscal Committees; House and Senate members;
105137,76110-53511,76110,FE,25651,Insight Strategic Partners LLC,Employer,53511,Renewable Energy Group,21-Jan,3/3/2022,30764.0,Renewable Energy Group,6000.0,0.0,6000.0,0.0,0.0,0.0,0.0,0.0,0.0,0.0,6000.0,53511.0,Direct,,,View report (https://accesshub.pdc.wa.gov/node/76110),Energy and utilities,"Energy and Environment, Ecology","Energy and Environment, Ecology"
105138,80349-53511,80349,FE,25651,Insight Strategic Partners LLC,Employer,53511,Renewable Energy Group,21-May,3/3/2022,30764.0,Renewable Energy Group,6000.0,0.0,6000.0,0.0,0.0,0.0,0.0,0.0,0.0,0.0,6000.0,53511.0,Direct,,,View report (https://accesshub.pdc.wa.gov/node/80349),Energy and utilities,"Energy and Environment, Ecology","Energy and Environment, Ecology"
105139,89577-32598,89577,FE,17372,BRUCE K BECKETT,Employer,32598,Port of Port Angeles,22-Feb,3/3/2022,32592.0,Port of Port Angeles,3000.0,0.0,3000.0,0.0,0.0,0.0,0.0,0.0,0.0,0.0,3000.0,32598.0,Direct,,,View report (https://accesshub.pdc.wa.gov/node/89577),State government,Stormwater funding; HB 1700 derelict vessels; SB 5895 MTCA;,"House/Senate Capital Budget; DOE, 24th District delegation; OFM"
105140,76110-36094,76110,FE,25651,Insight Strategic Partners LLC,Employer,36094,"Youth Villages, Inc.",21-Jan,3/3/2022,36043.0,"Youth Villages, Inc.",5000.0,0.0,5000.0,0.0,0.0,0.0,0.0,0.0,0.0,0.0,5000.0,36094.0,Direct,,,View report (https://accesshub.pdc.wa.gov/node/76110),Human services,Human Services,"Appropriations, Ways and Means, DCYF, Office of Homeless Youth"
105141,80349-36094,80349,FE,25651,Insight Strategic Partners LLC,Employer,36094,"Youth Villages, Inc.",21-May,3/3/2022,36043.0,"Youth Villages, Inc.",5000.0,0.0,5000.0,0.0,0.0,0.0,0.0,0.0,0.0,0.0,5000.0,36094.0,Direct,,,View report (https://accesshub.pdc.wa.gov/node/80349),Human services,Human Services,"Appropriations, ways and means, DCYF, Office of Homeless Youth"
105142,81504-36094,81504,FE,25651,Insight Strategic Partners LLC,Employer,36094,"Youth Villages, Inc.",21-Jun,3/3/2022,36043.0,"Youth Villages, Inc.",5000.0,0.0,5000.0,0.0,0.0,0.0,0.0,0.0,0.0,0.0,5000.0,36094.0,Direct,,,View report (https://accesshub.pdc.wa.gov/node/81504),Human services,Human Services,"Appropriations, ways and means, DCYF, Office of Homeless Youth"
105143,81854-36094,81854,FE,25651,Insight Strategic Partners LLC,Employer,36094,"Youth Villages, Inc.",21-Jul,3/3/2022,36043.0,"Youth Villages, Inc.",5000.0,0.0,5000.0,0.0,0.0,0.0,0.0,0.0,0.0,0.0,5000.0,36094.0,Direct,,,View report (https://accesshub.pdc.wa.gov/node/81854),Human services,Human Services,"Appropriations, ways and means, DCYF, Office of Homeless Youth"
105144,82444-36094,82444,FE,25651,Insight Strategic Partners LLC,Employer,36094,"Youth Villages, Inc.",21-Aug,3/3/2022,36043.0,"Youth Villages, Inc.",5000.0,0.0,5000.0,0.0,0.0,0.0,0.0,0.0,0.0,0.0,5000.0,36094.0,Direct,,,View report (https://accesshub.pdc.wa.gov/node/82444),Human services,Human Services,"Appropriations, ways and means, DCYF, Office of Homeless Youth"
105145,83751-36094,83751,FE,25651,Insight Strategic Partners LLC,Employer,36094,"Youth Villages, Inc.",21-Sep,3/3/2022,36043.0,"Youth Villages, Inc.",5000.0,0.0,5000.0,0.0,0.0,0.0,0.0,0.0,0.0,0.0,5000.0,36094.0,Direct,,,View report (https://accesshub.pdc.wa.gov/node/83751),Human services,Human Services,"Appropriations, ways and means, DCYF, Office of Homeless Youth"
105146,84477-36094,84477,FE,25651,Insight Strategic Partners LLC,Employer,36094,"Youth Villages, Inc.",21-Oct,3/3/2022,36043.0,"Youth Villages, Inc.",5000.0,0.0,5000.0,0.0,0.0,0.0,0.0,0.0,0.0,0.0,5000.0,36094.0,Direct,,,View report (https://accesshub.pdc.wa.gov/node/84477),Human services,Human Services,"Appropriations, ways and means, DCYF, Office of Homeless Youth"
105147,85228-36094,85228,FE,25651,Insight Strategic Partners LLC,Employer,36094,"Youth Villages, Inc.",21-Nov,3/3/2022,36043.0,"Youth Villages, Inc.",5000.0,0.0,5000.0,0.0,0.0,0.0,0.0,0.0,0.0,0.0,5000.0,36094.0,Direct,,,View report (https://accesshub.pdc.wa.gov/node/85228),Human services,Human Services,"Appropriations, ways and means, DCYF, Office of Homeless Youth"
105148,86334-36094,86334,FE,25651,Insight Strategic Partners LLC,Employer,36094,"Youth Villages, Inc.",21-Dec,3/3/2022,36043.0,"Youth Villages, Inc.",5000.0,0.0,5000.0,0.0,0.0,0.0,0.0,0.0,0.0,0.0,5000.0,36094.0,Direct,,,View report (https://accesshub.pdc.wa.gov/node/86334),Human services,Human Services,"Appropriations, ways and means, DCYF, Office of Homeless Youth"
105149,76110-62159,76110,FE,25651,Insight Strategic Partners LLC,Employer,62159,Ballmer Giving,21-Jan,3/3/2022,37282.0,Ballmer Giving,6000.0,0.0,6000.0,0.0,0.0,0.0,0.0,0.0,0.0,0.0,6000.0,62159.0,Direct,,,View report (https://accesshub.pdc.wa.gov/node/76110),Education,Early Learning and Childcare,Education
105150,81854-62159,81854,FE,25651,Insight Strategic Partners LLC,Employer,62159,Ballmer Giving,21-Jul,3/3/2022,37282.0,Ballmer Giving,6000.0,0.0,6000.0,0.0,0.0,0.0,0.0,0.0,0.0,0.0,6000.0,62159.0,Direct,,,View report (https://accesshub.pdc.wa.gov/node/81854),Education,Early Learning & Childcare,Education
105151,82444-62159,82444,FE,25651,Insight Strategic Partners LLC,Employer,62159,Ballmer Giving,21-Aug,3/3/2022,37282.0,Ballmer Giving,6000.0,0.0,6000.0,0.0,0.0,0.0,0.0,0.0,0.0,0.0,6000.0,62159.0,Direct,,,View report (https://accesshub.pdc.wa.gov/node/82444),Education,Early Learning & Childcare,Education
105152,83751-62159,83751,FE,25651,Insight Strategic Partners LLC,Employer,62159,Ballmer Giving,21-Sep,3/3/2022,37282.0,Ballmer Giving,6000.0,0.0,6000.0,0.0,0.0,0.0,0.0,0.0,0.0,0.0,6000.0,62159.0,Direct,,,View report (https://accesshub.pdc.wa.gov/node/83751),Education,Early Learning & Childcare,Education
105153,84477-62159,84477,FE,25651,Insight Strategic Partners LLC,Employer,62159,Ballmer Giving,21-Oct,3/3/2022,37282.0,Ballmer Giving,6000.0,0.0,6000.0,0.0,0.0,0.0,0.0,0.0,0.0,0.0,6000.0,62159.0,Direct,,,View report (https://accesshub.pdc.wa.gov/node/84477),Education,Early Learning & Childcare,Education
105154,85228-62159,85228,FE,25651,Insight Strategic Partners LLC,Employer,62159,Ballmer Giving,21-Nov,3/3/2022,37282.0,Ballmer Giving,6000.0,0.0,6000.0,0.0,0.0,0.0,0.0,0.0,0.0,0.0,6000.0,62159.0,Direct,,,View report (https://accesshub.pdc.wa.gov/node/85228),Education,Early Learning & Childcare,Education
105155,86334-62159,86334,FE,25651,Insight Strategic Partners LLC,Employer,62159,Ballmer Giving,21-Dec,3/3/2022,37282.0,Ballmer Giving,6000.0,0.0,6000.0,0.0,0.0,0.0,0.0,0.0,0.0,0.0,6000.0,62159.0,Direct,,,View report (https://accesshub.pdc.wa.gov/node/86334),Education,Early Learning & Childcare,Education
105156,76110-51447,76110,FE,25651,Insight Strategic Partners LLC,Employer,51447,FareStart,21-Jan,3/3/2022,39820.0,FareStart,2500.0,0.0,2500.0,0.0,0.0,0.0,0.0,0.0,0.0,0.0,2500.0,51447.0,Direct,,,View report (https://accesshub.pdc.wa.gov/node/76110),Human services,Operating Funding & Human Services,Budget & Human Services Committees
105157,80349-51447,80349,FE,25651,Insight Strategic Partners LLC,Employer,51447,FareStart,21-May,3/3/2022,39820.0,FareStart,2500.0,0.0,2500.0,0.0,0.0,0.0,0.0,0.0,0.0,0.0,2500.0,51447.0,Direct,,,View report (https://accesshub.pdc.wa.gov/node/80349),Human services,Operating Funding & Human Services,Budget & Human Services Committees
105158,81504-51447,81504,FE,25651,Insight Strategic Partners LLC,Employer,51447,FareStart,21-Jun,3/3/2022,39820.0,FareStart,2500.0,0.0,2500.0,0.0,0.0,0.0,0.0,0.0,0.0,0.0,2500.0,51447.0,Direct,,,View report (https://accesshub.pdc.wa.gov/node/81504),Human services,Operating Funding & Human Services,Budget & Human Services Committees
105159,81854-51447,81854,FE,25651,Insight Strategic Partners LLC,Employer,51447,FareStart,21-Jul,3/3/2022,39820.0,FareStart,2500.0,0.0,2500.0,0.0,0.0,0.0,0.0,0.0,0.0,0.0,2500.0,51447.0,Direct,,,View report (https://accesshub.pdc.wa.gov/node/81854),Human services,Operating Funding & Human Services,Budget & Human Services Committees
105160,82444-51447,82444,FE,25651,Insight Strategic Partners LLC,Employer,51447,FareStart,21-Aug,3/3/2022,39820.0,FareStart,2500.0,0.0,2500.0,0.0,0.0,0.0,0.0,0.0,0.0,0.0,2500.0,51447.0,Direct,,,View report (https://accesshub.pdc.wa.gov/node/82444),Human services,Operating Funding & Human Services,Budget & Human Services Committees
105161,83751-51447,83751,FE,25651,Insight Strategic Partners LLC,Employer,51447,FareStart,21-Sep,3/3/2022,39820.0,FareStart,2500.0,0.0,2500.0,0.0,0.0,0.0,0.0,0.0,0.0,0.0,2500.0,51447.0,Direct,,,View report (https://accesshub.pdc.wa.gov/node/83751),Human services,Operating Funding & Human Services,Budget & Human Services Committees
105162,84477-51447,84477,FE,25651,Insight Strategic Partners LLC,Employer,51447,FareStart,21-Oct,3/3/2022,39820.0,FareStart,2500.0,0.0,2500.0,0.0,0.0,0.0,0.0,0.0,0.0,0.0,2500.0,51447.0,Direct,,,View report (https://accesshub.pdc.wa.gov/node/84477),Human services,Operating Funding & Human Services,Budget & Human Services Committees
105163,85228-51447,85228,FE,25651,Insight Strategic Partners LLC,Employer,51447,FareStart,21-Nov,3/3/2022,39820.0,FareStart,2500.0,0.0,2500.0,0.0,0.0,0.0,0.0,0.0,0.0,0.0,2500.0,51447.0,Direct,,,View report (https://accesshub.pdc.wa.gov/node/85228),Human services,Operating Funding & Human Services,Budget & Human Services Committees
105164,86334-51447,86334,FE,25651,Insight Strategic Partners LLC,Employer,51447,FareStart,21-Dec,3/3/2022,39820.0,FareStart,2500.0,0.0,2500.0,0.0,0.0,0.0,0.0,0.0,0.0,0.0,2500.0,51447.0,Direct,,,View report (https://accesshub.pdc.wa.gov/node/86334),Human services,Operating Funding & Human Services,Budget & Human Services Committees
105165,89585-48629,89585,FE,17575,DAVOR GJURASIC,Employer,48629,CITY OF SEQUIM,22-Feb,3/3/2022,48628.0,CITY OF SEQUIM,4250.0,0.0,4250.0,0.0,0.0,0.0,0.0,0.0,0.0,0.0,4250.0,48629.0,Direct,,,View report (https://accesshub.pdc.wa.gov/node/89585),Transportation,Transportation Funding,House and Senate Transportation Committees
105166,76110-50662,76110,FE,25651,Insight Strategic Partners LLC,Employer,50662,Public Generating Pool,21-Jan,3/3/2022,49482.0,Public Generating Pool,5000.0,0.0,5000.0,0.0,0.0,0.0,0.0,0.0,0.0,0.0,5000.0,50662.0,Direct,,,View report (https://accesshub.pdc.wa.gov/node/76110),Energy and utilities,Energy,"Governor's Office, Commission, Department of Commerce"
105167,80349-50662,80349,FE,25651,Insight Strategic Partners LLC,Employer,50662,Public Generating Pool,21-May,3/3/2022,49482.0,Public Generating Pool,5000.0,0.0,5000.0,0.0,0.0,0.0,0.0,0.0,0.0,0.0,5000.0,50662.0,Direct,,,View report (https://accesshub.pdc.wa.gov/node/80349),Energy and utilities,Energy,"Governor's Office, Commission, Department of Commerce"
105168,81504-50662,81504,FE,25651,Insight Strategic Partners LLC,Employer,50662,Public Generating Pool,21-Jun,3/3/2022,49482.0,Public Generating Pool,5000.0,0.0,5000.0,0.0,0.0,0.0,0.0,0.0,0.0,0.0,5000.0,50662.0,Direct,,,View report (https://accesshub.pdc.wa.gov/node/81504),Energy and utilities,Energy,"Governor's Office, Commission, Department of Commerce"
105169,76110-50584,76110,FE,25651,Insight Strategic Partners LLC,Employer,50584,"Honeywell International, Inc.",21-Jan,3/3/2022,49558.0,"Honeywell International, Inc.",6500.0,0.0,6500.0,0.0,0.0,0.0,0.0,0.0,0.0,0.0,6500.0,50584.0,Direct,,,View report (https://accesshub.pdc.wa.gov/node/76110),Agriculture,"Agriculture, food & safety, general business","Energy and environment. Governors Office, ECY"
105170,80349-50584,80349,FE,25651,Insight Strategic Partners LLC,Employer,50584,"Honeywell International, Inc.",21-May,3/3/2022,49558.0,"Honeywell International, Inc.",6500.0,0.0,6500.0,0.0,0.0,0.0,0.0,0.0,0.0,0.0,6500.0,50584.0,Direct,,,View report (https://accesshub.pdc.wa.gov/node/80349),Agriculture,"Agriculture, food & safety, general business","Energy and environment. Governors Office, ECY"
105171,76110-51838,76110,FE,25651,Insight Strategic Partners LLC,Employer,51838,Everytown for Gun Safety Action Fund,21-Jan,3/3/2022,51477.0,Everytown for Gun Safety Action Fund,11000.0,0.0,11000.0,0.0,0.0,0.0,0.0,0.0,0.0,0.0,11000.0,51838.0,Direct,,,View report (https://accesshub.pdc.wa.gov/node/76110),State government,Gun Responsibility,"Governor's office, law and justice, public safety"
105172,80349-51838,80349,FE,25651,Insight Strategic Partners LLC,Employer,51838,Everytown for Gun Safety Action Fund,21-May,3/3/2022,51477.0,Everytown for Gun Safety Action Fund,11000.0,0.0,11000.0,0.0,0.0,0.0,0.0,0.0,0.0,0.0,11000.0,51838.0,Direct,,,View report (https://accesshub.pdc.wa.gov/node/80349),State government,Gun Responsibility,"Governor's office, law and justice, public safety"
105173,81504-51838,81504,FE,25651,Insight Strategic Partners LLC,Employer,51838,Everytown for Gun Safety Action Fund,21-Jun,3/3/2022,51477.0,Everytown for Gun Safety Action Fund,11000.0,0.0,11000.0,0.0,0.0,0.0,0.0,0.0,0.0,0.0,11000.0,51838.0,Direct,,,View report (https://accesshub.pdc.wa.gov/node/81504),State government,Gun Responsibility,"Governor's office, law and justice, public safety"
105174,81854-51838,81854,FE,25651,Insight Strategic Partners LLC,Employer,51838,Everytown for Gun Safety Action Fund,21-Jul,3/3/2022,51477.0,Everytown for Gun Safety Action Fund,11000.0,0.0,11000.0,0.0,0.0,0.0,0.0,0.0,0.0,0.0,11000.0,51838.0,Direct,,,View report (https://accesshub.pdc.wa.gov/node/81854),State government,Gun Responsibility,"Governor's office, law and justice, public safety"
105175,82444-51838,82444,FE,25651,Insight Strategic Partners LLC,Employer,51838,Everytown for Gun Safety Action Fund,21-Aug,3/3/2022,51477.0,Everytown for Gun Safety Action Fund,11000.0,0.0,11000.0,0.0,0.0,0.0,0.0,0.0,0.0,0.0,11000.0,51838.0,Direct,,,View report (https://accesshub.pdc.wa.gov/node/82444),State government,Gun Responsibility,"Governor's office, law and justice, public safety"
105176,83751-51838,83751,FE,25651,Insight Strategic Partners LLC,Employer,51838,Everytown for Gun Safety Action Fund,21-Sep,3/3/2022,51477.0,Everytown for Gun Safety Action Fund,11000.0,0.0,11000.0,0.0,0.0,0.0,0.0,0.0,0.0,0.0,11000.0,51838.0,Direct,,,View report (https://accesshub.pdc.wa.gov/node/83751),State government,Gun Responsibility,"Governor's office, law and justice, public safety"
105177,84477-51838,84477,FE,25651,Insight Strategic Partners LLC,Employer,51838,Everytown for Gun Safety Action Fund,21-Oct,3/3/2022,51477.0,Everytown for Gun Safety Action Fund,11000.0,0.0,11000.0,0.0,0.0,0.0,0.0,0.0,0.0,0.0,11000.0,51838.0,Direct,,,View report (https://accesshub.pdc.wa.gov/node/84477),State government,Gun Responsibility,"Governor's office, law and justice, public safety"
105178,85228-51838,85228,FE,25651,Insight Strategic Partners LLC,Employer,51838,Everytown for Gun Safety Action Fund,21-Nov,3/3/2022,51477.0,Everytown for Gun Safety Action Fund,11000.0,0.0,11000.0,0.0,0.0,0.0,0.0,0.0,0.0,0.0,11000.0,51838.0,Direct,,,View report (https://accesshub.pdc.wa.gov/node/85228),State government,Gun Responsibility,"Governor's office, law and justice, public safety"
105179,86334-51838,86334,FE,25651,Insight Strategic Partners LLC,Employer,51838,Everytown for Gun Safety Action Fund,21-Dec,3/3/2022,51477.0,Everytown for Gun Safety Action Fund,11000.0,0.0,11000.0,0.0,0.0,0.0,0.0,0.0,0.0,0.0,11000.0,51838.0,Direct,,,View report (https://accesshub.pdc.wa.gov/node/86334),State government,Gun Responsibility,"Governor's office, law and justice, public safety"
105180,89569-52472,89569,FE,17895,PLAUCHE & CARR LLP*,Employer,52472,Center for Sustainable Infrastructure,22-Feb,3/3/2022,52426.0,Center for Sustainable Infrastructure,465.0,0.0,465.0,0.0,0.0,0.0,0.0,0.0,0.0,0.0,465.0,52472.0,Direct,,,View report (https://accesshub.pdc.wa.gov/node/89569),Environmental Affairs - natural resources - parks,State Operating Budget,"Rep. Corry, Sen. Rivers, Sen. Hasegawa"
105181,76110-54810,76110,FE,25651,Insight Strategic Partners LLC,Employer,54810,Blackstone Real Estate Services LLC,21-Jan,3/3/2022,54805.0,Blackstone Real Estate Services LLC,10000.0,0.0,10000.0,0.0,0.0,0.0,0.0,0.0,0.0,0.0,10000.0,54810.0,Direct,,,View report (https://accesshub.pdc.wa.gov/node/76110),Business and consumer affairs,Taxation and housing,"appropriations, ways and means"
105182,80349-54810,80349,FE,25651,Insight Strategic Partners LLC,Employer,54810,Blackstone Real Estate Services LLC,21-May,3/3/2022,54805.0,Blackstone Real Estate Services LLC,10000.0,0.0,10000.0,0.0,0.0,0.0,0.0,0.0,0.0,0.0,10000.0,54810.0,Direct,,,View report (https://accesshub.pdc.wa.gov/node/80349),Business and consumer affairs,Taxation and housing,"appropriations, ways and means"
105183,81504-54810,81504,FE,25651,Insight Strategic Partners LLC,Employer,54810,Blackstone Real Estate Services LLC,21-Jun,3/3/2022,54805.0,Blackstone Real Estate Services LLC,10000.0,0.0,10000.0,0.0,0.0,0.0,0.0,0.0,0.0,0.0,10000.0,54810.0,Direct,,,View report (https://accesshub.pdc.wa.gov/node/81504),Business and consumer affairs,Taxation and housing,"appropriations, ways and means"
105184,81854-54810,81854,FE,25651,Insight Strategic Partners LLC,Employer,54810,Blackstone Real Estate Services LLC,21-Jul,3/3/2022,54805.0,Blackstone Real Estate Services LLC,10000.0,0.0,10000.0,0.0,0.0,0.0,0.0,0.0,0.0,0.0,10000.0,54810.0,Direct,,,View report (https://accesshub.pdc.wa.gov/node/81854),Business and consumer affairs,Taxation and housing,"appropriations, ways and means"
105185,82444-54810,82444,FE,25651,Insight Strategic Partners LLC,Employer,54810,Blackstone Real Estate Services LLC,21-Aug,3/3/2022,54805.0,Blackstone Real Estate Services LLC,10000.0,0.0,10000.0,0.0,0.0,0.0,0.0,0.0,0.0,0.0,10000.0,54810.0,Direct,,,View report (https://accesshub.pdc.wa.gov/node/82444),Business and consumer affairs,Taxation and housing,"appropriations, ways and means"
105186,83751-54810,83751,FE,25651,Insight Strategic Partners LLC,Employer,54810,Blackstone Real Estate Services LLC,21-Sep,3/3/2022,54805.0,Blackstone Real Estate Services LLC,10000.0,0.0,10000.0,0.0,0.0,0.0,0.0,0.0,0.0,0.0,10000.0,54810.0,Direct,,,View report (https://accesshub.pdc.wa.gov/node/83751),Business and consumer affairs,Taxation and housing,"appropriations, ways and means"
105187,84477-54810,84477,FE,25651,Insight Strategic Partners LLC,Employer,54810,Blackstone Real Estate Services LLC,21-Oct,3/3/2022,54805.0,Blackstone Real Estate Services LLC,10000.0,0.0,10000.0,0.0,0.0,0.0,0.0,0.0,0.0,0.0,10000.0,54810.0,Direct,,,View report (https://accesshub.pdc.wa.gov/node/84477),Business and consumer affairs,Taxation and housing,"appropriations, ways and means"
105188,85228-54810,85228,FE,25651,Insight Strategic Partners LLC,Employer,54810,Blackstone Real Estate Services LLC,21-Nov,3/3/2022,54805.0,Blackstone Real Estate Services LLC,10000.0,0.0,10000.0,0.0,0.0,0.0,0.0,0.0,0.0,0.0,10000.0,54810.0,Direct,,,View report (https://accesshub.pdc.wa.gov/node/85228),Business and consumer affairs,Taxation and housing,"appropriations, ways and means"
105189,86334-54810,86334,FE,25651,Insight Strategic Partners LLC,Employer,54810,Blackstone Real Estate Services LLC,21-Dec,3/3/2022,54805.0,Blackstone Real Estate Services LLC,10000.0,0.0,10000.0,0.0,0.0,0.0,0.0,0.0,0.0,0.0,10000.0,54810.0,Direct,,,View report (https://accesshub.pdc.wa.gov/node/86334),Business and consumer affairs,Taxation and housing,"appropriations, ways and means"
105190,88048-59787,88048,FE,38463,Cadena Consulting,Employer,59787,Bellevue Chamber of Commerce,22-Jan,3/3/2022,59665.0,Bellevue Chamber of Commerce,1000.0,0.0,1000.0,0.0,0.0,0.0,0.0,0.0,0.0,0.0,1000.0,59787.0,Direct,,,View report (https://accesshub.pdc.wa.gov/node/88048),Transportation,"1769, 5974, 5975",House and Senate Members
105191,76110-74565,76110,FE,25651,Insight Strategic Partners LLC,Employer,74565,Inmar c/o MulitState Associates Inc.,21-Jan,3/3/2022,59880.0,Inmar c/o MulitState Associates Inc.,10000.0,0.0,10000.0,0.0,0.0,0.0,0.0,0.0,0.0,0.0,10000.0,74565.0,Direct,,,View report (https://accesshub.pdc.wa.gov/node/76110),Health Care,Health Care,Health Care
105192,80349-74565,80349,FE,25651,Insight Strategic Partners LLC,Employer,74565,Inmar c/o MulitState Associates Inc.,21-May,3/3/2022,59880.0,Inmar c/o MulitState Associates Inc.,10000.0,0.0,10000.0,0.0,0.0,0.0,0.0,0.0,0.0,0.0,10000.0,74565.0,Direct,,,View report (https://accesshub.pdc.wa.gov/node/80349),Health Care,Health Care,Health Care
105193,81504-74565,81504,FE,25651,Insight Strategic Partners LLC,Employer,74565,Inmar c/o MulitState Associates Inc.,21-Jun,3/3/2022,59880.0,Inmar c/o MulitState Associates Inc.,10000.0,0.0,10000.0,0.0,0.0,0.0,0.0,0.0,0.0,0.0,10000.0,74565.0,Direct,,,View report (https://accesshub.pdc.wa.gov/node/81504),Health Care,Health Care,Health Care
105194,81854-74565,81854,FE,25651,Insight Strategic Partners LLC,Employer,74565,Inmar c/o MulitState Associates Inc.,21-Jul,3/3/2022,59880.0,Inmar c/o MulitState Associates Inc.,10000.0,0.0,10000.0,0.0,0.0,0.0,0.0,0.0,0.0,0.0,10000.0,74565.0,Direct,,,View report (https://accesshub.pdc.wa.gov/node/81854),Health Care,Health Care,Health Care
105195,82444-74565,82444,FE,25651,Insight Strategic Partners LLC,Employer,74565,Inmar c/o MulitState Associates Inc.,21-Aug,3/3/2022,59880.0,Inmar c/o MulitState Associates Inc.,10000.0,0.0,10000.0,0.0,0.0,0.0,0.0,0.0,0.0,0.0,10000.0,74565.0,Direct,,,View report (https://accesshub.pdc.wa.gov/node/82444),Health Care,Health Care,Health Care
105196,83751-74565,83751,FE,25651,Insight Strategic Partners LLC,Employer,74565,Inmar c/o MulitState Associates Inc.,21-Sep,3/3/2022,59880.0,Inmar c/o MulitState Associates Inc.,10000.0,0.0,10000.0,0.0,0.0,0.0,0.0,0.0,0.0,0.0,10000.0,74565.0,Direct,,,View report (https://accesshub.pdc.wa.gov/node/83751),Health Care,Health Care,Health Care
105197,84477-74565,84477,FE,25651,Insight Strategic Partners LLC,Employer,74565,Inmar c/o MulitState Associates Inc.,21-Oct,3/3/2022,59880.0,Inmar c/o MulitState Associates Inc.,10000.0,0.0,10000.0,0.0,0.0,0.0,0.0,0.0,0.0,0.0,10000.0,74565.0,Direct,,,View report (https://accesshub.pdc.wa.gov/node/84477),Health Care,Health Care,Health Care
105198,85228-74565,85228,FE,25651,Insight Strategic Partners LLC,Employer,74565,Inmar c/o MulitState Associates Inc.,21-Nov,3/3/2022,59880.0,Inmar c/o MulitState Associates Inc.,10000.0,0.0,10000.0,0.0,0.0,0.0,0.0,0.0,0.0,0.0,10000.0,74565.0,Direct,,,View report (https://accesshub.pdc.wa.gov/node/85228),Health Care,Health Care,Health Care
105199,86334-74565,86334,FE,25651,Insight Strategic Partners LLC,Employer,74565,Inmar c/o MulitState Associates Inc.,21-Dec,3/3/2022,59880.0,Inmar c/o MulitState Associates Inc.,10000.0,0.0,10000.0,0.0,0.0,0.0,0.0,0.0,0.0,0.0,10000.0,74565.0,Direct,,,View report (https://accesshub.pdc.wa.gov/node/86334),Health Care,Health Care,Health Care
105200,76110-62160,76110,FE,25651,Insight Strategic Partners LLC,Employer,62160,Secure Democracy,21-Jan,3/3/2022,61975.0,Secure Democracy,6346.0,0.0,6346.0,0.0,0.0,0.0,0.0,0.0,0.0,0.0,6346.0,62160.0,Direct,,,View report (https://accesshub.pdc.wa.gov/node/76110),,,
105201,80349-62160,80349,FE,25651,Insight Strategic Partners LLC,Employer,62160,Secure Democracy,21-May,3/3/2022,61975.0,Secure Democracy,6346.0,0.0,6346.0,0.0,0.0,0.0,0.0,0.0,0.0,0.0,6346.0,62160.0,Direct,,,View report (https://accesshub.pdc.wa.gov/node/80349),,,
105202,81854-62160,81854,FE,25651,Insight Strategic Partners LLC,Employer,62160,Secure Democracy,21-Jul,3/3/2022,61975.0,Secure Democracy,6343.0,0.0,6343.0,0.0,0.0,0.0,0.0,0.0,0.0,0.0,6343.0,62160.0,Direct,,,View report (https://accesshub.pdc.wa.gov/node/81854),,,
105203,82444-62160,82444,FE,25651,Insight Strategic Partners LLC,Employer,62160,Secure Democracy,21-Aug,3/3/2022,61975.0,Secure Democracy,6343.0,0.0,6343.0,0.0,0.0,0.0,0.0,0.0,0.0,0.0,6343.0,62160.0,Direct,,,View report (https://accesshub.pdc.wa.gov/node/82444),,,
105204,83751-62160,83751,FE,25651,Insight Strategic Partners LLC,Employer,62160,Secure Democracy,21-Sep,3/3/2022,61975.0,Secure Democracy,1500.0,0.0,1500.0,0.0,0.0,0.0,0.0,0.0,0.0,0.0,1500.0,62160.0,Direct,,,View report (https://accesshub.pdc.wa.gov/node/83751),,,
105205,84477-62160,84477,FE,25651,Insight Strategic Partners LLC,Employer,62160,Secure Democracy,21-Oct,3/3/2022,61975.0,Secure Democracy,1500.0,0.0,1500.0,0.0,0.0,0.0,0.0,0.0,0.0,0.0,1500.0,62160.0,Direct,,,View report (https://accesshub.pdc.wa.gov/node/84477),,,
105206,85228-62160,85228,FE,25651,Insight Strategic Partners LLC,Employer,62160,Secure Democracy,21-Nov,3/3/2022,61975.0,Secure Democracy,1500.0,0.0,1500.0,0.0,0.0,0.0,0.0,0.0,0.0,0.0,1500.0,62160.0,Direct,,,View report (https://accesshub.pdc.wa.gov/node/85228),,,
105207,86334-62160,86334,FE,25651,Insight Strategic Partners LLC,Employer,62160,Secure Democracy,21-Dec,3/3/2022,61975.0,Secure Democracy,1500.0,0.0,1500.0,0.0,0.0,0.0,0.0,0.0,0.0,0.0,1500.0,62160.0,Direct,,,View report (https://accesshub.pdc.wa.gov/node/86334),,,
105208,76110-62258,76110,FE,25651,Insight Strategic Partners LLC,Employer,62258,National Football League c/o MultiState Associates LLC,21-Jan,3/3/2022,62202.0,National Football League c/o MultiState Associates LLC,7500.0,0.0,7500.0,0.0,0.0,0.0,0.0,0.0,0.0,0.0,7500.0,62258.0,Direct,,,View report (https://accesshub.pdc.wa.gov/node/76110),Business and consumer affairs,Sports Gambling,"Gambling Commission, Labor and Commerce, Commerce and Gaming"
105209,80349-62258,80349,FE,25651,Insight Strategic Partners LLC,Employer,62258,National Football League c/o MultiState Associates LLC,21-May,3/3/2022,62202.0,National Football League c/o MultiState Associates LLC,3500.0,0.0,3500.0,0.0,0.0,0.0,0.0,0.0,0.0,0.0,3500.0,62258.0,Direct,,,View report (https://accesshub.pdc.wa.gov/node/80349),Business and consumer affairs,Sports Gambling,"Gambling Commission, Labor and Commerce, Commerce and Gaming"
105210,81504-62258,81504,FE,25651,Insight Strategic Partners LLC,Employer,62258,National Football League c/o MultiState Associates LLC,21-Jun,3/3/2022,62202.0,National Football League c/o MultiState Associates LLC,3500.0,0.0,3500.0,0.0,0.0,0.0,0.0,0.0,0.0,0.0,3500.0,62258.0,Direct,,,View report (https://accesshub.pdc.wa.gov/node/81504),Business and consumer affairs,Sports Gambling,"Gambling Commission, Labor and Commerce, Commerce and Gaming"
105211,81854-62258,81854,FE,25651,Insight Strategic Partners LLC,Employer,62258,National Football League c/o MultiState Associates LLC,21-Jul,3/3/2022,62202.0,National Football League c/o MultiState Associates LLC,3500.0,0.0,3500.0,0.0,0.0,0.0,0.0,0.0,0.0,0.0,3500.0,62258.0,Direct,,,View report (https://accesshub.pdc.wa.gov/node/81854),Business and consumer affairs,Sports Gambling,"Gambling Commission, Labor and Commerce, Commerce and Gaming"
105212,82444-62258,82444,FE,25651,Insight Strategic Partners LLC,Employer,62258,National Football League c/o MultiState Associates LLC,21-Aug,3/3/2022,62202.0,National Football League c/o MultiState Associates LLC,3500.0,0.0,3500.0,0.0,0.0,0.0,0.0,0.0,0.0,0.0,3500.0,62258.0,Direct,,,View report (https://accesshub.pdc.wa.gov/node/82444),Business and consumer affairs,Sports Gambling,"Gambling Commission, Labor and Commerce, Commerce and Gaming"
105213,83751-62258,83751,FE,25651,Insight Strategic Partners LLC,Employer,62258,National Football League c/o MultiState Associates LLC,21-Sep,3/3/2022,62202.0,National Football League c/o MultiState Associates LLC,3500.0,0.0,3500.0,0.0,0.0,0.0,0.0,0.0,0.0,0.0,3500.0,62258.0,Direct,,,View report (https://accesshub.pdc.wa.gov/node/83751),Business and consumer affairs,Sports Gambling,"Gambling Commission, Labor and Commerce, Commerce and Gaming"
105214,84477-62258,84477,FE,25651,Insight Strategic Partners LLC,Employer,62258,National Football League c/o MultiState Associates LLC,21-Oct,3/3/2022,62202.0,National Football League c/o MultiState Associates LLC,3500.0,0.0,3500.0,0.0,0.0,0.0,0.0,0.0,0.0,0.0,3500.0,62258.0,Direct,,,View report (https://accesshub.pdc.wa.gov/node/84477),Business and consumer affairs,Sports Gambling,"Gambling Commission, Labor and Commerce, Commerce and Gaming"
105215,85228-62258,85228,FE,25651,Insight Strategic Partners LLC,Employer,62258,National Football League c/o MultiState Associates LLC,21-Nov,3/3/2022,62202.0,National Football League c/o MultiState Associates LLC,3500.0,0.0,3500.0,0.0,0.0,0.0,0.0,0.0,0.0,0.0,3500.0,62258.0,Direct,,,View report (https://accesshub.pdc.wa.gov/node/85228),Business and consumer affairs,Sports Gambling,"Gambling Commission, Labor and Commerce, Commerce and Gaming"
105216,86334-62258,86334,FE,25651,Insight Strategic Partners LLC,Employer,62258,National Football League c/o MultiState Associates LLC,21-Dec,3/3/2022,62202.0,National Football League c/o MultiState Associates LLC,3500.0,0.0,3500.0,0.0,0.0,0.0,0.0,0.0,0.0,0.0,3500.0,62258.0,Direct,,,View report (https://accesshub.pdc.wa.gov/node/86334),Business and consumer affairs,Sports Gambling,"Gambling Commission, Labor and Commerce, Commerce and Gaming"
105217,84477-62990,84477,FE,25651,Insight Strategic Partners LLC,Employer,62990,Zillow Group,21-Oct,3/3/2022,62547.0,Zillow Group,4000.0,0.0,4000.0,0.0,0.0,0.0,0.0,0.0,0.0,0.0,4000.0,62990.0,Direct,,,View report (https://accesshub.pdc.wa.gov/node/84477),Technology,Housing & Technology,Technology & Housing Committees
105218,76110-62990,76110,FE,25651,Insight Strategic Partners LLC,Employer,62990,Zillow Group,21-Jan,3/3/2022,62547.0,Zillow Group,4000.0,0.0,4000.0,0.0,0.0,0.0,0.0,0.0,0.0,0.0,4000.0,62990.0,Direct,,,View report (https://accesshub.pdc.wa.gov/node/76110),Technology,Housing & Technology,Technology & Housing Committees
105219,80349-62990,80349,FE,25651,Insight Strategic Partners LLC,Employer,62990,Zillow Group,21-May,3/3/2022,62547.0,Zillow Group,4000.0,0.0,4000.0,0.0,0.0,0.0,0.0,0.0,0.0,0.0,4000.0,62990.0,Direct,,,View report (https://accesshub.pdc.wa.gov/node/80349),Technology,Housing & Technology,Technology & Housing Committees
105220,81504-62990,81504,FE,25651,Insight Strategic Partners LLC,Employer,62990,Zillow Group,21-Jun,3/3/2022,62547.0,Zillow Group,4000.0,0.0,4000.0,0.0,0.0,0.0,0.0,0.0,0.0,0.0,4000.0,62990.0,Direct,,,View report (https://accesshub.pdc.wa.gov/node/81504),Technology,Housing & Technology,Technology & Housing Committees
105221,81854-62990,81854,FE,25651,Insight Strategic Partners LLC,Employer,62990,Zillow Group,21-Jul,3/3/2022,62547.0,Zillow Group,4000.0,0.0,4000.0,0.0,0.0,0.0,0.0,0.0,0.0,0.0,4000.0,62990.0,Direct,,,View report (https://accesshub.pdc.wa.gov/node/81854),Technology,Housing & Technology,Technology & Housing Committees
105222,82444-62990,82444,FE,25651,Insight Strategic Partners LLC,Employer,62990,Zillow Group,21-Aug,3/3/2022,62547.0,Zillow Group,4000.0,0.0,4000.0,0.0,0.0,0.0,0.0,0.0,0.0,0.0,4000.0,62990.0,Direct,,,View report (https://accesshub.pdc.wa.gov/node/82444),Technology,Housing & Technology,Technology & Housing Committees
105223,83751-62990,83751,FE,25651,Insight Strategic Partners LLC,Employer,62990,Zillow Group,21-Sep,3/3/2022,62547.0,Zillow Group,4000.0,0.0,4000.0,0.0,0.0,0.0,0.0,0.0,0.0,0.0,4000.0,62990.0,Direct,,,View report (https://accesshub.pdc.wa.gov/node/83751),Technology,Housing & Technology,Technology & Housing Committees
105224,85228-62990,85228,FE,25651,Insight Strategic Partners LLC,Employer,62990,Zillow Group,21-Nov,3/3/2022,62547.0,Zillow Group,4000.0,0.0,4000.0,0.0,0.0,0.0,0.0,0.0,0.0,0.0,4000.0,62990.0,Direct,,,View report (https://accesshub.pdc.wa.gov/node/85228),Technology,Housing & Technology,Technology & Housing Committees
105225,86334-62990,86334,FE,25651,Insight Strategic Partners LLC,Employer,62990,Zillow Group,21-Dec,3/3/2022,62547.0,Zillow Group,4000.0,0.0,4000.0,0.0,0.0,0.0,0.0,0.0,0.0,0.0,4000.0,62990.0,Direct,,,View report (https://accesshub.pdc.wa.gov/node/86334),Technology,Housing & Technology,Technology & Housing Committees
105226,76110-71819,76110,FE,25651,Insight Strategic Partners LLC,Employer,71819,"DoorDash, Inc",21-Jan,3/3/2022,70327.0,"DoorDash, Inc",10000.0,0.0,10000.0,0.0,0.0,0.0,0.0,0.0,0.0,0.0,10000.0,71819.0,Direct,,,View report (https://accesshub.pdc.wa.gov/node/76110),Transportation,Transportation,Transportation & Technology
105227,80349-71819,80349,FE,25651,Insight Strategic Partners LLC,Employer,71819,"DoorDash, Inc",21-May,3/3/2022,70327.0,"DoorDash, Inc",10000.0,-5000.0,5000.0,0.0,0.0,0.0,0.0,0.0,0.0,0.0,5000.0,71819.0,Direct,,,View report (https://accesshub.pdc.wa.gov/node/80349),Transportation,Transportation,Transportation & Technology
105228,81504-71819,81504,FE,25651,Insight Strategic Partners LLC,Employer,71819,"DoorDash, Inc",21-Jun,3/3/2022,70327.0,"DoorDash, Inc",10000.0,-5000.0,5000.0,0.0,0.0,0.0,0.0,0.0,0.0,0.0,5000.0,71819.0,Direct,,,View report (https://accesshub.pdc.wa.gov/node/81504),Transportation,Transportation,Transportation & Technology
105229,81854-71819,81854,FE,25651,Insight Strategic Partners LLC,Employer,71819,"DoorDash, Inc",21-Jul,3/3/2022,70327.0,"DoorDash, Inc",10000.0,-5000.0,5000.0,0.0,0.0,0.0,0.0,0.0,0.0,0.0,5000.0,71819.0,Direct,,,View report (https://accesshub.pdc.wa.gov/node/81854),Transportation,Transportation,Transportation & Technology
105230,82444-71819,82444,FE,25651,Insight Strategic Partners LLC,Employer,71819,"DoorDash, Inc",21-Aug,3/3/2022,70327.0,"DoorDash, Inc",10000.0,-5000.0,5000.0,0.0,0.0,0.0,0.0,0.0,0.0,0.0,5000.0,71819.0,Direct,,,View report (https://accesshub.pdc.wa.gov/node/82444),Transportation,Transportation,Transportation & Technology
105231,83751-71819,83751,FE,25651,Insight Strategic Partners LLC,Employer,71819,"DoorDash, Inc",21-Sep,3/3/2022,70327.0,"DoorDash, Inc",10000.0,-5000.0,5000.0,0.0,0.0,0.0,0.0,0.0,0.0,0.0,5000.0,71819.0,Direct,,,View report (https://accesshub.pdc.wa.gov/node/83751),Transportation,Transportation,Transportation & Technology
105232,84477-71819,84477,FE,25651,Insight Strategic Partners LLC,Employer,71819,"DoorDash, Inc",21-Oct,3/3/2022,70327.0,"DoorDash, Inc",10000.0,-5000.0,5000.0,0.0,0.0,0.0,0.0,0.0,0.0,0.0,5000.0,71819.0,Direct,,,View report (https://accesshub.pdc.wa.gov/node/84477),Transportation,Transportation & Technology,Transportation
105233,85228-71819,85228,FE,25651,Insight Strategic Partners LLC,Employer,71819,"DoorDash, Inc",21-Nov,3/3/2022,70327.0,"DoorDash, Inc",10000.0,-5000.0,5000.0,0.0,0.0,0.0,0.0,0.0,0.0,0.0,5000.0,71819.0,Direct,,,View report (https://accesshub.pdc.wa.gov/node/85228),Transportation,Transportation & Technology,Transportation
105234,86334-71819,86334,FE,25651,Insight Strategic Partners LLC,Employer,71819,"DoorDash, Inc",21-Dec,3/3/2022,70327.0,"DoorDash, Inc",10000.0,-5000.0,5000.0,0.0,0.0,0.0,0.0,0.0,0.0,0.0,5000.0,71819.0,Direct,,,View report (https://accesshub.pdc.wa.gov/node/86334),Transportation,Transportation & Technology,Transportation
105235,76110-73393,76110,FE,25651,Insight Strategic Partners LLC,Employer,73393,Port of Port Townsend,21-Jan,3/3/2022,72585.0,Port of Port Townsend,2750.0,0.0,2750.0,0.0,0.0,0.0,0.0,0.0,0.0,0.0,2750.0,73393.0,Direct,,,View report (https://accesshub.pdc.wa.gov/node/76110),Transportation,Transportation & Economic Development,Transportation & Economic Development
105236,80349-73393,80349,FE,25651,Insight Strategic Partners LLC,Employer,73393,Port of Port Townsend,21-May,3/3/2022,72585.0,Port of Port Townsend,2750.0,0.0,2750.0,0.0,0.0,0.0,0.0,0.0,0.0,0.0,2750.0,73393.0,Direct,,,View report (https://accesshub.pdc.wa.gov/node/80349),Transportation,Transportation & Economic Development,Transportation & Economic Development
105237,81504-73393,81504,FE,25651,Insight Strategic Partners LLC,Employer,73393,Port of Port Townsend,21-Jun,3/3/2022,72585.0,Port of Port Townsend,2750.0,0.0,2750.0,0.0,0.0,0.0,0.0,0.0,0.0,0.0,2750.0,73393.0,Direct,,,View report (https://accesshub.pdc.wa.gov/node/81504),Transportation,Transportation & Economic Development,Transportation & Economic Development
105238,81854-73393,81854,FE,25651,Insight Strategic Partners LLC,Employer,73393,Port of Port Townsend,21-Jul,3/3/2022,72585.0,Port of Port Townsend,2750.0,0.0,2750.0,0.0,0.0,0.0,0.0,0.0,0.0,0.0,2750.0,73393.0,Direct,,,View report (https://accesshub.pdc.wa.gov/node/81854),Transportation,Transportation & Economic Development,Transportation & Economic Development
105239,82444-73393,82444,FE,25651,Insight Strategic Partners LLC,Employer,73393,Port of Port Townsend,21-Aug,3/3/2022,72585.0,Port of Port Townsend,2750.0,0.0,2750.0,0.0,0.0,0.0,0.0,0.0,0.0,0.0,2750.0,73393.0,Direct,,,View report (https://accesshub.pdc.wa.gov/node/82444),Transportation,Transportation & Economic Development,Transportation & Economic Development
105240,83751-73393,83751,FE,25651,Insight Strategic Partners LLC,Employer,73393,Port of Port Townsend,21-Sep,3/3/2022,72585.0,Port of Port Townsend,2750.0,0.0,2750.0,0.0,0.0,0.0,0.0,0.0,0.0,0.0,2750.0,73393.0,Direct,,,View report (https://accesshub.pdc.wa.gov/node/83751),Transportation,Transportation & Economic Development,Transportation & Economic Development
105241,84477-73393,84477,FE,25651,Insight Strategic Partners LLC,Employer,73393,Port of Port Townsend,21-Oct,3/3/2022,72585.0,Port of Port Townsend,2750.0,0.0,2750.0,0.0,0.0,0.0,0.0,0.0,0.0,0.0,2750.0,73393.0,Direct,,,View report (https://accesshub.pdc.wa.gov/node/84477),Transportation,Transportation & Economic Development,Transportation & Economic Development
105242,85228-73393,85228,FE,25651,Insight Strategic Partners LLC,Employer,73393,Port of Port Townsend,21-Nov,3/3/2022,72585.0,Port of Port Townsend,2750.0,0.0,2750.0,0.0,0.0,0.0,0.0,0.0,0.0,0.0,2750.0,73393.0,Direct,,,View report (https://accesshub.pdc.wa.gov/node/85228),Transportation,Transportation & Economic Development,Transportation & Economic Development
105243,86334-73393,86334,FE,25651,Insight Strategic Partners LLC,Employer,73393,Port of Port Townsend,21-Dec,3/3/2022,72585.0,Port of Port Townsend,2750.0,0.0,2750.0,0.0,0.0,0.0,0.0,0.0,0.0,0.0,2750.0,73393.0,Direct,,,View report (https://accesshub.pdc.wa.gov/node/86334),Transportation,Transportation & Economic Development,Transportation & Economic Development
105244,76110-73543,76110,FE,25651,Insight Strategic Partners LLC,Employer,73543,"Secure Identity, LLC",21-Jan,3/3/2022,73165.0,"Secure Identity, LLC",4000.0,0.0,4000.0,0.0,0.0,0.0,0.0,0.0,0.0,0.0,4000.0,73543.0,Direct,,,View report (https://accesshub.pdc.wa.gov/node/76110),Technology,"Privacy, health and technology",Technology
105245,80349-73543,80349,FE,25651,Insight Strategic Partners LLC,Employer,73543,"Secure Identity, LLC",21-May,3/3/2022,73165.0,"Secure Identity, LLC",8000.0,0.0,8000.0,0.0,0.0,0.0,0.0,0.0,0.0,0.0,8000.0,73543.0,Direct,,,View report (https://accesshub.pdc.wa.gov/node/80349),Technology,"Privacy, health and technology",Technology
105246,81504-73543,81504,FE,25651,Insight Strategic Partners LLC,Employer,73543,"Secure Identity, LLC",21-Jun,3/3/2022,73165.0,"Secure Identity, LLC",8000.0,0.0,8000.0,0.0,0.0,0.0,0.0,0.0,0.0,0.0,8000.0,73543.0,Direct,,,View report (https://accesshub.pdc.wa.gov/node/81504),Technology,"Privacy, health and technology",Technology
105247,81854-73543,81854,FE,25651,Insight Strategic Partners LLC,Employer,73543,"Secure Identity, LLC",21-Jul,3/3/2022,73165.0,"Secure Identity, LLC",8000.0,0.0,8000.0,0.0,0.0,0.0,0.0,0.0,0.0,0.0,8000.0,73543.0,Direct,,,View report (https://accesshub.pdc.wa.gov/node/81854),Technology,"Privacy, health and technology",Technology
105248,82444-73543,82444,FE,25651,Insight Strategic Partners LLC,Employer,73543,"Secure Identity, LLC",21-Aug,3/3/2022,73165.0,"Secure Identity, LLC",8000.0,0.0,8000.0,0.0,0.0,0.0,0.0,0.0,0.0,0.0,8000.0,73543.0,Direct,,,View report (https://accesshub.pdc.wa.gov/node/82444),Technology,"Privacy, health and technology",Technology
105249,83751-73543,83751,FE,25651,Insight Strategic Partners LLC,Employer,73543,"Secure Identity, LLC",21-Sep,3/3/2022,73165.0,"Secure Identity, LLC",8000.0,0.0,8000.0,0.0,0.0,0.0,0.0,0.0,0.0,0.0,8000.0,73543.0,Direct,,,View report (https://accesshub.pdc.wa.gov/node/83751),Technology,"Privacy, health and technology",Technology
105250,84477-73543,84477,FE,25651,Insight Strategic Partners LLC,Employer,73543,"Secure Identity, LLC",21-Oct,3/3/2022,73165.0,"Secure Identity, LLC",8000.0,0.0,8000.0,0.0,0.0,0.0,0.0,0.0,0.0,0.0,8000.0,73543.0,Direct,,,View report (https://accesshub.pdc.wa.gov/node/84477),Technology,"Privacy, health and technology",Technology
105251,85228-73543,85228,FE,25651,Insight Strategic Partners LLC,Employer,73543,"Secure Identity, LLC",21-Nov,3/3/2022,73165.0,"Secure Identity, LLC",8000.0,0.0,8000.0,0.0,0.0,0.0,0.0,0.0,0.0,0.0,8000.0,73543.0,Direct,,,View report (https://accesshub.pdc.wa.gov/node/85228),Technology,"Privacy, health and technology",Technology
105252,86334-73543,86334,FE,25651,Insight Strategic Partners LLC,Employer,73543,"Secure Identity, LLC",21-Dec,3/3/2022,73165.0,"Secure Identity, LLC",8000.0,0.0,8000.0,0.0,0.0,0.0,0.0,0.0,0.0,0.0,8000.0,73543.0,Direct,,,View report (https://accesshub.pdc.wa.gov/node/86334),Technology,"Privacy, health and technology",Technology
105253,76110-73699,76110,FE,25651,Insight Strategic Partners LLC,Employer,73699,"NextEra Energy Resources, LLC",21-Jan,3/3/2022,73563.0,"NextEra Energy Resources, LLC",6000.0,0.0,6000.0,0.0,0.0,0.0,0.0,0.0,0.0,0.0,6000.0,73699.0,Direct,,,View report (https://accesshub.pdc.wa.gov/node/76110),Energy and utilities,Energy,Energy
105254,80349-73699,80349,FE,25651,Insight Strategic Partners LLC,Employer,73699,"NextEra Energy Resources, LLC",21-May,3/3/2022,73563.0,"NextEra Energy Resources, LLC",6000.0,0.0,6000.0,0.0,0.0,0.0,0.0,0.0,0.0,0.0,6000.0,73699.0,Direct,,,View report (https://accesshub.pdc.wa.gov/node/80349),Energy and utilities,Energy,Energy
105255,81504-73699,81504,FE,25651,Insight Strategic Partners LLC,Employer,73699,"NextEra Energy Resources, LLC",21-Jun,3/3/2022,73563.0,"NextEra Energy Resources, LLC",6000.0,0.0,6000.0,0.0,0.0,0.0,0.0,0.0,0.0,0.0,6000.0,73699.0,Direct,,,View report (https://accesshub.pdc.wa.gov/node/81504),Energy and utilities,Energy,Energy
105256,81854-73699,81854,FE,25651,Insight Strategic Partners LLC,Employer,73699,"NextEra Energy Resources, LLC",21-Jul,3/3/2022,73563.0,"NextEra Energy Resources, LLC",6000.0,0.0,6000.0,0.0,0.0,0.0,0.0,0.0,0.0,0.0,6000.0,73699.0,Direct,,,View report (https://accesshub.pdc.wa.gov/node/81854),Energy and utilities,Energy,Energy
105257,82444-73699,82444,FE,25651,Insight Strategic Partners LLC,Employer,73699,"NextEra Energy Resources, LLC",21-Aug,3/3/2022,73563.0,"NextEra Energy Resources, LLC",6000.0,0.0,6000.0,0.0,0.0,0.0,0.0,0.0,0.0,0.0,6000.0,73699.0,Direct,,,View report (https://accesshub.pdc.wa.gov/node/82444),Energy and utilities,Energy,Energy
105258,83751-73699,83751,FE,25651,Insight Strategic Partners LLC,Employer,73699,"NextEra Energy Resources, LLC",21-Sep,3/3/2022,73563.0,"NextEra Energy Resources, LLC",6000.0,0.0,6000.0,0.0,0.0,0.0,0.0,0.0,0.0,0.0,6000.0,73699.0,Direct,,,View report (https://accesshub.pdc.wa.gov/node/83751),Energy and utilities,Energy,Energy
105259,84477-73699,84477,FE,25651,Insight Strategic Partners LLC,Employer,73699,"NextEra Energy Resources, LLC",21-Oct,3/3/2022,73563.0,"NextEra Energy Resources, LLC",6000.0,0.0,6000.0,0.0,0.0,0.0,0.0,0.0,0.0,0.0,6000.0,73699.0,Direct,,,View report (https://accesshub.pdc.wa.gov/node/84477),Energy and utilities,Energy,Energy
105260,85228-73699,85228,FE,25651,Insight Strategic Partners LLC,Employer,73699,"NextEra Energy Resources, LLC",21-Nov,3/3/2022,73563.0,"NextEra Energy Resources, LLC",6000.0,0.0,6000.0,0.0,0.0,0.0,0.0,0.0,0.0,0.0,6000.0,73699.0,Direct,,,View report (https://accesshub.pdc.wa.gov/node/85228),Energy and utilities,Energy,Energy
105261,86334-73699,86334,FE,25651,Insight Strategic Partners LLC,Employer,73699,"NextEra Energy Resources, LLC",21-Dec,3/3/2022,73563.0,"NextEra Energy Resources, LLC",6000.0,0.0,6000.0,0.0,0.0,0.0,0.0,0.0,0.0,0.0,6000.0,73699.0,Direct,,,View report (https://accesshub.pdc.wa.gov/node/86334),Energy and utilities,Energy,Energy
105262,89577-87238,89577,FE,17372,BRUCE K BECKETT,Employer,87238,Port of Olympia,22-Feb,3/3/2022,74038.0,Port of Olympia,3000.0,0.0,3000.0,0.0,0.0,0.0,0.0,0.0,0.0,0.0,3000.0,87238.0,Direct,,,View report (https://accesshub.pdc.wa.gov/node/89577),State government,"SB 5895, MTCA; HB 1700 Derelict Vessels; Capital Budget, Transportation",House/Senate Transportation; House/Senate Financial Committees/ 22nd District delegation
105263,76110-74564,76110,FE,25651,Insight Strategic Partners LLC,Employer,74564,"Electronic Transaction Consultants, Inc",21-Jan,3/3/2022,74268.0,"Electronic Transaction Consultants, Inc",6000.0,0.0,6000.0,0.0,0.0,0.0,0.0,0.0,0.0,0.0,6000.0,74564.0,Direct,,,View report (https://accesshub.pdc.wa.gov/node/76110),Transportation,Transportation,WSOT & Governor's Office
105264,80349-74564,80349,FE,25651,Insight Strategic Partners LLC,Employer,74564,"Electronic Transaction Consultants, Inc",21-May,3/3/2022,74268.0,"Electronic Transaction Consultants, Inc",6000.0,0.0,6000.0,0.0,0.0,0.0,0.0,0.0,0.0,0.0,6000.0,74564.0,Direct,,,View report (https://accesshub.pdc.wa.gov/node/80349),Transportation,Transportation,WSOT & Governor's Office
105265,81504-74564,81504,FE,25651,Insight Strategic Partners LLC,Employer,74564,"Electronic Transaction Consultants, Inc",21-Jun,3/3/2022,74268.0,"Electronic Transaction Consultants, Inc",6000.0,0.0,6000.0,0.0,0.0,0.0,0.0,0.0,0.0,0.0,6000.0,74564.0,Direct,,,View report (https://accesshub.pdc.wa.gov/node/81504),Transportation,Transportation,WSOT & Governor's Office
105266,81854-74564,81854,FE,25651,Insight Strategic Partners LLC,Employer,74564,"Electronic Transaction Consultants, Inc",21-Jul,3/3/2022,74268.0,"Electronic Transaction Consultants, Inc",6000.0,0.0,6000.0,0.0,0.0,0.0,0.0,0.0,0.0,0.0,6000.0,74564.0,Direct,,,View report (https://accesshub.pdc.wa.gov/node/81854),Transportation,Transportation,WSOT & Governor's Office
105267,82444-74564,82444,FE,25651,Insight Strategic Partners LLC,Employer,74564,"Electronic Transaction Consultants, Inc",21-Aug,3/3/2022,74268.0,"Electronic Transaction Consultants, Inc",6000.0,0.0,6000.0,0.0,0.0,0.0,0.0,0.0,0.0,0.0,6000.0,74564.0,Direct,,,View report (https://accesshub.pdc.wa.gov/node/82444),Transportation,Transportation,WSOT & Governor's Office
105268,81854-81858,81854,FE,25651,Insight Strategic Partners LLC,Employer,81858,King County,21-Jul,3/3/2022,74612.0,King County,5000.0,0.0,5000.0,0.0,0.0,0.0,0.0,0.0,0.0,0.0,5000.0,81858.0,Direct,,,View report (https://accesshub.pdc.wa.gov/node/81854),State government,Recycling & Climate,State Government
105269,82444-81858,82444,FE,25651,Insight Strategic Partners LLC,Employer,81858,King County,21-Aug,3/3/2022,74612.0,King County,5000.0,0.0,5000.0,0.0,0.0,0.0,0.0,0.0,0.0,0.0,5000.0,81858.0,Direct,,,View report (https://accesshub.pdc.wa.gov/node/82444),State government,Recycling & Climate,State Government
105270,83751-81858,83751,FE,25651,Insight Strategic Partners LLC,Employer,81858,King County,21-Sep,3/3/2022,74612.0,King County,5000.0,0.0,5000.0,0.0,0.0,0.0,0.0,0.0,0.0,0.0,5000.0,81858.0,Direct,,,View report (https://accesshub.pdc.wa.gov/node/83751),State government,Recycling & Climate,State Government
105271,84477-81858,84477,FE,25651,Insight Strategic Partners LLC,Employer,81858,King County,21-Oct,3/3/2022,74612.0,King County,5000.0,0.0,5000.0,0.0,0.0,0.0,0.0,0.0,0.0,0.0,5000.0,81858.0,Direct,,,View report (https://accesshub.pdc.wa.gov/node/84477),State government,Recycling & Climate,State Government
105272,85228-81858,85228,FE,25651,Insight Strategic Partners LLC,Employer,81858,King County,21-Nov,3/3/2022,74612.0,King County,5000.0,0.0,5000.0,0.0,0.0,0.0,0.0,0.0,0.0,0.0,5000.0,81858.0,Direct,,,View report (https://accesshub.pdc.wa.gov/node/85228),State government,Recycling & Climate,State Government
105273,86334-81858,86334,FE,25651,Insight Strategic Partners LLC,Employer,81858,King County,21-Dec,3/3/2022,74612.0,King County,5000.0,0.0,5000.0,0.0,0.0,0.0,0.0,0.0,0.0,0.0,5000.0,81858.0,Direct,,,View report (https://accesshub.pdc.wa.gov/node/86334),State government,Recycling & Climate,State Government
105274,80349-74908,80349,FE,25651,Insight Strategic Partners LLC,Employer,74908,"SkyNRG Americas, Inc",21-May,3/3/2022,74906.0,"SkyNRG Americas, Inc",4000.0,0.0,4000.0,0.0,0.0,0.0,0.0,0.0,0.0,0.0,4000.0,74908.0,Direct,,,View report (https://accesshub.pdc.wa.gov/node/80349),Energy and utilities,Energy and utilities,Energy and utilities
105275,81504-74908,81504,FE,25651,Insight Strategic Partners LLC,Employer,74908,"SkyNRG Americas, Inc",21-Jun,3/3/2022,74906.0,"SkyNRG Americas, Inc",4000.0,0.0,4000.0,0.0,0.0,0.0,0.0,0.0,0.0,0.0,4000.0,74908.0,Direct,,,View report (https://accesshub.pdc.wa.gov/node/81504),Energy and utilities,Energy and utilities,Energy and utilities
105276,81854-74908,81854,FE,25651,Insight Strategic Partners LLC,Employer,74908,"SkyNRG Americas, Inc",21-Jul,3/3/2022,74906.0,"SkyNRG Americas, Inc",4000.0,0.0,4000.0,0.0,0.0,0.0,0.0,0.0,0.0,0.0,4000.0,74908.0,Direct,,,View report (https://accesshub.pdc.wa.gov/node/81854),Energy and utilities,Energy and utilities,Energy and utilities
105277,82444-74908,82444,FE,25651,Insight Strategic Partners LLC,Employer,74908,"SkyNRG Americas, Inc",21-Aug,3/3/2022,74906.0,"SkyNRG Americas, Inc",4000.0,0.0,4000.0,0.0,0.0,0.0,0.0,0.0,0.0,0.0,4000.0,74908.0,Direct,,,View report (https://accesshub.pdc.wa.gov/node/82444),Energy and utilities,Energy and utilities,Energy and utilities
105278,83751-74908,83751,FE,25651,Insight Strategic Partners LLC,Employer,74908,"SkyNRG Americas, Inc",21-Sep,3/3/2022,74906.0,"SkyNRG Americas, Inc",4000.0,0.0,4000.0,0.0,0.0,0.0,0.0,0.0,0.0,0.0,4000.0,74908.0,Direct,,,View report (https://accesshub.pdc.wa.gov/node/83751),Energy and utilities,Energy and utilities,Energy and utilities
105279,84477-74908,84477,FE,25651,Insight Strategic Partners LLC,Employer,74908,"SkyNRG Americas, Inc",21-Oct,3/3/2022,74906.0,"SkyNRG Americas, Inc",4000.0,0.0,4000.0,0.0,0.0,0.0,0.0,0.0,0.0,0.0,4000.0,74908.0,Direct,,,View report (https://accesshub.pdc.wa.gov/node/84477),Energy and utilities,Energy and utilities,Energy and utilities
105280,85228-74908,85228,FE,25651,Insight Strategic Partners LLC,Employer,74908,"SkyNRG Americas, Inc",21-Nov,3/3/2022,74906.0,"SkyNRG Americas, Inc",4000.0,0.0,4000.0,0.0,0.0,0.0,0.0,0.0,0.0,0.0,4000.0,74908.0,Direct,,,View report (https://accesshub.pdc.wa.gov/node/85228),Energy and utilities,Energy and utilities,Energy and utilities
105281,86334-74908,86334,FE,25651,Insight Strategic Partners LLC,Employer,74908,"SkyNRG Americas, Inc",21-Dec,3/3/2022,74906.0,"SkyNRG Americas, Inc",4000.0,0.0,4000.0,0.0,0.0,0.0,0.0,0.0,0.0,0.0,4000.0,74908.0,Direct,,,View report (https://accesshub.pdc.wa.gov/node/86334),Energy and utilities,Energy and utilities,Energy and utilities
105282,80349-76456,80349,FE,25651,Insight Strategic Partners LLC,Employer,76456,Fountain House,21-May,3/3/2022,76451.0,Fountain House,6500.0,0.0,6500.0,0.0,0.0,0.0,0.0,0.0,0.0,0.0,6500.0,76456.0,Direct,,,View report (https://accesshub.pdc.wa.gov/node/80349),Human services,"Human Service, Healthcare",Human Services
105283,80349-77783,80349,FE,25651,Insight Strategic Partners LLC,Employer,77783,"Global Payments, Inc.",21-May,3/3/2022,77667.0,"Global Payments, Inc.",3500.0,0.0,3500.0,0.0,0.0,0.0,0.0,0.0,0.0,0.0,3500.0,77783.0,Direct,,,View report (https://accesshub.pdc.wa.gov/node/80349),State government,Taxes,"State Government, Financial"
105284,81504-77783,81504,FE,25651,Insight Strategic Partners LLC,Employer,77783,"Global Payments, Inc.",21-Jun,3/3/2022,77667.0,"Global Payments, Inc.",3500.0,0.0,3500.0,0.0,0.0,0.0,0.0,0.0,0.0,0.0,3500.0,77783.0,Direct,,,View report (https://accesshub.pdc.wa.gov/node/81504),State government,Taxes,"State Government, Financial"
105285,81854-77783,81854,FE,25651,Insight Strategic Partners LLC,Employer,77783,"Global Payments, Inc.",21-Jul,3/3/2022,77667.0,"Global Payments, Inc.",3500.0,0.0,3500.0,0.0,0.0,0.0,0.0,0.0,0.0,0.0,3500.0,77783.0,Direct,,,View report (https://accesshub.pdc.wa.gov/node/81854),State government,Taxes,"State Government, Financial"
105286,82444-77783,82444,FE,25651,Insight Strategic Partners LLC,Employer,77783,"Global Payments, Inc.",21-Aug,3/3/2022,77667.0,"Global Payments, Inc.",3500.0,0.0,3500.0,0.0,0.0,0.0,0.0,0.0,0.0,0.0,3500.0,77783.0,Direct,,,View report (https://accesshub.pdc.wa.gov/node/82444),State government,Taxes,"State Government, Financial"
105287,83751-77783,83751,FE,25651,Insight Strategic Partners LLC,Employer,77783,"Global Payments, Inc.",21-Sep,3/3/2022,77667.0,"Global Payments, Inc.",7000.0,0.0,7000.0,0.0,0.0,0.0,0.0,0.0,0.0,0.0,7000.0,77783.0,Direct,,,View report (https://accesshub.pdc.wa.gov/node/83751),State government,Taxes,"State Government, Financial"
105288,84477-77783,84477,FE,25651,Insight Strategic Partners LLC,Employer,77783,"Global Payments, Inc.",21-Oct,3/3/2022,77667.0,"Global Payments, Inc.",7000.0,0.0,7000.0,0.0,0.0,0.0,0.0,0.0,0.0,0.0,7000.0,77783.0,Direct,,,View report (https://accesshub.pdc.wa.gov/node/84477),State government,Taxes,"State Government, Financial"
