,id,report_number,origin,filer_id,filer_name,type,funding_source_id,funding_source_name,filing_period,receipt_date,employer_id,employer_name,compensation,sub_lobbyist_compensation,net_compensation,personal_expenses,entertainment,contributions,advertising,political_ads,other,total_expenses,net_total,employment_registration_id,employment_type,contractor_id,contractor_name,url,legislation_subject_matter,issue_bill_number,committee_lobbied
15000,108044-83390,108044,FE,27257,Paribello Public Affairs,Employer,83390,Washington Sun and Craft Grower's Association (BMcConsulting),23-Aug,11/2/2023,43434,Washington Sun and Craft Grower's Association,250.0,0.0,250.0,0.0,0.0,0.0,0.0,0.0,0.0,0.0,250.0,83390,Subcontract,26001.0,BMcConsulting,View report (https://accesshub.pdc.wa.gov/node/108044),,,
15001,108044-85006,108044,FE,27257,Paribello Public Affairs,Employer,85006,Washington Solar Energy Industries Association,23-Aug,11/2/2023,16929,Washington Solar Energy Industries Association,2000.0,0.0,2000.0,0.0,0.0,0.0,0.0,0.0,0.0,0.0,2000.0,85006,Direct,,,View report (https://accesshub.pdc.wa.gov/node/108044),Energy and utilities,Clean Energy,"Legislature, Governor, Commerce"
15002,108044-98644,108044,FE,27257,Paribello Public Affairs,Employer,98644,Swinomish Indian Tribal Community,23-Aug,11/2/2023,16963,Swinomish Indian Tribal Community,5000.0,0.0,5000.0,0.0,0.0,0.0,0.0,0.0,0.0,0.0,5000.0,98644,Direct,,,View report (https://accesshub.pdc.wa.gov/node/108044),,,
15003,108044-100107,108044,FE,27257,Paribello Public Affairs,Employer,100107,Save Our Wild Salmon,23-Aug,11/2/2023,51766,Save Our Wild Salmon,3000.0,0.0,3000.0,0.0,0.0,0.0,0.0,0.0,0.0,0.0,3000.0,100107,Direct,,,View report (https://accesshub.pdc.wa.gov/node/108044),,,
15004,109606-73643,109606,FE,73642,Jeff Johnson,Employer,73643,REGIONAL WATER COOPERATIVE OF PIERCE CO,23-Oct,11/2/2023,17293,REGIONAL WATER COOPERATIVE OF PIERCE CO,3200.0,0.0,3200.0,100.0,0.0,0.0,0.0,0.0,0.0,100.0,3300.0,73643,Direct,,,View report (https://accesshub.pdc.wa.gov/node/109606),Energy and utilities,"DOE Policy 2030, DOH PFAS response, water rights, water treatment","DOH, DOE, DOC"
15005,109608-49630,109608,FE,49611,Devon S. Connor-Green,Employer,49630,ARNPS UNITED OF WA ST,23-Oct,11/2/2023,16070,ARNPS UNITED OF WA ST,1500.0,0.0,1500.0,0.0,0.0,0.0,0.0,0.0,0.0,0.0,1500.0,49630,Direct,,,View report (https://accesshub.pdc.wa.gov/node/109608),Health Care,Health Care,"H Health Care, S Health Care"
15006,109608-70233,109608,FE,49611,Devon S. Connor-Green,Employer,70233,ASSN OF ADV PRACTICE PSYCHIATRIC NURSES,23-Oct,11/2/2023,16147,ASSN OF ADV PRACTICE PSYCHIATRIC NURSES,1250.0,0.0,1250.0,0.0,0.0,0.0,0.0,0.0,0.0,0.0,1250.0,70233,Direct,,,View report (https://accesshub.pdc.wa.gov/node/109608),Health Care,Health Care,"H Health Care, S Health Care"
15007,109608-80023,109608,FE,49611,Devon S. Connor-Green,Employer,80023,GILEAD SCIENCES INC,23-Oct,11/2/2023,16471,GILEAD SCIENCES INC,5000.0,0.0,5000.0,0.0,0.0,0.0,0.0,0.0,0.0,0.0,5000.0,80023,Direct,,,View report (https://accesshub.pdc.wa.gov/node/109608),Health Care,Health Care,All House & Senate
15008,109608-86707,109608,FE,49611,Devon S. Connor-Green,Employer,86707,Children's Alliance,23-Oct,11/2/2023,16256,Children's Alliance,5500.0,0.0,5500.0,0.0,0.0,0.0,0.0,0.0,0.0,0.0,5500.0,86707,Direct,,,View report (https://accesshub.pdc.wa.gov/node/109608),,,
15009,109608-96464,109608,FE,49611,Devon S. Connor-Green,Employer,96464,Tubman Center for Health,23-Oct,11/2/2023,82670,Tubman Center for Health,2750.0,0.0,2750.0,0.0,0.0,0.0,0.0,0.0,0.0,0.0,2750.0,96464,Direct,,,View report (https://accesshub.pdc.wa.gov/node/109608),Health Care,Health Care,All House & Senate
15010,109611-19290,109611,FE,17813,MILLENNIA PUBLIC AFFAIRS INC*,Employer,19290,DISH Network Corporation,23-Oct,11/2/2023,16390,DISH Network Corporation,5000.0,0.0,5000.0,0.0,0.0,0.0,0.0,0.0,0.0,0.0,5000.0,19290,Direct,,,View report (https://accesshub.pdc.wa.gov/node/109611),Business and consumer affairs,BUSINESS AND CONSUMER AFFAIRS,BUSINESS AND CONSUMER AFFAIRS
15011,109611-19292,109611,FE,17813,MILLENNIA PUBLIC AFFAIRS INC*,Employer,19292,MetLife,23-Oct,11/2/2023,16634,MetLife,2500.0,0.0,2500.0,0.0,0.0,0.0,0.0,0.0,0.0,0.0,2500.0,19292,Direct,,,View report (https://accesshub.pdc.wa.gov/node/109611),Financial institutions and insurance,2306 6146,House Senate All
15012,109611-19295,109611,FE,17813,MILLENNIA PUBLIC AFFAIRS INC*,Employer,19295,ROWLEY PROPERTIES INC,23-Oct,11/2/2023,16864,ROWLEY PROPERTIES INC,4000.0,0.0,4000.0,0.0,0.0,0.0,0.0,0.0,0.0,0.0,4000.0,19295,Direct,,,View report (https://accesshub.pdc.wa.gov/node/109611),Business and consumer affairs,BUSINESS AND CONSUMER AFFAIRS,BUSINESS AND CONSUMER AFFAIRS
15013,109611-19296,109611,FE,17813,MILLENNIA PUBLIC AFFAIRS INC*,Employer,19296,Marathon Petroleum Corporation and its Subsidiaries,23-Oct,11/2/2023,16980,Marathon Petroleum Corporation and its Subsidiaries,6000.0,0.0,6000.0,0.0,0.0,0.0,0.0,0.0,0.0,0.0,6000.0,19296,Direct,,,View report (https://accesshub.pdc.wa.gov/node/109611),Business and consumer affairs,BUSINESS AND CONSUMER AFFAIRS,BUSINESS AND CONSUMER AFFAIRS
15014,109611-19298,109611,FE,17813,MILLENNIA PUBLIC AFFAIRS INC*,Employer,19298,UNIVERSITY OF WASHINGTON,23-Oct,11/2/2023,17021,UNIVERSITY OF WASHINGTON,4500.0,0.0,4500.0,0.0,0.0,0.0,0.0,0.0,0.0,0.0,4500.0,19298,Direct,,,View report (https://accesshub.pdc.wa.gov/node/109611),Business and consumer affairs,Business & Consumer Affairs,Business & Consumer Affairs
15015,109611-19299,109611,FE,17813,MILLENNIA PUBLIC AFFAIRS INC*,Employer,19299,WA AGGREGATES & CONCRETE ASSN,23-Oct,11/2/2023,17048,WA AGGREGATES & CONCRETE ASSN,5000.0,0.0,5000.0,0.0,0.0,0.0,0.0,0.0,0.0,0.0,5000.0,19299,Direct,,,View report (https://accesshub.pdc.wa.gov/node/109611),Business and consumer affairs,BUSINESS AND CONSUMER AFFAIRS,BUSINESS AND CONSUMER AFFAIRS
15016,109611-27670,109611,FE,17813,MILLENNIA PUBLIC AFFAIRS INC*,Employer,27670,"Jazz Pharmaceuticals, Inc. and its subsidiaries, including Greenwich Biosciences, Inc.",23-Oct,11/2/2023,27659,"Jazz Pharmaceuticals, Inc. and its subsidiaries, including Greenwich Biosciences, Inc.",3500.0,0.0,3500.0,0.0,0.0,0.0,0.0,0.0,0.0,0.0,3500.0,27670,Direct,,,View report (https://accesshub.pdc.wa.gov/node/109611),Business and consumer affairs,Business & Consumer Affairs,House Senate All
15017,109611-98886,109611,FE,17813,MILLENNIA PUBLIC AFFAIRS INC*,Employer,98886,Asurion,23-Oct,11/2/2023,98865,Asurion,2000.0,0.0,2000.0,0.0,0.0,0.0,0.0,0.0,0.0,0.0,2000.0,98886,Direct,,,View report (https://accesshub.pdc.wa.gov/node/109611),Business and consumer affairs,Health Care Business Privacy,All House Senate
15018,109610-98539,109610,FE,98532,Paragon Strategic Partners LLC,Employer,98539,ASSN OF ALCOHOLISM & ADDICTIONS PROGRAMS,23-Oct,11/2/2023,16146,ASSN OF ALCOHOLISM & ADDICTIONS PROGRAMS,8640.0,0.0,8640.0,0.0,0.0,0.0,0.0,0.0,0.0,0.0,8640.0,98539,Direct,,,View report (https://accesshub.pdc.wa.gov/node/109610),Human services,1104 deferred prosecution,House Senate All
15019,109610-98606,109610,FE,98532,Paragon Strategic Partners LLC,Employer,98606,International Brotherhood of Electrical Workers 46,23-Oct,11/2/2023,62053,International Brotherhood of Electrical Workers 46,2500.0,0.0,2500.0,0.0,0.0,0.0,0.0,0.0,0.0,0.0,2500.0,98606,Direct,,,View report (https://accesshub.pdc.wa.gov/node/109610),Labor,labor,House Senate All
15020,109610-98872,109610,FE,98532,Paragon Strategic Partners LLC,Employer,98872,Northwest Regional Council of SMART,23-Oct,11/2/2023,79368,Northwest Regional Council of SMART,8640.0,0.0,8640.0,0.0,0.0,0.0,0.0,0.0,0.0,0.0,8640.0,98872,Direct,,,View report (https://accesshub.pdc.wa.gov/node/109610),Labor,labor,House Senate All
15021,109609-71056,109609,FE,17653,BRANDON HOUSKEEPER,Employer,71056,ALLIANCE OF WESTERN ENERGY CONSUMERS,23-Oct,11/2/2023,16528,ALLIANCE OF WESTERN ENERGY CONSUMERS,9500.0,0.0,9500.0,0.0,0.0,0.0,0.0,0.0,0.0,0.0,9500.0,71056,Direct,,,View report (https://accesshub.pdc.wa.gov/node/109609),Energy and utilities,"cap-and-trade, clean electricity","UTC, Ecology, Commerce, Legislature"
15022,109609-72284,109609,FE,17653,BRANDON HOUSKEEPER,Employer,72284,PACKAGING CORP OF AMERICA,23-Oct,11/2/2023,16203,PACKAGING CORP OF AMERICA,3000.0,0.0,3000.0,435.19,0.0,0.0,0.0,0.0,0.0,435.19,3435.19,72284,Direct,,,View report (https://accesshub.pdc.wa.gov/node/109609),Energy and utilities,"cap-and-trade, energy costs, employment law, taxes","Ecology, Commerce, Legislature, Gov's office"
15023,109609-72771,109609,FE,17653,BRANDON HOUSKEEPER,Employer,72771,BOISE CASCADE COMPANY,23-Oct,11/2/2023,16202,BOISE CASCADE COMPANY,3000.0,0.0,3000.0,0.0,0.0,0.0,0.0,0.0,0.0,0.0,3000.0,72771,Direct,,,View report (https://accesshub.pdc.wa.gov/node/109609),Energy and utilities,"cap-and-trade, forestry, energy, employment law, taxes","Ecology, Commerce, DNR, Legislature"
15024,109609-74110,109609,FE,17653,BRANDON HOUSKEEPER,Employer,74110,WESTERN WOOD PRESERVERS INSTITUTE,23-Oct,11/2/2023,17304,WESTERN WOOD PRESERVERS INSTITUTE,1750.0,0.0,1750.0,0.0,0.0,0.0,0.0,0.0,0.0,0.0,1750.0,74110,Direct,,,View report (https://accesshub.pdc.wa.gov/node/109609),Energy and utilities,"cap-and-trade / energy, pesticides, taxes","Ecology, Legislature"
15025,109609-79813,109609,FE,17653,BRANDON HOUSKEEPER,Employer,79813,HF Sinclair,23-Oct,11/2/2023,79704,HF Sinclair,5000.0,0.0,5000.0,206.98,0.0,0.0,0.0,0.0,0.0,206.98,5206.98,79813,Direct,,,View report (https://accesshub.pdc.wa.gov/node/109609),Energy and utilities,"LCFS, cap-and-trade, energy, employment law, taxes","Legislature, Ecology, Gov's office, Commerce"
15026,109609-82755,109609,FE,17653,BRANDON HOUSKEEPER,Employer,82755,American Family Life Assurance Company (AFLAC),23-Oct,11/2/2023,16074,American Family Life Assurance Company (AFLAC),1500.0,0.0,1500.0,0.0,0.0,0.0,0.0,0.0,0.0,0.0,1500.0,82755,Direct,,,View report (https://accesshub.pdc.wa.gov/node/109609),Financial institutions and insurance,Insurance,"Legislature, Office of Insurance Commissioner"
15027,109609-94758,109609,FE,17653,BRANDON HOUSKEEPER,Employer,94758,AMERICAN WOOD COUNCIL,23-Oct,11/2/2023,16125,AMERICAN WOOD COUNCIL,6000.0,0.0,6000.0,0.0,0.0,0.0,0.0,0.0,0.0,0.0,6000.0,94758,Direct,,,View report (https://accesshub.pdc.wa.gov/node/109609),Energy and utilities,"cap-and-trade, forestry, energy, employment law, taxes","Ecology, Commerce, DNR, Legislature"
15028,109609-95124,109609,FE,17653,BRANDON HOUSKEEPER,Employer,95124,Southwest Washington Contractors Association,23-Oct,11/2/2023,95123,Southwest Washington Contractors Association,3500.0,0.0,3500.0,239.2,0.0,0.0,0.0,0.0,0.0,239.2,3739.2,95124,Direct,,,View report (https://accesshub.pdc.wa.gov/node/109609),Transportation,"Infrastructure, Taxes, building codes, energy / decarbonization, employment law, land use","Legislture, Executive Agencies, Building Code Council, Ecology, DNR"
15029,109609-96918,109609,FE,17653,BRANDON HOUSKEEPER,Employer,96918,NW GROCERY ASSN,23-Oct,11/2/2023,16707,NW GROCERY ASSN,7000.0,0.0,7000.0,383.46,0.0,0.0,0.0,0.0,0.0,383.46,7383.46,96918,Direct,,,View report (https://accesshub.pdc.wa.gov/node/109609),Business and consumer affairs,"Energy, Environment, Taxes, Retail Theft, Grocery Issues","Legislature, Executive Agencies, Attorney General"
15030,107346-51666,107346,FE,27257,Paribello Public Affairs,Employer,51666,Ilani Resort and Casino,23-Jul,11/2/2023,51060,Ilani Resort and Casino,5000.0,0.0,5000.0,0.0,0.0,0.0,0.0,0.0,0.0,0.0,5000.0,51666,Direct,,,View report (https://accesshub.pdc.wa.gov/node/107346),State government,"Gaming, Environment, Natural Resources, Transportation","Legislators, Governor, WSGC"
15031,107346-66238,107346,FE,27257,Paribello Public Affairs,Employer,66238,King County Medical Society,23-Jul,11/2/2023,66236,King County Medical Society,2000.0,0.0,2000.0,0.0,0.0,0.0,0.0,0.0,0.0,0.0,2000.0,66238,Direct,,,View report (https://accesshub.pdc.wa.gov/node/107346),Health Care,health care matters,House and Senate members
15032,107346-83390,107346,FE,27257,Paribello Public Affairs,Employer,83390,Washington Sun and Craft Grower's Association (BMcConsulting),23-Jul,11/2/2023,43434,Washington Sun and Craft Grower's Association,250.0,0.0,250.0,0.0,0.0,0.0,0.0,0.0,0.0,0.0,250.0,83390,Subcontract,26001.0,BMcConsulting,View report (https://accesshub.pdc.wa.gov/node/107346),,,
15033,107346-85006,107346,FE,27257,Paribello Public Affairs,Employer,85006,Washington Solar Energy Industries Association,23-Jul,11/2/2023,16929,Washington Solar Energy Industries Association,2000.0,0.0,2000.0,0.0,0.0,0.0,0.0,0.0,0.0,0.0,2000.0,85006,Direct,,,View report (https://accesshub.pdc.wa.gov/node/107346),Energy and utilities,Clean Energy,"Legislature, Governor, Commerce"
15034,107346-98644,107346,FE,27257,Paribello Public Affairs,Employer,98644,Swinomish Indian Tribal Community,23-Jul,11/2/2023,16963,Swinomish Indian Tribal Community,5000.0,0.0,5000.0,0.0,0.0,0.0,0.0,0.0,0.0,0.0,5000.0,98644,Direct,,,View report (https://accesshub.pdc.wa.gov/node/107346),,,
15035,107346-100107,107346,FE,27257,Paribello Public Affairs,Employer,100107,Save Our Wild Salmon,23-Jul,11/2/2023,51766,Save Our Wild Salmon,3000.0,0.0,3000.0,0.0,0.0,0.0,0.0,0.0,0.0,0.0,3000.0,100107,Direct,,,View report (https://accesshub.pdc.wa.gov/node/107346),,,
15036,106305-51666,106305,FE,27257,Paribello Public Affairs,Employer,51666,Ilani Resort and Casino,23-Jun,11/2/2023,51060,Ilani Resort and Casino,5000.0,0.0,5000.0,0.0,0.0,0.0,0.0,0.0,0.0,0.0,5000.0,51666,Direct,,,View report (https://accesshub.pdc.wa.gov/node/106305),State government,"Gaming, Environment, Natural Resources, Transportation","Legislators, Governor, WSGC"
15037,106305-66238,106305,FE,27257,Paribello Public Affairs,Employer,66238,King County Medical Society,23-Jun,11/2/2023,66236,King County Medical Society,2000.0,0.0,2000.0,0.0,0.0,0.0,0.0,0.0,0.0,0.0,2000.0,66238,Direct,,,View report (https://accesshub.pdc.wa.gov/node/106305),Health Care,health care matters,House and Senate members
15038,106305-83390,106305,FE,27257,Paribello Public Affairs,Employer,83390,Washington Sun and Craft Grower's Association (BMcConsulting),23-Jun,11/2/2023,43434,Washington Sun and Craft Grower's Association,250.0,0.0,250.0,0.0,0.0,0.0,0.0,0.0,0.0,0.0,250.0,83390,Subcontract,26001.0,BMcConsulting,View report (https://accesshub.pdc.wa.gov/node/106305),,,
15039,106305-85006,106305,FE,27257,Paribello Public Affairs,Employer,85006,Washington Solar Energy Industries Association,23-Jun,11/2/2023,16929,Washington Solar Energy Industries Association,2000.0,0.0,2000.0,0.0,0.0,0.0,0.0,0.0,0.0,0.0,2000.0,85006,Direct,,,View report (https://accesshub.pdc.wa.gov/node/106305),Energy and utilities,Clean Energy,"Legislature, Governor, Commerce"
15040,105047-51666,105047,FE,27257,Paribello Public Affairs,Employer,51666,Ilani Resort and Casino,23-Apr,11/2/2023,51060,Ilani Resort and Casino,5000.0,0.0,5000.0,0.0,0.0,0.0,0.0,0.0,0.0,0.0,5000.0,51666,Direct,,,View report (https://accesshub.pdc.wa.gov/node/105047),State government,"Gaming, Environment, Natural Resources, Transportation","Legislators, Governor, WSGC"
15041,105047-66238,105047,FE,27257,Paribello Public Affairs,Employer,66238,King County Medical Society,23-Apr,11/2/2023,66236,King County Medical Society,2000.0,0.0,2000.0,0.0,0.0,0.0,0.0,0.0,0.0,0.0,2000.0,66238,Direct,,,View report (https://accesshub.pdc.wa.gov/node/105047),Health Care,health care matters,House and Senate members
15042,105047-83390,105047,FE,27257,Paribello Public Affairs,Employer,83390,Washington Sun and Craft Grower's Association (BMcConsulting),23-Apr,11/2/2023,43434,Washington Sun and Craft Grower's Association,1250.0,0.0,1250.0,0.0,0.0,0.0,0.0,0.0,0.0,0.0,1250.0,83390,Subcontract,26001.0,BMcConsulting,View report (https://accesshub.pdc.wa.gov/node/105047),,,
15043,105047-85006,105047,FE,27257,Paribello Public Affairs,Employer,85006,Washington Solar Energy Industries Association,23-Apr,11/2/2023,16929,Washington Solar Energy Industries Association,2000.0,0.0,2000.0,0.0,0.0,0.0,0.0,0.0,0.0,0.0,2000.0,85006,Direct,,,View report (https://accesshub.pdc.wa.gov/node/105047),Energy and utilities,Clean Energy,"Legislature, Governor, Commerce"
15044,105047-91561,105047,FE,27257,Paribello Public Affairs,Employer,91561,WA TOURISM ALLIANCE (Bogard & Johnson LLC),23-Apr,11/2/2023,16987,WA TOURISM ALLIANCE,2000.0,0.0,2000.0,0.0,0.0,0.0,0.0,0.0,0.0,0.0,2000.0,91561,Subcontract,17393.0,Bogard & Johnson LLC,View report (https://accesshub.pdc.wa.gov/node/105047),,,
15045,105047-99523,105047,FE,27257,Paribello Public Affairs,Employer,99523,Psychedelic Medicine Alliance of Washington,23-Apr,11/2/2023,98921,Psychedelic Medicine Alliance of Washington,3000.0,0.0,3000.0,0.0,0.0,0.0,0.0,0.0,0.0,0.0,3000.0,99523,Direct,,,View report (https://accesshub.pdc.wa.gov/node/105047),Health Care,Health Care,Legislative Health Care Committees and members
15046,102422-51666,102422,FE,27257,Paribello Public Affairs,Employer,51666,Ilani Resort and Casino,23-Feb,11/2/2023,51060,Ilani Resort and Casino,5000.0,0.0,5000.0,0.0,0.0,0.0,0.0,0.0,0.0,0.0,5000.0,51666,Direct,,,View report (https://accesshub.pdc.wa.gov/node/102422),State government,"Gaming, Environment, Natural Resources, Transportation","Legislators, Governor, WSGC"
15047,102422-66238,102422,FE,27257,Paribello Public Affairs,Employer,66238,King County Medical Society,23-Feb,11/2/2023,66236,King County Medical Society,2000.0,0.0,2000.0,0.0,0.0,0.0,0.0,0.0,0.0,0.0,2000.0,66238,Direct,,,View report (https://accesshub.pdc.wa.gov/node/102422),Health Care,health care matters,House and Senate members
15048,102422-83390,102422,FE,27257,Paribello Public Affairs,Employer,83390,Washington Sun and Craft Grower's Association (BMcConsulting),23-Feb,11/2/2023,43434,Washington Sun and Craft Grower's Association,1250.0,0.0,1250.0,0.0,0.0,0.0,0.0,0.0,0.0,0.0,1250.0,83390,Subcontract,26001.0,BMcConsulting,View report (https://accesshub.pdc.wa.gov/node/102422),,,
15049,102422-85006,102422,FE,27257,Paribello Public Affairs,Employer,85006,Washington Solar Energy Industries Association,23-Feb,11/2/2023,16929,Washington Solar Energy Industries Association,2000.0,0.0,2000.0,0.0,0.0,0.0,0.0,0.0,0.0,0.0,2000.0,85006,Direct,,,View report (https://accesshub.pdc.wa.gov/node/102422),Energy and utilities,Clean Energy,"Legislature, Governor, Commerce"
15050,102422-91561,102422,FE,27257,Paribello Public Affairs,Employer,91561,WA TOURISM ALLIANCE (Bogard & Johnson LLC),23-Feb,11/2/2023,16987,WA TOURISM ALLIANCE,2000.0,0.0,2000.0,0.0,0.0,0.0,0.0,0.0,0.0,0.0,2000.0,91561,Subcontract,17393.0,Bogard & Johnson LLC,View report (https://accesshub.pdc.wa.gov/node/102422),,,
15051,102422-98644,102422,FE,27257,Paribello Public Affairs,Employer,98644,Swinomish Indian Tribal Community,23-Feb,11/2/2023,16963,Swinomish Indian Tribal Community,5000.0,0.0,5000.0,0.0,0.0,0.0,0.0,0.0,0.0,0.0,5000.0,98644,Direct,,,View report (https://accesshub.pdc.wa.gov/node/102422),,,
15052,102422-99523,102422,FE,27257,Paribello Public Affairs,Employer,99523,Psychedelic Medicine Alliance of Washington,23-Feb,11/2/2023,98921,Psychedelic Medicine Alliance of Washington,3000.0,0.0,3000.0,0.0,0.0,0.0,0.0,0.0,0.0,0.0,3000.0,99523,Direct,,,View report (https://accesshub.pdc.wa.gov/node/102422),Health Care,Health Care,Legislative Health Care Committees and members
15053,99446-51666,99446,FE,27257,Paribello Public Affairs,Employer,51666,Ilani Resort and Casino,22-Dec,11/2/2023,51060,Ilani Resort and Casino,5000.0,0.0,5000.0,0.0,0.0,0.0,0.0,0.0,0.0,0.0,5000.0,51666,Direct,,,View report (https://accesshub.pdc.wa.gov/node/99446),State government,"Gaming, Environment, Natural Resources, Transportation","Legislators, Governor, WSGC"
15054,99446-66238,99446,FE,27257,Paribello Public Affairs,Employer,66238,King County Medical Society,22-Dec,11/2/2023,66236,King County Medical Society,2000.0,0.0,2000.0,0.0,0.0,0.0,0.0,0.0,0.0,0.0,2000.0,66238,Direct,,,View report (https://accesshub.pdc.wa.gov/node/99446),Health Care,health care matters,House and Senate members
15055,99446-83390,99446,FE,27257,Paribello Public Affairs,Employer,83390,Washington Sun and Craft Grower's Association (BMcConsulting),22-Dec,11/2/2023,43434,Washington Sun and Craft Grower's Association,625.0,0.0,625.0,0.0,0.0,0.0,0.0,0.0,0.0,0.0,625.0,83390,Subcontract,26001.0,BMcConsulting,View report (https://accesshub.pdc.wa.gov/node/99446),,,
15056,99446-85006,99446,FE,27257,Paribello Public Affairs,Employer,85006,Washington Solar Energy Industries Association,22-Dec,11/2/2023,16929,Washington Solar Energy Industries Association,2000.0,0.0,2000.0,0.0,0.0,0.0,0.0,0.0,0.0,0.0,2000.0,85006,Direct,,,View report (https://accesshub.pdc.wa.gov/node/99446),Energy and utilities,Clean Energy,"Legislature, Governor, Commerce"
15057,99446-91561,99446,FE,27257,Paribello Public Affairs,Employer,91561,WA TOURISM ALLIANCE (Bogard & Johnson LLC),22-Dec,11/2/2023,16987,WA TOURISM ALLIANCE,2000.0,0.0,2000.0,0.0,0.0,0.0,0.0,0.0,0.0,0.0,2000.0,91561,Subcontract,17393.0,Bogard & Johnson LLC,View report (https://accesshub.pdc.wa.gov/node/99446),,,
15058,99446-98644,99446,FE,27257,Paribello Public Affairs,Employer,98644,Swinomish Indian Tribal Community,22-Dec,11/2/2023,16963,Swinomish Indian Tribal Community,5000.0,0.0,5000.0,0.0,0.0,0.0,0.0,0.0,0.0,0.0,5000.0,98644,Direct,,,View report (https://accesshub.pdc.wa.gov/node/99446),,,
15060,108923-108888,108923,FE,108882,Linda Garcia,Employer,108888,WA State Community Action Partnership,23-Jan,11/2/2023,17226,WA State Community Action Partnership,620.28,0.0,620.28,0.0,0.0,0.0,0.0,0.0,0.0,0.0,620.28,108888,Direct,,,View report (https://accesshub.pdc.wa.gov/node/108923),Human services,CSBG State Proviso Funding,"Senator Nguyen, Representative Lekanoff"
15061,108925-108888,108925,FE,108882,Linda Garcia,Employer,108888,WA State Community Action Partnership,23-Feb,11/2/2023,17226,WA State Community Action Partnership,1103.51,0.0,1103.51,0.0,0.0,0.0,0.0,0.0,0.0,0.0,1103.51,108888,Direct,,,View report (https://accesshub.pdc.wa.gov/node/108925),Human services,"HB1474, SB5496",Housing
15062,109555-108888,109555,FE,108882,Linda Garcia,Employer,108888,WA State Community Action Partnership,23-Mar,11/2/2023,17226,WA State Community Action Partnership,973.69,0.0,973.69,0.0,0.0,0.0,0.0,0.0,0.0,0.0,973.69,108888,Direct,,,View report (https://accesshub.pdc.wa.gov/node/109555),Energy and utilities,"HB1391, HB1589, HB1250",Environment and Energy Comm; Representative Ramel; Representative Doglio; Senator Nguyen; Senate Housing Committee
15064,109626-83356,109626,FE,48588,Matt Miller,Employer,83356,PUGET SOUND ENERGY INC,23-Sep,11/2/2023,16828,PUGET SOUND ENERGY INC,9000.0,0.0,9000.0,0.0,112.96,0.0,0.0,0.0,0.0,112.96,9112.96,83356,Direct,,,View report (https://accesshub.pdc.wa.gov/node/109626),Energy and utilities,Utilities' issues,"Energy committees, state building code council, Dept. of Commerce, Governor's office"
15066,109624-18970,109624,FE,17642,JAN HIMEBAUGH,Employer,18970,BUILDING INDUSTRY ASSN OF WA,23-Oct,11/2/2023,16215,BUILDING INDUSTRY ASSN OF WA,500.0,0.0,500.0,0.0,0.0,200.0,0.0,0.0,0.0,200.0,700.0,18970,Direct,,,View report (https://accesshub.pdc.wa.gov/node/109624),Local government,Impact Fees,Representative Bateman
15067,109630-101661,109630,FE,101659,Tricia Gullion,Employer,101661,BUILDING INDUSTRY ASSN OF WA,23-Oct,11/2/2023,16215,BUILDING INDUSTRY ASSN OF WA,500.0,0.0,500.0,0.0,0.0,0.0,0.0,0.0,0.0,0.0,500.0,101661,Direct,,,View report (https://accesshub.pdc.wa.gov/node/109630),Local government,Impact Fees,Representative Bateman
15068,109556-108888,109556,FE,108882,Linda Garcia,Employer,108888,WA State Community Action Partnership,23-Apr,11/2/2023,17226,WA State Community Action Partnership,533.73,0.0,533.73,0.0,0.0,0.0,0.0,0.0,0.0,0.0,533.73,108888,Direct,,,View report (https://accesshub.pdc.wa.gov/node/109556),Energy and utilities,HB1589,"Representative Doglio, Senator Nguyen"
15069,109632-99947,109632,FE,97726,Veronica Vanslyke,Employer,99947,AMERICAN FAMILY MUTUAL INSURANCE,23-Oct,11/2/2023,16103,AMERICAN FAMILY MUTUAL INSURANCE,12500.0,0.0,12500.0,0.0,0.0,0.0,0.0,0.0,0.0,0.0,12500.0,99947,Direct,,,View report (https://accesshub.pdc.wa.gov/node/109632),Business and consumer affairs,Insurance,"House & Senate Committees on Insurance, Office of the Insurance Commissioner"
15070,109638-84763,109638,FE,70469,Johns-Brown Governmental Relations,Employer,84763,Innovations Human Trafficking Collaborative,23-Oct,11/2/2023,84627,Innovations Human Trafficking Collaborative,2000.0,0.0,2000.0,0.0,0.0,0.0,0.0,0.0,0.0,0.0,2000.0,84763,Direct,,,View report (https://accesshub.pdc.wa.gov/node/109638),Law and justice,5614,House Regulated Substances and Gaming/Sen. Labor and St/Local Government
15071,109638-94737,109638,FE,70469,Johns-Brown Governmental Relations,Employer,94737,HCFA-WA,23-Oct,11/2/2023,52891,HCFA-WA,3000.0,0.0,3000.0,0.0,0.0,0.0,0.0,0.0,0.0,0.0,3000.0,94737,Direct,,,View report (https://accesshub.pdc.wa.gov/node/109638),,,
15072,109638-109241,109638,FE,70469,Johns-Brown Governmental Relations,Employer,109241,Full Life Care ,23-Oct,11/2/2023,107902,Full Life Care ,2500.0,0.0,2500.0,0.0,0.0,0.0,0.0,0.0,0.0,0.0,2500.0,109241,Direct,,,View report (https://accesshub.pdc.wa.gov/node/109638),,,
15073,109642-18883,109642,FE,17593,SEAN N GRAHAM,Employer,18883,WA ST MEDICAL ASSN,23-Oct,11/2/2023,17261,WA ST MEDICAL ASSN,4333.0,0.0,4333.0,608.0,0.0,0.0,0.0,0.0,0.0,608.0,4941.0,18883,Direct,,,View report (https://accesshub.pdc.wa.gov/node/109642),Health Care,Multiple,Multiple
15074,109642-59537,109642,FE,17593,SEAN N GRAHAM,Employer,59537,WA ST SOCIETY OF ANESTHESIOLOGISTS,23-Oct,11/2/2023,17283,WA ST SOCIETY OF ANESTHESIOLOGISTS,500.0,0.0,500.0,0.0,0.0,0.0,0.0,0.0,0.0,0.0,500.0,59537,Direct,,,View report (https://accesshub.pdc.wa.gov/node/109642),,,
15075,109642-106646,109642,FE,17593,SEAN N GRAHAM,Employer,106646,"WA Chapter, ACEP",23-Oct,11/2/2023,17069,"WA Chapter, ACEP",1500.0,0.0,1500.0,0.0,0.0,0.0,0.0,0.0,0.0,0.0,1500.0,106646,Direct,,,View report (https://accesshub.pdc.wa.gov/node/109642),Health Care,Multiple,Multiple
15076,109634-106772,109634,FE,39264,Malorie Toman,Employer,106772,WA ST MEDICAL ASSN,23-Oct,11/2/2023,17261,WA ST MEDICAL ASSN,2600.0,0.0,2600.0,178.5,0.0,0.0,0.0,0.0,0.0,178.5,2778.5,106772,Direct,,,View report (https://accesshub.pdc.wa.gov/node/109634),Health Care,Multiple,Multiple
15077,109644-50642,109644,FE,50641,Karen Lang,Employer,50642,PEMCO Insurance,23-Sep,11/2/2023,16770,PEMCO Insurance,500.0,0.0,500.0,0.0,0.0,0.0,0.0,0.0,0.0,0.0,500.0,50642,Direct,,,View report (https://accesshub.pdc.wa.gov/node/109644),Business and consumer affairs,Insurance,"Consumer Protection and Business committee, OIC"
15078,109646-37661,109646,FE,37660,Tim Strickland,Employer,37661,PEACEHEALTH,23-Oct,11/2/2023,16934,PEACEHEALTH,2400.0,0.0,2400.0,0.0,0.0,0.0,0.0,0.0,0.0,0.0,2400.0,37661,Direct,,,View report (https://accesshub.pdc.wa.gov/node/109646),Health Care,Provider/payer contracting; workforce shortages,"Senator Shewmake, Rep Timmons"
15079,108746-19547,108746,FE,17920,G SCOTT RICHARDS,Employer,19547,THE NATURE CONSERVANCY,23-Aug,11/2/2023,16677,THE NATURE CONSERVANCY,5500.0,0.0,5500.0,0.0,0.0,0.0,0.0,0.0,0.0,0.0,5500.0,19547,Direct,,,View report (https://accesshub.pdc.wa.gov/node/108746),Environmental Affairs - natural resources - parks,"Climate Policy, Flood Risk Reduction, Community Forests, GMA and Climate","H Cap Budget, S WM, H EE, S EET, H RDAN, S AGWR, Department of Ecology, Governor's Office"
15080,108746-19548,108746,FE,17920,G SCOTT RICHARDS,Employer,19548,WA PUBLIC UTILITIES DISTS ASSN,23-Aug,11/2/2023,17176,WA PUBLIC UTILITIES DISTS ASSN,4120.0,0.0,4120.0,100.0,0.0,0.0,0.0,0.0,0.0,100.0,4220.0,19548,Direct,,,View report (https://accesshub.pdc.wa.gov/node/108746),Technology,Broadband Deployment and Funding,"H CED, S EET, H APP, S WM, Governor's Office, Statewide Broadband Office, Department of Commerce"
15081,108746-37088,108746,FE,17920,G SCOTT RICHARDS,Employer,37088,Clean Fuels Alliance America,23-Aug,11/2/2023,37026,Clean Fuels Alliance America,3222.22,0.0,3222.22,0.0,0.0,0.0,0.0,0.0,0.0,0.0,3222.22,37088,Direct,,,View report (https://accesshub.pdc.wa.gov/node/108746),Environmental Affairs - natural resources - parks,Alternative Jet Fuels (SB 5447),"H EE, S EET"
15082,109633-19547,109633,FE,17920,G SCOTT RICHARDS,Employer,19547,THE NATURE CONSERVANCY,23-Sep,11/2/2023,16677,THE NATURE CONSERVANCY,5500.0,0.0,5500.0,0.0,0.0,0.0,0.0,0.0,0.0,0.0,5500.0,19547,Direct,,,View report (https://accesshub.pdc.wa.gov/node/109633),Environmental Affairs - natural resources - parks,"Climate Policy, Flood Risk Reduction, Community Forests, GMA and Climate","H Cap Budget, S WM, H EE, S EET, H RDAN, S AGWR, Department of Ecology, Governor's Office"
15083,109633-19548,109633,FE,17920,G SCOTT RICHARDS,Employer,19548,WA PUBLIC UTILITIES DISTS ASSN,23-Sep,11/2/2023,17176,WA PUBLIC UTILITIES DISTS ASSN,4120.0,0.0,4120.0,100.0,0.0,0.0,0.0,0.0,0.0,100.0,4220.0,19548,Direct,,,View report (https://accesshub.pdc.wa.gov/node/109633),Technology,Broadband Deployment and Funding,"H CED, S EET, H APP, S WM, Governor's Office, Statewide Broadband Office, Department of Commerce"
15084,109633-37088,109633,FE,17920,G SCOTT RICHARDS,Employer,37088,Clean Fuels Alliance America,23-Sep,11/2/2023,37026,Clean Fuels Alliance America,3222.22,0.0,3222.22,0.0,0.0,0.0,0.0,0.0,0.0,0.0,3222.22,37088,Direct,,,View report (https://accesshub.pdc.wa.gov/node/109633),Environmental Affairs - natural resources - parks,Alternative Jet Fuels (SB 5447),"H EE, S EET"
15085,109639-19613,109639,FE,17960,JEB C SHEPARD,Employer,19613,WA ST MEDICAL ASSN,23-Sep,11/2/2023,17261,WA ST MEDICAL ASSN,8000.0,0.0,8000.0,0.0,0.0,0.0,0.0,0.0,0.0,0.0,8000.0,19613,Direct,,,View report (https://accesshub.pdc.wa.gov/node/109639),,,
15086,109645-50642,109645,FE,50641,Karen Lang,Employer,50642,PEMCO Insurance,23-Oct,11/2/2023,16770,PEMCO Insurance,500.0,0.0,500.0,0.0,0.0,0.0,0.0,0.0,0.0,0.0,500.0,50642,Direct,,,View report (https://accesshub.pdc.wa.gov/node/109645),Business and consumer affairs,Insurance,"Consumer Protection and Business committee, OIC"
15087,109648-19326,109648,FE,17827,STEPHEN F MULLIN,Employer,19326,WA ROUNDTABLE,23-Sep,11/2/2023,17178,WA ROUNDTABLE,1750.0,0.0,1750.0,0.0,0.0,0.0,0.0,0.0,0.0,0.0,1750.0,19326,Direct,,,View report (https://accesshub.pdc.wa.gov/node/109648),Education,Various,Various
15088,106305-98644,106305,FE,27257,Paribello Public Affairs,Employer,98644,Swinomish Indian Tribal Community,23-Jun,11/2/2023,16963,Swinomish Indian Tribal Community,5000.0,0.0,5000.0,0.0,0.0,0.0,0.0,0.0,0.0,0.0,5000.0,98644,Direct,,,View report (https://accesshub.pdc.wa.gov/node/106305),,,
15089,105047-98644,105047,FE,27257,Paribello Public Affairs,Employer,98644,Swinomish Indian Tribal Community,23-Apr,11/2/2023,16963,Swinomish Indian Tribal Community,5000.0,0.0,5000.0,0.0,0.0,0.0,0.0,0.0,0.0,0.0,5000.0,98644,Direct,,,View report (https://accesshub.pdc.wa.gov/node/105047),,,
15090,99446-100690,99446,FE,27257,Paribello Public Affairs,Employer,100690,Coalition for Community Solar Access,22-Dec,11/2/2023,100583,Coalition for Community Solar Access,1548.39,0.0,1548.39,0.0,0.0,0.0,0.0,0.0,0.0,0.0,1548.39,100690,Direct,,,View report (https://accesshub.pdc.wa.gov/node/99446),,,
15091,105047-100690,105047,FE,27257,Paribello Public Affairs,Employer,100690,Coalition for Community Solar Access,23-Apr,11/2/2023,100583,Coalition for Community Solar Access,3000.0,0.0,3000.0,0.0,0.0,0.0,0.0,0.0,0.0,0.0,3000.0,100690,Direct,,,View report (https://accesshub.pdc.wa.gov/node/105047),Energy and utilities,Solar,All House Senate Energy
15092,102422-100690,102422,FE,27257,Paribello Public Affairs,Employer,100690,Coalition for Community Solar Access,23-Feb,11/2/2023,100583,Coalition for Community Solar Access,3000.0,0.0,3000.0,0.0,0.0,0.0,0.0,0.0,0.0,0.0,3000.0,100690,Direct,,,View report (https://accesshub.pdc.wa.gov/node/102422),Energy and utilities,Solar,All House Senate Energy
15093,109661-27140,109661,FE,17372,BRUCE K BECKETT,Employer,27140,PORT OF MOSES LAKE,23-Oct,11/3/2023,16802,PORT OF MOSES LAKE,3500.0,0.0,3500.0,446.43,0.0,0.0,0.0,0.0,0.0,446.43,3946.43,27140,Direct,,,View report (https://accesshub.pdc.wa.gov/node/109661),State government,"Aviation; Economic Development, Tax Increment Financing",13th District Legislators; House/Senate Transportation Committees
15094,109661-29456,109661,FE,17372,BRUCE K BECKETT,Employer,29456,Wenatchee Valley Chamber of Commerce,23-Oct,11/3/2023,28448,Wenatchee Valley Chamber of Commerce,3750.0,0.0,3750.0,0.0,0.0,0.0,0.0,0.0,0.0,0.0,3750.0,29456,Direct,,,View report (https://accesshub.pdc.wa.gov/node/109661),State government,transportation; tourism; wildfire,12th District legislators; House/Senate Housing Committees; 7th District
15095,109661-32598,109661,FE,17372,BRUCE K BECKETT,Employer,32598,Port of Port Angeles,23-Oct,11/3/2023,32592,Port of Port Angeles,4000.0,0.0,4000.0,0.0,0.0,0.0,0.0,0.0,0.0,0.0,4000.0,32598,Direct,,,View report (https://accesshub.pdc.wa.gov/node/109661),State government,Stormwater; DNR Timber Supply,24th District Legislators; House/Senate NR Committees
15096,109661-38993,109661,FE,17372,BRUCE K BECKETT,Employer,38993,WA RETAIL ASSN,23-Oct,11/3/2023,17180,WA RETAIL ASSN,4800.0,0.0,4800.0,791.89,0.0,0.0,0.0,0.0,0.0,791.89,5591.89,38993,Direct,,,View report (https://accesshub.pdc.wa.gov/node/109661),Labor,Return to Work; Long Term Care; Paid Family and Medical Leave,"House/Senate Labor Committees; Dept. of Labor and Industries; ESD, Unemployment Insurance Advisory Committee,"
15097,109661-46893,109661,FE,17372,BRUCE K BECKETT,Employer,46893,AMERICAN FOREST RESOURCE CNCL,23-Oct,11/3/2023,16105,AMERICAN FOREST RESOURCE CNCL,3600.0,0.0,3600.0,96.94,0.0,0.0,0.0,0.0,0.0,96.94,3696.94,46893,Direct,,,View report (https://accesshub.pdc.wa.gov/node/109661),Environmental Affairs - natural resources - parks,DNR Sustainable Harvest;,House/Senate Natural Resource Committee members; DNR; Governor's Office
15098,109661-87238,109661,FE,17372,BRUCE K BECKETT,Employer,87238,Port of Olympia,23-Oct,11/3/2023,74038,Port of Olympia,3500.0,0.0,3500.0,49.78,0.0,0.0,0.0,0.0,0.0,49.78,3549.78,87238,Direct,,,View report (https://accesshub.pdc.wa.gov/node/109661),State government,"Budd Inlet, Airport land use, Deschutes Estuary","22,35, 2, and 20 District legislators; House/Senate Capital Budget Leaders"
15099,109661-93536,109661,FE,17372,BRUCE K BECKETT,Employer,93536,PUD No. 1 of Douglas County,23-Oct,11/3/2023,50686,PUD No. 1 of Douglas County,4800.0,0.0,4800.0,431.64,0.0,0.0,0.0,0.0,0.0,431.64,5231.64,93536,Direct,,,View report (https://accesshub.pdc.wa.gov/node/109661),Energy and utilities,Heat Shutoff; Hatcheries; Transportation;,House/Senate Energy Committees; 7th District Legislators ; Dept. of Ecology
15100,109665-95286,109665,FE,95285,Adam Zarrin,Employer,95286,LEUKEMIA & LYMPHOMA SOCIETY,23-Oct,11/3/2023,16597,LEUKEMIA & LYMPHOMA SOCIETY,208.0,0.0,208.0,0.0,0.0,0.0,0.0,0.0,0.0,0.0,208.0,95286,Direct,,,View report (https://accesshub.pdc.wa.gov/node/109665),Health Care,Medical Debt,"Rep. Marcus Riccelli, House Committee on Consumer Protection"
15101,109666-19816,109666,FE,18044,ANDREA M TULL,Employer,19816,Centene Corporation on behalf of its affiliates and subsidiaries,23-Oct,11/3/2023,16367,Centene Corporation on behalf of its affiliates and subsidiaries,2000.0,0.0,2000.0,0.0,0.0,0.0,0.0,0.0,0.0,0.0,2000.0,19816,Direct,,,View report (https://accesshub.pdc.wa.gov/node/109666),Health Care,Medicaid,Legislature
15102,109668-18959,109668,FE,17631,TIM HERBERT,Employer,18959,WA State Assn of Plumbers & Pipefitters,23-Oct,11/3/2023,17275,WA State Assn of Plumbers & Pipefitters,362.12,0.0,362.12,0.0,0.0,0.0,0.0,0.0,0.0,0.0,362.12,18959,Direct,,,View report (https://accesshub.pdc.wa.gov/node/109668),Labor,"pipe trades, energy, compliance","House, Senate, L&I, Fire Marshal's office"
15116,109684-19568,109684,FE,17935,Nancy Sapiro,Employer,19568,JEWISH FEDERATION OF GREATER SEATTLE,23-Oct,11/3/2023,16559,JEWISH FEDERATION OF GREATER SEATTLE,2000.0,0.0,2000.0,0.0,0.0,0.0,0.0,0.0,0.0,0.0,2000.0,19568,Direct,,,View report (https://accesshub.pdc.wa.gov/node/109684),Education,Education,All Senate / House
15117,109684-19569,109684,FE,17935,Nancy Sapiro,Employer,19569,League of Women Voters Washington,23-Oct,11/3/2023,16590,League of Women Voters Washington,550.0,0.0,550.0,0.0,0.0,0.0,0.0,0.0,0.0,0.0,550.0,19569,Direct,,,View report (https://accesshub.pdc.wa.gov/node/109684),,,
15118,109684-23620,109684,FE,17935,Nancy Sapiro,Employer,23620,End of Life Washington,23-Oct,11/3/2023,16352,End of Life Washington,2500.0,0.0,2500.0,0.0,0.0,0.0,0.0,0.0,0.0,0.0,2500.0,23620,Direct,,,View report (https://accesshub.pdc.wa.gov/node/109684),Health Care,Health Care,Members of House and Senate
15119,109684-70148,109684,FE,17935,Nancy Sapiro,Employer,70148,CEDAR RIVER CLINICS,23-Oct,11/3/2023,16439,CEDAR RIVER CLINICS,1000.0,0.0,1000.0,0.0,0.0,0.0,0.0,0.0,0.0,0.0,1000.0,70148,Direct,,,View report (https://accesshub.pdc.wa.gov/node/109684),Health Care,Health Care,"Members of Senate and House, OIC and Governor's Office, AGO"
15120,109684-70151,109684,FE,17935,Nancy Sapiro,Employer,70151,AMERICAN CONGRESS OF OBSTETRICIANS AND GYNECOLOGISTS,23-Oct,11/3/2023,16099,AMERICAN CONGRESS OF OBSTETRICIANS AND GYNECOLOGISTS,2000.0,0.0,2000.0,0.0,0.0,0.0,0.0,0.0,0.0,0.0,2000.0,70151,Direct,,,View report (https://accesshub.pdc.wa.gov/node/109684),Health Care,Health Care,"Members of House and Senate, Governor's Office, OIC, AGO"
15121,109684-70415,109684,FE,17935,Nancy Sapiro,Employer,70415,CITY OF SEATTLE,23-Oct,11/3/2023,16311,CITY OF SEATTLE,6200.0,0.0,6200.0,0.0,0.0,0.0,0.0,0.0,0.0,0.0,6200.0,70415,Direct,,,View report (https://accesshub.pdc.wa.gov/node/109684),Local government,Local Government,Local Government
15122,109685-27593,109685,FE,27592,Hemstad Consulting,Employer,27593,City of Des Moines,23-Oct,11/3/2023,27571,City of Des Moines,4000.0,0.0,4000.0,0.0,0.0,0.0,0.0,0.0,0.0,0.0,4000.0,27593,Direct,,,View report (https://accesshub.pdc.wa.gov/node/109685),Fiscal,Capital budget allocations,fiscal committees
15123,109685-59583,109685,FE,27592,Hemstad Consulting,Employer,59583,King County Fire Protection District 39 DBA South King Fire & Rescue  ,23-Oct,11/3/2023,59576,King County Fire Protection District 39 DBA South King Fire & Rescue  ,4000.0,0.0,4000.0,0.0,0.0,0.0,0.0,0.0,0.0,0.0,4000.0,59583,Direct,,,View report (https://accesshub.pdc.wa.gov/node/109685),,,
15124,109685-98712,109685,FE,27592,Hemstad Consulting,Employer,98712,"Washington Housing Development, LLC",23-Oct,11/3/2023,98705,"Washington Housing Development, LLC",4000.0,-1600.0,2400.0,0.0,0.0,0.0,0.0,0.0,0.0,0.0,2400.0,98712,Direct,,,View report (https://accesshub.pdc.wa.gov/node/109685),Local government,Multifamily related legislation,Housing Committees and Commerce Dept
15125,109686-19730,109686,FE,18011,JOSHUA J SWANSON,Employer,19730,IUOE LOCAL 302,23-Oct,11/3/2023,16552,IUOE LOCAL 302,6193.56,0.0,6193.56,0.0,0.0,8402.0,0.0,0.0,0.0,8402.0,14595.56,19730,Direct,,,View report (https://accesshub.pdc.wa.gov/node/109686),Labor,"Public Safety, Prevailing Wage, Worker Comp, UI, Safety and Health, Transportation Capital Budget, Apprenticeship, Supplement Budget","Labor & Industries, Employment Security, Department of Transportation, House Appropriations, Senate Labor and Commerce, House Labor and Workforce Department, Senate and House Transportation, Senate Ways and Means, Senate and House Capital Budget."
15126,109687-103556,109687,FE,69692,Fernando Mejia-Ledesma,Employer,103556,Alliance for a Just Society,23-Oct,11/3/2023,51555,Alliance for a Just Society,7083.0,0.0,7083.0,0.0,0.0,0.0,0.0,0.0,0.0,0.0,7083.0,103556,Direct,,,View report (https://accesshub.pdc.wa.gov/node/109687),Higher education,Professional licensing & college affordability,Higher Education Committees
15127,109689-19617,109689,FE,17964,SCOTT C SIGMON,Employer,19617,WA ST CHAPTER OF ASSOC PUBLIC SAFETY COMMUNICATIONS OFFICIALS,23-Oct,11/4/2023,16158,WA ST CHAPTER OF ASSOC PUBLIC SAFETY COMMUNICATIONS OFFICIALS,3000.0,0.0,3000.0,0.0,0.0,0.0,0.0,0.0,0.0,0.0,3000.0,19617,Direct,,,View report (https://accesshub.pdc.wa.gov/node/109689),Local government,911 Telecommunicator Retirement,Department of Retirement Systems
15128,109689-19623,109689,FE,17964,SCOTT C SIGMON,Employer,19623,LEADINGAGE WA,23-Oct,11/4/2023,16588,LEADINGAGE WA,10000.0,0.0,10000.0,229.29,0.0,0.0,0.0,0.0,0.0,229.29,10229.29,19623,Direct,,,View report (https://accesshub.pdc.wa.gov/node/109689),Health Care,Long Term Care Funding,Governor's Office
15129,109689-19624,109689,FE,17964,SCOTT C SIGMON,Employer,19624,CONSUMER HEALTHCARE PRODUCTS ASSN,23-Oct,11/4/2023,16692,CONSUMER HEALTHCARE PRODUCTS ASSN,4500.0,0.0,4500.0,0.0,0.0,0.0,0.0,0.0,0.0,0.0,4500.0,19624,Direct,,,View report (https://accesshub.pdc.wa.gov/node/109689),Environmental Affairs - natural resources - parks,Packaging / Recycling,Department of Ecology
15130,109689-19625,109689,FE,17964,SCOTT C SIGMON,Employer,19625,PARTNERS IN CAREERS,23-Oct,11/4/2023,16764,PARTNERS IN CAREERS,1500.0,0.0,1500.0,0.0,0.0,0.0,0.0,0.0,0.0,0.0,1500.0,19625,Direct,,,View report (https://accesshub.pdc.wa.gov/node/109689),Human services,WorkForce Training,Career Connect Washington
15131,109689-19626,109689,FE,17964,SCOTT C SIGMON,Employer,19626,"UCB, INC",23-Oct,11/4/2023,17002,"UCB, INC",4166.66,0.0,4166.66,0.0,0.0,0.0,0.0,0.0,0.0,0.0,4166.66,19626,Direct,,,View report (https://accesshub.pdc.wa.gov/node/109689),Health Care,Prescription Drug Advisory Board,Health Care Authority
15132,109689-74067,109689,FE,17964,SCOTT C SIGMON,Employer,74067,"PeaceHealth Networks On Demand, LLC (The Holt Company)",23-Oct,11/4/2023,66198,"PeaceHealth Networks On Demand, LLC",4500.0,0.0,4500.0,0.0,0.0,0.0,0.0,0.0,0.0,0.0,4500.0,74067,Subcontract,66187.0,The Holt Company,View report (https://accesshub.pdc.wa.gov/node/109689),,,
15133,109689-97729,109689,FE,17964,SCOTT C SIGMON,Employer,97729,NW SPORTFISHING INDUSTRY ASSN,23-Oct,11/4/2023,16721,NW SPORTFISHING INDUSTRY ASSN,2500.0,0.0,2500.0,0.0,0.0,0.0,0.0,0.0,0.0,0.0,2500.0,97729,Direct,,,View report (https://accesshub.pdc.wa.gov/node/109689),Environmental Affairs - natural resources - parks,Columbia River Reforms,WDFW
15134,109689-98901,109689,FE,17964,SCOTT C SIGMON,Employer,98901,Ultragenyx Pharmaceutical Inc.,23-Oct,11/4/2023,96699,Ultragenyx Pharmaceutical Inc.,4200.0,0.0,4200.0,0.0,0.0,0.0,0.0,0.0,0.0,0.0,4200.0,98901,Direct,,,View report (https://accesshub.pdc.wa.gov/node/109689),Health Care,Rare Disease Advisory Board & Genome Sequencing,Representative Thai & Senator Holy
15135,109690-35141,109690,FE,35140,Dawn Rains,Employer,35141,TREEHOUSE,23-Mar,11/4/2023,16992,TREEHOUSE,846.16,0.0,846.16,0.0,0.0,0.0,0.0,0.0,0.0,0.0,846.16,35141,Direct,,,View report (https://accesshub.pdc.wa.gov/node/109690),Education,Foster youth education; foster and homeless student education,"Senate Human Services; House Human Services, Youth & Early Learning, Rep. Senn, Rep. Stonier"
15136,109030-18151,109030,FE,17339,Amber D Lewis Consulting LLC,Employer,18151,PORT OF CENTRALIA,23-Oct,11/4/2023,16795,PORT OF CENTRALIA,2500.0,0.0,2500.0,0.0,0.0,0.0,0.0,0.0,0.0,0.0,2500.0,18151,Direct,,,View report (https://accesshub.pdc.wa.gov/node/109030),Transportation,budget,Transportation and fiscal committees
15137,109030-18154,109030,FE,17339,Amber D Lewis Consulting LLC,Employer,18154,WA ASSN FOR MARRIAGE & FAMILY THERAPY,23-Oct,11/4/2023,17150,WA ASSN FOR MARRIAGE & FAMILY THERAPY,1835.0,0.0,1835.0,0.0,0.0,0.0,0.0,0.0,0.0,0.0,1835.0,18154,Direct,,,View report (https://accesshub.pdc.wa.gov/node/109030),Health Care,health care,"health care committees, DoH, OIC"
15138,109030-28146,109030,FE,17339,Amber D Lewis Consulting LLC,Employer,28146,PORT MADISON ENTERPRISES AN AGENCY OF THE SUQUAMISH TRIBE,23-Oct,11/4/2023,16801,PORT MADISON ENTERPRISES AN AGENCY OF THE SUQUAMISH TRIBE,8000.0,0.0,8000.0,0.0,0.0,5400.0,0.0,0.0,0.0,5400.0,13400.0,28146,Direct,,,View report (https://accesshub.pdc.wa.gov/node/109030),Environmental Affairs - natural resources - parks,tribal matters,"Commerce and Gaming, Tribal Affairs, Environment"
15139,109030-49861,109030,FE,17339,Amber D Lewis Consulting LLC,Employer,49861,CVS HEALTH,23-Oct,11/4/2023,16229,CVS HEALTH,6666.67,0.0,6666.67,0.0,0.0,0.0,0.0,0.0,0.0,0.0,6666.67,49861,Direct,,,View report (https://accesshub.pdc.wa.gov/node/109030),Health Care,health care,"health care committees, DoH, OIC, HCA"
15140,109030-73097,109030,FE,17339,Amber D Lewis Consulting LLC,Employer,73097,Weidner Property Management,23-Oct,11/4/2023,27172,Weidner Property Management,4000.0,0.0,4000.0,0.0,0.0,0.0,0.0,0.0,0.0,0.0,4000.0,73097,Direct,,,View report (https://accesshub.pdc.wa.gov/node/109030),Local government,Landlord / Tennant,All House Senate
15141,109030-73099,109030,FE,17339,Amber D Lewis Consulting LLC,Employer,73099,CONSOLIDATED BOOKKEEPING & MANAGEMENT SERVICES INC,23-Oct,11/4/2023,16357,CONSOLIDATED BOOKKEEPING & MANAGEMENT SERVICES INC,3000.0,0.0,3000.0,0.0,0.0,0.0,0.0,0.0,0.0,0.0,3000.0,73099,Direct,,,View report (https://accesshub.pdc.wa.gov/node/109030),Business and consumer affairs,LCB matters,"WA State Liquor and Cannabis board, Labor and Industries"
15142,109030-73610,109030,FE,17339,Amber D Lewis Consulting LLC,Employer,73610,AAA Washington,23-Oct,11/4/2023,16058,AAA Washington,3000.0,0.0,3000.0,0.0,0.0,0.0,0.0,0.0,0.0,0.0,3000.0,73610,Direct,,,View report (https://accesshub.pdc.wa.gov/node/109030),Transportation,Independent contractor and transportation issues,"Transportation and Labor committees, Labor and Industries, tow truck issues"
15143,109030-98236,109030,FE,17339,Amber D Lewis Consulting LLC,Employer,98236,"Baldwin Risk Partners, LLC",23-Oct,11/4/2023,98208,"Baldwin Risk Partners, LLC",4000.0,0.0,4000.0,0.0,0.0,0.0,0.0,0.0,0.0,0.0,4000.0,98236,Direct,,,View report (https://accesshub.pdc.wa.gov/node/109030),,,
15144,109030-100256,109030,FE,17339,Amber D Lewis Consulting LLC,Employer,100256,Kinship Health,23-Oct,11/4/2023,100214,Kinship Health,4500.0,0.0,4500.0,0.0,0.0,0.0,0.0,0.0,0.0,0.0,4500.0,100256,Direct,,,View report (https://accesshub.pdc.wa.gov/node/109030),,,
15145,109030-107956,109030,FE,17339,Amber D Lewis Consulting LLC,Employer,107956,Auto Club MAPFRE Insurance Company,23-Oct,11/4/2023,106791,Auto Club MAPFRE Insurance Company,3000.0,0.0,3000.0,0.0,0.0,0.0,0.0,0.0,0.0,0.0,3000.0,107956,Direct,,,View report (https://accesshub.pdc.wa.gov/node/109030),,,
15146,109698-19818,109698,FE,18045,Amber Ulvenes,Employer,19818,MIDWIVES ASSOCIATION OF WA STATE,23-Oct,11/4/2023,16637,MIDWIVES ASSOCIATION OF WA STATE,1500.0,0.0,1500.0,0.0,0.0,0.0,0.0,0.0,0.0,0.0,1500.0,19818,Direct,,,View report (https://accesshub.pdc.wa.gov/node/109698),Health Care,"licensing fees, doula reimbursement","dept of health, HCA"
15147,109698-19820,109698,FE,18045,Amber Ulvenes,Employer,19820,RESOLUTION WA,23-Oct,11/4/2023,16856,RESOLUTION WA,2500.0,0.0,2500.0,0.0,0.0,0.0,0.0,0.0,0.0,0.0,2500.0,19820,Direct,,,View report (https://accesshub.pdc.wa.gov/node/109698),Law and justice,DRC funding,"Dept of Commerce, Law & Justice and Judiciary Committees, OFM"
15148,109698-28555,109698,FE,18045,Amber Ulvenes,Employer,28555,Kaiser Foundation Health Plan of the Northwest,23-Oct,11/4/2023,16569,Kaiser Foundation Health Plan of the Northwest,1350.0,0.0,1350.0,0.0,0.0,0.0,0.0,0.0,0.0,0.0,1350.0,28555,Direct,,,View report (https://accesshub.pdc.wa.gov/node/109698),Health Care,Various health care issues,"Health Care Committees, HCA, OFM"
15149,109698-35034,109698,FE,18045,Amber Ulvenes,Employer,35034,AMERICAN ACADEMY OF PEDIATRICS-WA CHAPTER,23-Oct,11/4/2023,16090,AMERICAN ACADEMY OF PEDIATRICS-WA CHAPTER,3400.0,0.0,3400.0,0.0,0.0,0.0,0.0,0.0,0.0,0.0,3400.0,35034,Direct,,,View report (https://accesshub.pdc.wa.gov/node/109698),Health Care,"Medicaid reimbursement, children's mental health","HCA, Health Care Committees, appropriation committees"
15150,109698-48779,109698,FE,18045,Amber Ulvenes,Employer,48779,Kaiser Foundation Health Plan of Washington,23-Oct,11/4/2023,30206,Kaiser Foundation Health Plan of Washington,11000.0,0.0,11000.0,0.0,0.0,0.0,0.0,0.0,0.0,0.0,11000.0,48779,Direct,,,View report (https://accesshub.pdc.wa.gov/node/109698),Health Care,"PEBB, health insurance market","HCA, Health Care Committees, appropriation committees"
15151,109698-49486,109698,FE,18045,Amber Ulvenes,Employer,49486,Open Arms Perinatal Services,23-Oct,11/4/2023,49474,Open Arms Perinatal Services,1000.0,0.0,1000.0,0.0,0.0,0.0,0.0,0.0,0.0,0.0,1000.0,49486,Direct,,,View report (https://accesshub.pdc.wa.gov/node/109698),Health Care,Health Care,"HCA, Health Care Committees,"
15152,109698-95575,109698,FE,18045,Amber Ulvenes,Employer,95575,TEAMCHILD,23-Oct,11/4/2023,16976,TEAMCHILD,3000.0,0.0,3000.0,0.0,0.0,0.0,0.0,0.0,0.0,0.0,3000.0,95575,Direct,,,View report (https://accesshub.pdc.wa.gov/node/109698),,,
15153,109699-94503,109699,FE,94502,Brenda Snyder,Employer,94503,CVS HEALTH,23-Oct,11/4/2023,16229,CVS HEALTH,3000.0,0.0,3000.0,0.0,0.0,0.0,0.0,0.0,0.0,0.0,3000.0,94503,Direct,,,View report (https://accesshub.pdc.wa.gov/node/109699),Health Care,Health Care,All House Senate Health Care
15154,109701-18299,109701,FE,17401,Brynn Brady,Employer,18299,TACOMA-PIERCE CO HEALTH DEPT,23-Oct,11/4/2023,16967,TACOMA-PIERCE CO HEALTH DEPT,1250.0,0.0,1250.0,0.0,0.0,0.0,0.0,0.0,0.0,0.0,1250.0,18299,Direct,,,View report (https://accesshub.pdc.wa.gov/node/109701),Health Care,Health Care,All Health Senate House
15155,109701-27587,109701,FE,17401,Brynn Brady,Employer,27587,REGIONAL FISHERIES ENHANCEMENT GROUP COALITION,23-Oct,11/4/2023,16850,REGIONAL FISHERIES ENHANCEMENT GROUP COALITION,2400.0,0.0,2400.0,0.0,0.0,0.0,0.0,0.0,0.0,0.0,2400.0,27587,Direct,,,View report (https://accesshub.pdc.wa.gov/node/109701),Environmental Affairs - natural resources - parks,Environment,Environment Committees
15156,109701-29611,109701,FE,17401,Brynn Brady,Employer,29611,City of Woodinville,23-Oct,11/4/2023,29610,City of Woodinville,1224.0,0.0,1224.0,0.0,0.0,0.0,0.0,0.0,0.0,0.0,1224.0,29611,Direct,,,View report (https://accesshub.pdc.wa.gov/node/109701),Local government,Local Government,All House Senate Local Government
15157,109701-32040,109701,FE,17401,Brynn Brady,Employer,32040,WA STATE ASSN OF COUNTIES (WSAC),23-Oct,11/4/2023,17215,WA STATE ASSN OF COUNTIES (WSAC),2500.0,0.0,2500.0,0.0,0.0,0.0,0.0,0.0,0.0,0.0,2500.0,32040,Direct,,,View report (https://accesshub.pdc.wa.gov/node/109701),Local government,Local Government,Local Government
15158,109701-36168,109701,FE,17401,Brynn Brady,Employer,36168,AMAZON.COM SERVICES LLC,23-Oct,11/4/2023,16088,AMAZON.COM SERVICES LLC,4500.0,0.0,4500.0,0.0,0.0,0.0,0.0,0.0,0.0,0.0,4500.0,36168,Direct,,,View report (https://accesshub.pdc.wa.gov/node/109701),Technology,Technology,All Legislative Committees
15159,109701-60770,109701,FE,17401,Brynn Brady,Employer,60770,Audubon Washington,23-Oct,11/4/2023,17217,Audubon Washington,1375.0,0.0,1375.0,0.0,0.0,0.0,0.0,0.0,0.0,0.0,1375.0,60770,Direct,,,View report (https://accesshub.pdc.wa.gov/node/109701),Environmental Affairs - natural resources - parks,Environment,Environment Committees
15160,109701-60956,109701,FE,17401,Brynn Brady,Employer,60956,SPECIAL OLYMPICS WA,23-Oct,11/4/2023,16937,SPECIAL OLYMPICS WA,3000.0,0.0,3000.0,0.0,0.0,0.0,0.0,0.0,0.0,0.0,3000.0,60956,Direct,,,View report (https://accesshub.pdc.wa.gov/node/109701),Human services,Human Services,All House Senate
15161,109701-85098,109701,FE,17401,Brynn Brady,Employer,85098,Washington Association of Land Trusts,23-Oct,11/4/2023,78674,Washington Association of Land Trusts,3200.0,0.0,3200.0,0.0,0.0,0.0,0.0,0.0,0.0,0.0,3200.0,85098,Direct,,,View report (https://accesshub.pdc.wa.gov/node/109701),Environmental Affairs - natural resources - parks,Environment,Environment Committees
15162,109701-87454,109701,FE,17401,Brynn Brady,Employer,87454,WA ASSN OF CONSERVATION DISTRICTS,23-Oct,11/4/2023,17076,WA ASSN OF CONSERVATION DISTRICTS,3333.33,0.0,3333.33,0.0,0.0,0.0,0.0,0.0,0.0,0.0,3333.33,87454,Direct,,,View report (https://accesshub.pdc.wa.gov/node/109701),Environmental Affairs - natural resources - parks,Environment,Environment Committees
15163,109701-100023,109701,FE,17401,Brynn Brady,Employer,100023,BANK OF AMERICA CORP,23-Oct,11/4/2023,16887,BANK OF AMERICA CORP,5000.0,0.0,5000.0,0.0,0.0,0.0,0.0,0.0,0.0,0.0,5000.0,100023,Direct,,,View report (https://accesshub.pdc.wa.gov/node/109701),Business and consumer affairs,Finance,All House All Senate
15164,109701-100290,109701,FE,17401,Brynn Brady,Employer,100290,Novelis c/o MultiState Associates LLC,23-Oct,11/4/2023,100278,Novelis c/o MultiState Associates LLC,4500.0,0.0,4500.0,0.0,0.0,0.0,0.0,0.0,0.0,0.0,4500.0,100290,Direct,,,View report (https://accesshub.pdc.wa.gov/node/109701),Environmental Affairs - natural resources - parks,Recycling,All House Senate
15165,109701-100481,109701,FE,17401,Brynn Brady,Employer,100481,SANOFI US,23-Oct,11/4/2023,16178,SANOFI US,3300.0,0.0,3300.0,0.0,0.0,0.0,0.0,0.0,0.0,0.0,3300.0,100481,Direct,,,View report (https://accesshub.pdc.wa.gov/node/109701),Health Care,Pharmaceuticals,All House Senate
15166,109701-100494,109701,FE,17401,Brynn Brady,Employer,100494,Detente Management,23-Oct,11/4/2023,46391,Detente Management,3000.0,0.0,3000.0,0.0,0.0,0.0,0.0,0.0,0.0,0.0,3000.0,100494,Direct,,,View report (https://accesshub.pdc.wa.gov/node/109701),Business and consumer affairs,Landlord / Tenant,All S H Housing
15167,109701-107360,109701,FE,17401,Brynn Brady,Employer,107360,"Sumitomo Pharma America, Inc.",23-Oct,11/4/2023,107358,"Sumitomo Pharma America, Inc.",4500.0,0.0,4500.0,0.0,0.0,0.0,0.0,0.0,0.0,0.0,4500.0,107360,Direct,,,View report (https://accesshub.pdc.wa.gov/node/109701),,,
15168,109702-87241,109702,FE,87240,Donald Donovan,Employer,87241,Intl Assn of Machinists & Aerospace Workers Dist Lodge 751,23-Oct,11/4/2023,16072,Intl Assn of Machinists & Aerospace Workers Dist Lodge 751,2000.0,0.0,2000.0,0.0,0.0,0.0,0.0,0.0,0.0,0.0,2000.0,87241,Direct,,,View report (https://accesshub.pdc.wa.gov/node/109702),Transportation,Aerospace,All House Senate Transportation / Commerce
15169,109703-23618,109703,FE,17828,"Debora Munguia, Capitol Consulting",Employer,23618,BIG BROTHERS BIG SISTERS,23-Oct,11/4/2023,23606,BIG BROTHERS BIG SISTERS,5500.0,0.0,5500.0,0.0,0.0,0.0,0.0,0.0,0.0,0.0,5500.0,23618,Direct,,,View report (https://accesshub.pdc.wa.gov/node/109703),,,
15170,109703-48529,109703,FE,17828,"Debora Munguia, Capitol Consulting",Employer,48529,CITY OF CHENEY,23-Oct,11/4/2023,16277,CITY OF CHENEY,2000.0,0.0,2000.0,0.0,0.0,0.0,0.0,0.0,0.0,0.0,2000.0,48529,Direct,,,View report (https://accesshub.pdc.wa.gov/node/109703),,,
15171,109703-49366,109703,FE,17828,"Debora Munguia, Capitol Consulting",Employer,49366,WOODLAND PARK ZOO SOCIETY,23-Oct,11/4/2023,17315,WOODLAND PARK ZOO SOCIETY,4000.0,0.0,4000.0,0.0,0.0,0.0,0.0,0.0,0.0,0.0,4000.0,49366,Direct,,,View report (https://accesshub.pdc.wa.gov/node/109703),Environmental Affairs - natural resources - parks,Environmental Affairs,legislators
15172,109703-49367,109703,FE,17828,"Debora Munguia, Capitol Consulting",Employer,49367,Thurston County,23-Oct,11/4/2023,29205,Thurston County,5600.0,0.0,5600.0,0.0,0.0,0.0,0.0,0.0,0.0,0.0,5600.0,49367,Direct,,,View report (https://accesshub.pdc.wa.gov/node/109703),Local government,local government,legislators
15173,109703-60218,109703,FE,17828,"Debora Munguia, Capitol Consulting",Employer,60218,City of Olympia,23-Oct,11/4/2023,38336,City of Olympia,5200.0,0.0,5200.0,0.0,0.0,0.0,0.0,0.0,0.0,0.0,5200.0,60218,Direct,,,View report (https://accesshub.pdc.wa.gov/node/109703),Local government,local government,legislators
15174,109703-60219,109703,FE,17828,"Debora Munguia, Capitol Consulting",Employer,60219,CITY OF SHORELINE,23-Oct,11/4/2023,16313,CITY OF SHORELINE,4363.6,0.0,4363.6,0.0,0.0,0.0,0.0,0.0,0.0,0.0,4363.6,60219,Direct,,,View report (https://accesshub.pdc.wa.gov/node/109703),Local government,local government,legislators
15175,109703-60467,109703,FE,17828,"Debora Munguia, Capitol Consulting",Employer,60467,CITY OF EDMONDS,23-Oct,11/4/2023,16280,CITY OF EDMONDS,3900.0,0.0,3900.0,0.0,0.0,0.0,0.0,0.0,0.0,0.0,3900.0,60467,Direct,,,View report (https://accesshub.pdc.wa.gov/node/109703),,,
15176,109703-82456,109703,FE,17828,"Debora Munguia, Capitol Consulting",Employer,82456,MASON CO,23-Oct,11/4/2023,16620,MASON CO,4000.0,0.0,4000.0,0.0,0.0,0.0,0.0,0.0,0.0,0.0,4000.0,82456,Direct,,,View report (https://accesshub.pdc.wa.gov/node/109703),Local government,local government,legislators
15177,109704-19833,109704,FE,18057,ANN VINING,Employer,19833,Northwest Health Law Advocates,23-Sep,11/5/2023,16709,Northwest Health Law Advocates,288.65,0.0,288.65,0.0,0.0,0.0,0.0,0.0,0.0,0.0,288.65,19833,Direct,,,View report (https://accesshub.pdc.wa.gov/node/109704),Health Care,Medicaid rulemaking issues,Health Care Authority
15178,109708-19895,109708,FE,18091,Kristin Wiggins,Employer,19895,COUNCIL FOR A STRONG AMERICA,23-Sep,11/5/2023,16372,COUNCIL FOR A STRONG AMERICA,400.0,0.0,400.0,0.0,0.0,0.0,0.0,0.0,0.0,0.0,400.0,19895,Direct,,,View report (https://accesshub.pdc.wa.gov/node/109708),Education,"Child care, State PreK, early learning facilities",Various legislators
15179,109708-61925,109708,FE,18091,Kristin Wiggins,Employer,61925,Inatai Foundation,23-Sep,11/5/2023,61438,Inatai Foundation,5000.0,0.0,5000.0,0.0,0.0,0.0,0.0,0.0,0.0,0.0,5000.0,61925,Direct,,,View report (https://accesshub.pdc.wa.gov/node/109708),Human services,Distribution of public funds (CCA for human services),Various legislators
15180,109708-67772,109708,FE,18091,Kristin Wiggins,Employer,67772,Perigee Fund,23-Sep,11/5/2023,62592,Perigee Fund,1000.0,0.0,1000.0,0.0,0.0,0.0,0.0,0.0,0.0,0.0,1000.0,67772,Direct,,,View report (https://accesshub.pdc.wa.gov/node/109708),Human services,Prenatal through 5 relational health items,Varios legislators
15181,109708-71135,109708,FE,18091,Kristin Wiggins,Employer,71135,Children's Therapy Center,23-Sep,11/5/2023,71133,Children's Therapy Center,500.0,0.0,500.0,0.0,0.0,0.0,0.0,0.0,0.0,0.0,500.0,71135,Direct,,,View report (https://accesshub.pdc.wa.gov/node/109708),Human services,Early supports for infants and toddlers,"Various legislators, Dept. of Children, Youth, and Families"
15182,109708-85467,109708,FE,18091,Kristin Wiggins,Employer,85467,ONEAMERICA,23-Sep,11/5/2023,16494,ONEAMERICA,200.0,0.0,200.0,0.0,0.0,0.0,0.0,0.0,0.0,0.0,200.0,85467,Direct,,,View report (https://accesshub.pdc.wa.gov/node/109708),Education,"Early learning, child care, dual language",Various legilators
15183,109708-93994,109708,FE,18091,Kristin Wiggins,Employer,93994,The Imagine Institute,23-Sep,11/5/2023,62368,The Imagine Institute,800.0,0.0,800.0,0.0,0.0,0.0,0.0,0.0,0.0,0.0,800.0,93994,Direct,,,View report (https://accesshub.pdc.wa.gov/node/109708),Education,Early learning workforce items,Various legislators
15184,109708-106143,109708,FE,18091,Kristin Wiggins,Employer,106143,Equity in Education Coalition,23-Sep,11/5/2023,16420,Equity in Education Coalition,600.0,0.0,600.0,0.0,0.0,0.0,0.0,0.0,0.0,0.0,600.0,106143,Direct,,,View report (https://accesshub.pdc.wa.gov/node/109708),Human services,Guaranteed basic income,Various legislators
15185,109708-107219,109708,FE,18091,Kristin Wiggins,Employer,107219,CHILDRENS HOME SOCIETY OF WA,23-Sep,11/5/2023,16260,CHILDRENS HOME SOCIETY OF WA,400.0,0.0,400.0,0.0,0.0,0.0,0.0,0.0,0.0,0.0,400.0,107219,Direct,,,View report (https://accesshub.pdc.wa.gov/node/109708),Human services,Family Resource Centers,Various legislators
15186,109709-19373,109709,FE,17853,NORTHWEST POLICY GROUP*,Employer,19373,WA ST FOOD TRUCK ASSN,23-Oct,11/5/2023,17250,WA ST FOOD TRUCK ASSN,2000.0,0.0,2000.0,0.0,0.0,0.0,0.0,0.0,0.0,0.0,2000.0,19373,Direct,,,View report (https://accesshub.pdc.wa.gov/node/109709),Local government,Conflicting regulations,"House Local Government, Senate Local Government, Land Use and Tribal Affairs Committees"
15187,109711-19186,109711,FE,17771,MARIE SULLIVAN PUBLIC AFFAIRS CORP.,Employer,19186,EASTERN WA QUALITY SCHOOLS COALITION,23-Oct,11/5/2023,16400,EASTERN WA QUALITY SCHOOLS COALITION,6370.83,0.0,6370.83,0.0,0.0,0.0,0.0,0.0,0.0,0.0,6370.83,19186,Direct,,,View report (https://accesshub.pdc.wa.gov/node/109711),Education,2024 legislative priorities,"K-12 education, early learning, and budget legislators, OSPI"
15188,109711-19187,109711,FE,17771,MARIE SULLIVAN PUBLIC AFFAIRS CORP.,Employer,19187,PASCO SCHOOL DIST,23-Oct,11/5/2023,16766,PASCO SCHOOL DIST,3500.0,0.0,3500.0,0.0,0.0,0.0,0.0,0.0,0.0,0.0,3500.0,19187,Direct,,,View report (https://accesshub.pdc.wa.gov/node/109711),Education,school construction,capital budget legislators
15189,109711-19188,109711,FE,17771,MARIE SULLIVAN PUBLIC AFFAIRS CORP.,Employer,19188,QUINAULT INDIAN NATION,23-Oct,11/5/2023,16837,QUINAULT INDIAN NATION,10000.0,0.0,10000.0,435.77,0.0,15000.0,0.0,0.0,0.0,15435.77,25435.77,19188,Direct,,,View report (https://accesshub.pdc.wa.gov/node/109711),Energy and utilities,"climate commitment act funding, broadband, ocean fiber",energy and budget legislators
15190,109711-19190,109711,FE,17771,MARIE SULLIVAN PUBLIC AFFAIRS CORP.,Employer,19190,WA ST PTA,23-Oct,11/5/2023,17277,WA ST PTA,5375.0,0.0,5375.0,0.0,0.0,0.0,0.0,0.0,0.0,0.0,5375.0,19190,Direct,,,View report (https://accesshub.pdc.wa.gov/node/109711),Education,WSPTA 2023-24 legislative priorities,"education and budget legislators, OSPI"
15191,109711-26719,109711,FE,17771,MARIE SULLIVAN PUBLIC AFFAIRS CORP.,Employer,26719,CONFEDERATED TRIBES OF THE UMATILLA INDIAN RESERVATION,23-Oct,11/5/2023,16356,CONFEDERATED TRIBES OF THE UMATILLA INDIAN RESERVATION,5187.5,0.0,5187.5,0.0,0.0,0.0,0.0,0.0,0.0,0.0,5187.5,26719,Direct,,,View report (https://accesshub.pdc.wa.gov/node/109711),Energy and utilities,climate commitment act funding,none this month
15192,109711-46250,109711,FE,17771,MARIE SULLIVAN PUBLIC AFFAIRS CORP.,Employer,46250,Walla Walla School District 140,23-Oct,11/5/2023,46249,Walla Walla School District 140,4250.0,0.0,4250.0,0.0,0.0,0.0,0.0,0.0,0.0,0.0,4250.0,46250,Direct,,,View report (https://accesshub.pdc.wa.gov/node/109711),Education,experience factor fix,education legislators
15193,109711-60459,109711,FE,17771,MARIE SULLIVAN PUBLIC AFFAIRS CORP.,Employer,60459,Washington MESA,23-Oct,11/5/2023,60420,Washington MESA,4000.0,0.0,4000.0,0.0,0.0,0.0,0.0,0.0,0.0,0.0,4000.0,60459,Direct,,,View report (https://accesshub.pdc.wa.gov/node/109711),,,
15194,109711-83316,109711,FE,17771,MARIE SULLIVAN PUBLIC AFFAIRS CORP.,Employer,83316,Public Works  Board,23-Oct,11/5/2023,25309,Public Works  Board,4166.66,0.0,4166.66,0.0,0.0,0.0,0.0,0.0,0.0,0.0,4166.66,83316,Direct,,,View report (https://accesshub.pdc.wa.gov/node/109711),,,
15203,107091-98449,107091,FE,17779,MCBRIDE PUBLIC AFFAIRS LLC*,Employer,98449,"Prime Therapeutics, LLC",23-Jul,11/6/2023,36475,"Prime Therapeutics, LLC",5000.0,0.0,5000.0,0.0,0.0,0.0,0.0,0.0,0.0,0.0,5000.0,98449,Direct,,,View report (https://accesshub.pdc.wa.gov/node/107091),Health Care,Health Care,House Senate All
15204,107091-101027,107091,FE,17779,MCBRIDE PUBLIC AFFAIRS LLC*,Employer,101027,"Performa Labs, Inc.",23-Jul,11/6/2023,100949,"Performa Labs, Inc.",5000.0,0.0,5000.0,0.0,0.0,0.0,0.0,0.0,0.0,0.0,5000.0,101027,Direct,,,View report (https://accesshub.pdc.wa.gov/node/107091),Fiscal,fiscal,House Senate All
15205,107091-103892,107091,FE,17779,MCBRIDE PUBLIC AFFAIRS LLC*,Employer,103892,"Al Fakher Distribution USA, Inc.",23-Jul,11/6/2023,76082,"Al Fakher Distribution USA, Inc.",3000.0,0.0,3000.0,0.0,0.0,0.0,0.0,0.0,0.0,0.0,3000.0,103892,Direct,,,View report (https://accesshub.pdc.wa.gov/node/107091),,,
15206,108011-19208,108011,FE,17779,MCBRIDE PUBLIC AFFAIRS LLC*,Employer,19208,AMGEN INC,23-Aug,11/6/2023,16127,AMGEN INC,4500.0,0.0,4500.0,0.0,0.0,0.0,0.0,0.0,0.0,0.0,4500.0,19208,Direct,,,View report (https://accesshub.pdc.wa.gov/node/108011),Health Care,"Health Care 1450, 5074,1269",HEALTH CARE TECH WAYS & MEANS
15207,108011-19224,108011,FE,17779,MCBRIDE PUBLIC AFFAIRS LLC*,Employer,19224,QUEST DIAGNOSTICS ,23-Aug,11/6/2023,16836,QUEST DIAGNOSTICS ,5000.0,0.0,5000.0,0.0,0.0,0.0,0.0,0.0,0.0,0.0,5000.0,19224,Direct,,,View report (https://accesshub.pdc.wa.gov/node/108011),,,
15208,108011-19225,108011,FE,17779,MCBRIDE PUBLIC AFFAIRS LLC*,Employer,19225,THYSSENKRUPP ELEVATOR,23-Aug,11/6/2023,16983,THYSSENKRUPP ELEVATOR,5000.0,0.0,5000.0,0.0,0.0,0.0,0.0,0.0,0.0,0.0,5000.0,19225,Direct,,,View report (https://accesshub.pdc.wa.gov/node/108011),Labor,COMMERCE LABOR,LABOR & INDUSTRIES
15209,108011-19226,108011,FE,17779,MCBRIDE PUBLIC AFFAIRS LLC*,Employer,19226,WA ASSN OF JUVENILE COURT ADMINISTRATORS,23-Aug,11/6/2023,17139,WA ASSN OF JUVENILE COURT ADMINISTRATORS,4208.0,0.0,4208.0,0.0,0.0,0.0,0.0,0.0,0.0,0.0,4208.0,19226,Direct,,,View report (https://accesshub.pdc.wa.gov/node/108011),Law and justice,"1440, 5434, 5644",JUVENILE SERVICES BUDGET
15210,108011-19228,108011,FE,17779,MCBRIDE PUBLIC AFFAIRS LLC*,Employer,19228,Whatcom Co,23-Aug,11/6/2023,17307,Whatcom Co,4000.0,-2400.0,1600.0,0.0,0.0,0.0,0.0,0.0,0.0,0.0,1600.0,19228,Direct,,,View report (https://accesshub.pdc.wa.gov/node/108011),Local government,HOUSING,BUDGET LOCAL GOVT TRANSPORTATION
15211,108011-30638,108011,FE,17779,MCBRIDE PUBLIC AFFAIRS LLC*,Employer,30638,Growth Energy,23-Aug,11/6/2023,30635,Growth Energy,5000.0,0.0,5000.0,0.0,0.0,0.0,0.0,0.0,0.0,0.0,5000.0,30638,Direct,,,View report (https://accesshub.pdc.wa.gov/node/108011),Agriculture,"5447, 1505",House Senate All
15212,108967-51666,108967,FE,27257,Paribello Public Affairs,Employer,51666,Ilani Resort and Casino,23-Sep,11/6/2023,51060,Ilani Resort and Casino,5000.0,0.0,5000.0,0.0,0.0,0.0,0.0,0.0,0.0,0.0,5000.0,51666,Direct,,,View report (https://accesshub.pdc.wa.gov/node/108967),State government,"Gaming, Environment, Natural Resources, Transportation","Legislators, Governor, WSGC"
15213,108967-51667,108967,FE,27257,Paribello Public Affairs,Employer,51667,"Airbnb, Inc.",23-Sep,11/6/2023,30820,"Airbnb, Inc.",5000.0,0.0,5000.0,0.0,0.0,0.0,0.0,0.0,0.0,0.0,5000.0,51667,Direct,,,View report (https://accesshub.pdc.wa.gov/node/108967),,,
15214,108967-66238,108967,FE,27257,Paribello Public Affairs,Employer,66238,King County Medical Society,23-Sep,11/6/2023,66236,King County Medical Society,2000.0,0.0,2000.0,0.0,0.0,0.0,0.0,0.0,0.0,0.0,2000.0,66238,Direct,,,View report (https://accesshub.pdc.wa.gov/node/108967),Health Care,health care matters,House and Senate members
15215,108967-83390,108967,FE,27257,Paribello Public Affairs,Employer,83390,Washington Sun and Craft Grower's Association (BMcConsulting),23-Sep,11/6/2023,43434,Washington Sun and Craft Grower's Association,250.0,0.0,250.0,0.0,0.0,0.0,0.0,0.0,0.0,0.0,250.0,83390,Subcontract,26001.0,BMcConsulting,View report (https://accesshub.pdc.wa.gov/node/108967),,,
15216,108967-85006,108967,FE,27257,Paribello Public Affairs,Employer,85006,Washington Solar Energy Industries Association,23-Sep,11/6/2023,16929,Washington Solar Energy Industries Association,2000.0,0.0,2000.0,0.0,0.0,4800.0,0.0,0.0,0.0,4800.0,6800.0,85006,Direct,,,View report (https://accesshub.pdc.wa.gov/node/108967),Energy and utilities,Clean Energy,"Legislature, Governor, Commerce"
15217,108967-98644,108967,FE,27257,Paribello Public Affairs,Employer,98644,Swinomish Indian Tribal Community,23-Sep,11/6/2023,16963,Swinomish Indian Tribal Community,5000.0,0.0,5000.0,0.0,0.0,0.0,0.0,0.0,0.0,0.0,5000.0,98644,Direct,,,View report (https://accesshub.pdc.wa.gov/node/108967),,,
15218,108967-100107,108967,FE,27257,Paribello Public Affairs,Employer,100107,Save Our Wild Salmon,23-Sep,11/6/2023,51766,Save Our Wild Salmon,3000.0,0.0,3000.0,0.0,0.0,0.0,0.0,0.0,0.0,0.0,3000.0,100107,Direct,,,View report (https://accesshub.pdc.wa.gov/node/108967),,,
15219,108967-108052,108967,FE,27257,Paribello Public Affairs,Employer,108052,WASHINGTON INDOOR CLIMBING COALITION,23-Sep,11/6/2023,108036,WASHINGTON INDOOR CLIMBING COALITION,3500.0,0.0,3500.0,0.0,0.0,0.0,0.0,0.0,0.0,0.0,3500.0,108052,Direct,,,View report (https://accesshub.pdc.wa.gov/node/108967),Business and consumer affairs,Recreation / Tax,All Senate / Health Care
15220,109683-98644,109683,FE,27257,Paribello Public Affairs,Employer,98644,Swinomish Indian Tribal Community,23-Oct,11/6/2023,16963,Swinomish Indian Tribal Community,5000.0,0.0,5000.0,0.0,0.0,0.0,0.0,0.0,0.0,0.0,5000.0,98644,Direct,,,View report (https://accesshub.pdc.wa.gov/node/109683),,,
15221,109683-100107,109683,FE,27257,Paribello Public Affairs,Employer,100107,Save Our Wild Salmon,23-Oct,11/6/2023,51766,Save Our Wild Salmon,3000.0,0.0,3000.0,0.0,0.0,0.0,0.0,0.0,0.0,0.0,3000.0,100107,Direct,,,View report (https://accesshub.pdc.wa.gov/node/109683),,,
15222,109683-108052,109683,FE,27257,Paribello Public Affairs,Employer,108052,WASHINGTON INDOOR CLIMBING COALITION,23-Oct,11/6/2023,108036,WASHINGTON INDOOR CLIMBING COALITION,3500.0,0.0,3500.0,0.0,0.0,0.0,0.0,0.0,0.0,0.0,3500.0,108052,Direct,,,View report (https://accesshub.pdc.wa.gov/node/109683),Business and consumer affairs,Recreation / Tax,All Senate / Health Care
15223,109715-27361,109715,FE,17526,Arbutus Consulting LLC,Employer,27361,City of Ferndale,23-Oct,11/6/2023,27359,City of Ferndale,2300.0,0.0,2300.0,0.0,0.0,0.0,0.0,0.0,0.0,0.0,2300.0,27361,Direct,,,View report (https://accesshub.pdc.wa.gov/node/109715),Local government,Local Government,House and Senate Local Government Committees
15224,109715-32170,109715,FE,17526,Arbutus Consulting LLC,Employer,32170,"Elevance Health, and its Affiliates",23-Oct,11/6/2023,16107,"Elevance Health, and its Affiliates",7000.0,0.0,7000.0,0.0,0.0,0.0,0.0,0.0,0.0,0.0,7000.0,32170,Direct,,,View report (https://accesshub.pdc.wa.gov/node/109715),Health Care,Health Care,Senate and House Health Care Committees
15225,109715-39186,109715,FE,17526,Arbutus Consulting LLC,Employer,39186,PORT OF WALLA WALLA,23-Oct,11/6/2023,16809,PORT OF WALLA WALLA,3600.0,0.0,3600.0,0.0,0.0,0.0,0.0,0.0,0.0,0.0,3600.0,39186,Direct,,,View report (https://accesshub.pdc.wa.gov/node/109715),Local government,Local Government,House and Senate Local Government Committees
15226,109715-54346,109715,FE,17526,Arbutus Consulting LLC,Employer,54346,CITY OF LACEY,23-Oct,11/6/2023,16294,CITY OF LACEY,3166.0,0.0,3166.0,0.0,0.0,0.0,0.0,0.0,0.0,0.0,3166.0,54346,Direct,,,View report (https://accesshub.pdc.wa.gov/node/109715),Local government,Local Government,House and Senate Local Government Committees
15227,109715-73458,109715,FE,17526,Arbutus Consulting LLC,Employer,73458,City of Vancouver,23-Oct,11/6/2023,16319,City of Vancouver,7500.0,0.0,7500.0,0.0,0.0,0.0,0.0,0.0,0.0,0.0,7500.0,73458,Direct,,,View report (https://accesshub.pdc.wa.gov/node/109715),Local government,Local Government,House and Senate Local Government Committees
15228,109715-97737,109715,FE,17526,Arbutus Consulting LLC,Employer,97737,CITY OF KIRKLAND (BMcConsulting),23-Oct,11/6/2023,16289,CITY OF KIRKLAND,3000.0,0.0,3000.0,0.0,0.0,0.0,0.0,0.0,0.0,0.0,3000.0,97737,Subcontract,26001.0,BMcConsulting,View report (https://accesshub.pdc.wa.gov/node/109715),,,
15231,109222-108496,109222,FE,108493,Gavin Pielow,Employer,108496,Washington Winegrowers Association,23-Oct,11/6/2023,17210,Washington Winegrowers Association,3889.08,0.0,3889.08,0.0,0.0,0.0,0.0,0.0,0.0,0.0,3889.08,108496,Direct,,,View report (https://accesshub.pdc.wa.gov/node/109222),Environmental Affairs - natural resources - parks,Wine Grape Industry; Wine Grape Smoke Exposure,"The House Agriculture & Natural Resources Committee; Senate Agriculture, Water, Natural Resources & Parks Committee; House Regulated Substances & Gaming Committee"
15232,109222-108499,109222,FE,108493,Gavin Pielow,Employer,108499,COLUMBIA BASIN DEVELOPMENT LEAGUE,23-Oct,11/6/2023,16335,COLUMBIA BASIN DEVELOPMENT LEAGUE,1944.25,0.0,1944.25,0.0,0.0,0.0,0.0,0.0,0.0,0.0,1944.25,108499,Direct,,,View report (https://accesshub.pdc.wa.gov/node/109222),,,
15233,109721-19158,109721,FE,17759,CATHLEEN MACCAUL,Employer,19158,AARP WA ST OFFICE,23-Oct,11/6/2023,16121,AARP WA ST OFFICE,3000.0,0.0,3000.0,0.0,0.0,0.0,0.0,0.0,0.0,0.0,3000.0,19158,Direct,,,View report (https://accesshub.pdc.wa.gov/node/109721),Health Care,"Washington Cares, Long Term Care",DSHS and Long Term Care Trust Commission
15234,109725-47055,109725,FE,47054,Barbara Morrow,Employer,47055,"ASTELLAS PHARMA US, INC.",23-Oct,11/6/2023,16174,"ASTELLAS PHARMA US, INC.",908.6,0.0,908.6,0.0,0.0,0.0,0.0,0.0,0.0,0.0,908.6,47055,Direct,,,View report (https://accesshub.pdc.wa.gov/node/109725),Health Care,"Drug Pricing, pharmacy middlemen, women's health issues",Senate Healthcare Committee
15235,109716-55819,109716,FE,55755,Guy Palumbo,Employer,55819,AMAZON.COM SERVICES LLC,23-Oct,11/6/2023,16088,AMAZON.COM SERVICES LLC,4519.23,0.0,4519.23,0.0,0.0,0.0,0.0,0.0,0.0,0.0,4519.23,55819,Direct,,,View report (https://accesshub.pdc.wa.gov/node/109716),Technology,Artificial Intelligence,Legislature
15236,109727-19775,109727,FE,18034,The Nichols Group Government Relations LLC,Employer,19775,SCHNITZER STEEL INDUSTRIES INC,23-Oct,11/6/2023,16878,SCHNITZER STEEL INDUSTRIES INC,3804.0,0.0,3804.0,0.0,0.0,0.0,0.0,0.0,0.0,0.0,3804.0,19775,Direct,,,View report (https://accesshub.pdc.wa.gov/node/109727),Environmental Affairs - natural resources - parks,"Recycling, manufacturing","Environmental Committees, Dept. of Ecology, Governor's Office"
15237,109727-19776,109727,FE,18034,The Nichols Group Government Relations LLC,Employer,19776,ARROW LAUNCH SERVICES INC,23-Oct,11/6/2023,17034,ARROW LAUNCH SERVICES INC,1000.0,0.0,1000.0,0.0,0.0,0.0,0.0,0.0,0.0,0.0,1000.0,19776,Direct,,,View report (https://accesshub.pdc.wa.gov/node/109727),Transportation,Marine transportation / services,"Transportation / environmental committees, UTC, Governor's Office"
15238,109727-19778,109727,FE,18034,The Nichols Group Government Relations LLC,Employer,19778,WA CHRISTMAS TREE GROWERS,23-Oct,11/6/2023,17090,WA CHRISTMAS TREE GROWERS,750.0,0.0,750.0,0.0,0.0,0.0,0.0,0.0,0.0,0.0,750.0,19778,Direct,,,View report (https://accesshub.pdc.wa.gov/node/109727),Agriculture,"Land use, taxation","Agricultural committees, Dept of Agriculture, Governor's Office"
15239,109727-19779,109727,FE,18034,The Nichols Group Government Relations LLC,Employer,19779,COMMUNITY BANKERS OF WA,23-Oct,11/6/2023,17132,COMMUNITY BANKERS OF WA,3000.0,0.0,3000.0,0.0,0.0,0.0,0.0,0.0,0.0,0.0,3000.0,19779,Direct,,,View report (https://accesshub.pdc.wa.gov/node/109727),Financial institutions and insurance,Banking Issues,"Senate Financial Institutions & Insurance Committee; House Business & Financial Services Committee, WA Dept. of Financial Institutions, WA State Treasurer, Governor's Office"
15240,109727-19780,109727,FE,18034,The Nichols Group Government Relations LLC,Employer,19780,WASHINGTON LIQUOR STORE ASSOCIATION,23-Oct,11/6/2023,17145,WASHINGTON LIQUOR STORE ASSOCIATION,2000.0,0.0,2000.0,0.0,0.0,0.0,0.0,0.0,0.0,0.0,2000.0,19780,Direct,,,View report (https://accesshub.pdc.wa.gov/node/109727),Business and consumer affairs,Liquor Issues,"House Commerce & Gaming Committee, Senate Labor & Commerce Committee, WA State Liquor & Cannabis Board, Governor's Office"
15241,109727-38900,109727,FE,18034,The Nichols Group Government Relations LLC,Employer,38900,Cooke Aquaculture Pacific LLC,23-Oct,11/6/2023,38899,Cooke Aquaculture Pacific LLC,5000.0,0.0,5000.0,0.0,0.0,0.0,0.0,0.0,0.0,0.0,5000.0,38900,Direct,,,View report (https://accesshub.pdc.wa.gov/node/109727),Agriculture,Net-pen aquaculture issues,"Senate & House Agriculture Committees, Dept. of Ecology, Dept. of Fish & Wildlife, Dept. of Natural Resources, Dept. of Agriculture, Governor's Office"
15242,109727-39130,109727,FE,18034,The Nichols Group Government Relations LLC,Employer,39130,City of Shelton,23-Oct,11/6/2023,39118,City of Shelton,3000.0,0.0,3000.0,0.0,0.0,0.0,0.0,0.0,0.0,0.0,3000.0,39130,Direct,,,View report (https://accesshub.pdc.wa.gov/node/109727),Fiscal,Transportation and Capital Budget Requests,"Senate Ways & Means, Senate Transportation, House Capital Budget, House Transportation, WA State Patrol, WSDOT, Governor's Office"
15243,109727-45630,109727,FE,18034,The Nichols Group Government Relations LLC,Employer,45630,Capital Region ESD 113,23-Oct,11/6/2023,45627,Capital Region ESD 113,4000.0,0.0,4000.0,0.0,0.0,0.0,0.0,0.0,0.0,0.0,4000.0,45630,Direct,,,View report (https://accesshub.pdc.wa.gov/node/109727),Education,Education Funding and Policy Issues,"House and Senate Education Committees, House Appropriations Committee, Senate Ways & Means Committee, Superintendent of Public Instruction, Governor's Office"
15244,109727-48658,109727,FE,18034,The Nichols Group Government Relations LLC,Employer,48658,WILLAPA-GRAYS HARBOR OYSTER GROWERS ASSN,23-Oct,11/6/2023,23612,WILLAPA-GRAYS HARBOR OYSTER GROWERS ASSN,2000.0,0.0,2000.0,0.0,0.0,0.0,0.0,0.0,0.0,0.0,2000.0,48658,Direct,,,View report (https://accesshub.pdc.wa.gov/node/109727),Agriculture,Agriculture Issues,"House and Senate Agriculture Committees, Dept. of Ecology, Dept. of Natural Resources, Dept. of Agriculture, Governor's Office"
15245,109727-62174,109727,FE,18034,The Nichols Group Government Relations LLC,Employer,62174,American Promotional Events Northwest Inc. DBA TNT Fireworks,23-Oct,11/6/2023,62169,American Promotional Events Northwest Inc. DBA TNT Fireworks,5000.0,0.0,5000.0,0.0,0.0,0.0,0.0,0.0,0.0,0.0,5000.0,62174,Direct,,,View report (https://accesshub.pdc.wa.gov/node/109727),Local government,Consumer Fireworks-related issues,"House and Senate Local Government Committee, WA State Fire Marshall, Governor's Office"
15246,109727-74747,109727,FE,18034,The Nichols Group Government Relations LLC,Employer,74747,"National Shooting Sports Foundation, Inc.",23-Oct,11/6/2023,64804,"National Shooting Sports Foundation, Inc.",4000.0,-1500.0,2500.0,0.0,0.0,0.0,0.0,0.0,0.0,0.0,2500.0,74747,Direct,,,View report (https://accesshub.pdc.wa.gov/node/109727),Law and justice,"Firearm Manufacturer, Retailer, and Shooting Range Issues",House Civil Rights & Judiciary and Senate Law & Justice Committees
15247,109727-85231,109727,FE,18034,The Nichols Group Government Relations LLC,Employer,85231,Commonwealth Real Estate Services,23-Oct,11/6/2023,85230,Commonwealth Real Estate Services,5000.0,0.0,5000.0,0.0,0.0,0.0,0.0,0.0,0.0,0.0,5000.0,85231,Direct,,,View report (https://accesshub.pdc.wa.gov/node/109727),Business and consumer affairs,Manufactured Park and Housing Issues,"House Housing, Human Services & Veterans Committee, Senate Housing & Local Government Committee"
15248,109727-94166,109727,FE,18034,The Nichols Group Government Relations LLC,Employer,94166,KOCH CO PUBLIC SECTOR LLC & AFFILIATES,23-Oct,11/6/2023,16585,KOCH CO PUBLIC SECTOR LLC & AFFILIATES,5000.0,0.0,5000.0,0.0,0.0,0.0,0.0,0.0,0.0,0.0,5000.0,94166,Direct,,,View report (https://accesshub.pdc.wa.gov/node/109727),,,
15249,109727-95877,109727,FE,18034,The Nichols Group Government Relations LLC,Employer,95877,Lewis County (GORDON THOMAS HONEYWELL GOV AFFAIRS*),23-Oct,11/6/2023,95289,Lewis County,2500.0,0.0,2500.0,0.0,0.0,0.0,0.0,0.0,0.0,0.0,2500.0,95877,Subcontract,17581.0,GORDON THOMAS HONEYWELL GOV AFFAIRS*,View report (https://accesshub.pdc.wa.gov/node/109727),,,
15250,109727-95911,109727,FE,18034,The Nichols Group Government Relations LLC,Employer,95911,PHILLIPS 66,23-Oct,11/6/2023,16779,PHILLIPS 66,5500.0,0.0,5500.0,0.0,0.0,0.0,0.0,0.0,0.0,0.0,5500.0,95911,Direct,,,View report (https://accesshub.pdc.wa.gov/node/109727),Energy and utilities,"Business & Consumer Affairs, Energy & Utilities, Environmental Affairs, Natural Resources, Parks, Fiscal, Labor, Local Government, State Government, Technolog, Transportation","House Appropriations, Transportation, Environment & Energy, Commerce & Gaming, Finance, Labor & Workplace Standards, Senate Ways & Means,Transportation, Business & Workplace Standards, Environment, Energy & Technology, WA Dept. of Ecology"
15251,109727-107141,109727,FE,18034,The Nichols Group Government Relations LLC,Employer,107141,Washington Schools Information Processing Cooperative (WSIPC),23-Oct,11/6/2023,107123,Washington Schools Information Processing Cooperative (WSIPC),4000.0,0.0,4000.0,0.0,0.0,0.0,0.0,0.0,0.0,0.0,4000.0,107141,Direct,,,View report (https://accesshub.pdc.wa.gov/node/109727),,,
15252,109727-108777,109727,FE,18034,The Nichols Group Government Relations LLC,Employer,108777,TECK AMERICAN/TECK WA,23-Oct,11/6/2023,16345,TECK AMERICAN/TECK WA,5000.0,0.0,5000.0,0.0,0.0,0.0,0.0,0.0,0.0,0.0,5000.0,108777,Direct,,,View report (https://accesshub.pdc.wa.gov/node/109727),Environmental Affairs - natural resources - parks,Environmental issues,"3rd and 7th Legislative District Delegations, WA State Department of Ecology, WA State Attorney General, Governor's Office"
15253,109730-59427,109730,FE,59426,Richard B Chisa,Employer,59427,PUBLIC SCHOOL EMPLOYEES OF WA,23-Oct,11/6/2023,16824,PUBLIC SCHOOL EMPLOYEES OF WA,21684.8,0.0,21684.8,0.0,0.0,14230.56,0.0,0.0,0.0,14230.56,35915.36,59427,Direct,,,View report (https://accesshub.pdc.wa.gov/node/109730),Education,Unknown,Unknown
15254,109733-18600,109733,FE,17505,PATRICK DUNN & ASSOCIATES LTD*,Employer,18600,BENTON RURAL ELECTRIC ASSN,23-Oct,11/6/2023,16189,BENTON RURAL ELECTRIC ASSN,1000.0,-250.0,750.0,0.0,0.0,0.0,0.0,0.0,0.0,0.0,750.0,18600,Direct,,,View report (https://accesshub.pdc.wa.gov/node/109733),Energy and utilities,Utiliies,"UTC, WDOT"
15255,109733-18601,109733,FE,17505,PATRICK DUNN & ASSOCIATES LTD*,Employer,18601,EMPIRE HEALTH FOUNDATION,23-Oct,11/6/2023,16413,EMPIRE HEALTH FOUNDATION,1000.0,0.0,1000.0,0.0,0.0,0.0,0.0,0.0,0.0,0.0,1000.0,18601,Direct,,,View report (https://accesshub.pdc.wa.gov/node/109733),Health Care,Health & Human Services,"DSHS, Health Care Authority"
15256,109733-18604,109733,FE,17505,PATRICK DUNN & ASSOCIATES LTD*,Employer,18604,LES SCHWAB TIRE CENTERS,23-Oct,11/6/2023,16596,LES SCHWAB TIRE CENTERS,1250.0,-250.0,1000.0,0.0,0.0,0.0,0.0,0.0,0.0,0.0,1000.0,18604,Direct,,,View report (https://accesshub.pdc.wa.gov/node/109733),Transportation,Regulation and Taxation,"WSDOT, DOR"
15257,109733-18609,109733,FE,17505,PATRICK DUNN & ASSOCIATES LTD*,Employer,18609,Sanitary Service Co,23-Oct,11/6/2023,16872,Sanitary Service Co,1250.0,-250.0,1000.0,0.0,0.0,2400.0,0.0,0.0,0.0,2400.0,3400.0,18609,Direct,,,View report (https://accesshub.pdc.wa.gov/node/109733),Energy and utilities,Waste & Recycling,"UTC, DOE"
15258,109733-18613,109733,FE,17505,PATRICK DUNN & ASSOCIATES LTD*,Employer,18613,WA ST MAJOR LEAGUE BASEBALL STADIUM PUBLIC FACILITIES DISTRICT (PFD),23-Oct,11/6/2023,17264,WA ST MAJOR LEAGUE BASEBALL STADIUM PUBLIC FACILITIES DISTRICT (PFD),500.0,0.0,500.0,0.0,0.0,0.0,0.0,0.0,0.0,0.0,500.0,18613,Direct,,,View report (https://accesshub.pdc.wa.gov/node/109733),Local government,Public Facilities Districts,Local Government
15259,109733-65494,109733,FE,17505,PATRICK DUNN & ASSOCIATES LTD*,Employer,65494,Start Early,23-Oct,11/6/2023,61435,Start Early,500.0,0.0,500.0,0.0,0.0,0.0,0.0,0.0,0.0,0.0,500.0,65494,Direct,,,View report (https://accesshub.pdc.wa.gov/node/109733),Human services,Early Childhood Development,WCFS
15260,109733-87199,109733,FE,17505,PATRICK DUNN & ASSOCIATES LTD*,Employer,87199,Better Health Togehter,23-Oct,11/6/2023,86046,Better Health Togehter,1000.0,0.0,1000.0,0.0,0.0,0.0,0.0,0.0,0.0,0.0,1000.0,87199,Direct,,,View report (https://accesshub.pdc.wa.gov/node/109733),Health Care,Health & Human Services,"DSHS, Health Care Authority"
15261,109733-97616,109733,FE,17505,PATRICK DUNN & ASSOCIATES LTD*,Employer,97616,Family Impact Network,23-Oct,11/6/2023,97048,Family Impact Network,500.0,0.0,500.0,0.0,0.0,0.0,0.0,0.0,0.0,0.0,500.0,97616,Direct,,,View report (https://accesshub.pdc.wa.gov/node/109733),Human services,Health & Human Services,"DSHS, DFCS"
15262,108011-106286,108011,FE,17779,MCBRIDE PUBLIC AFFAIRS LLC*,Employer,106286,"VMware, Inc.",23-Aug,11/6/2023,106201,"VMware, Inc.",4000.0,0.0,4000.0,0.0,0.0,0.0,0.0,0.0,0.0,0.0,4000.0,106286,Direct,,,View report (https://accesshub.pdc.wa.gov/node/108011),,,
15263,108011-19207,108011,FE,17779,MCBRIDE PUBLIC AFFAIRS LLC*,Employer,19207,"Elevance Health, and its Affiliates",23-Aug,11/6/2023,16107,"Elevance Health, and its Affiliates",5000.0,0.0,5000.0,0.0,0.0,0.0,0.0,0.0,0.0,0.0,5000.0,19207,Direct,,,View report (https://accesshub.pdc.wa.gov/node/108011),Human services,Medicaid,HEALTH CARE BUDGET HUMAN SERVICES
15264,108011-19210,108011,FE,17779,MCBRIDE PUBLIC AFFAIRS LLC*,Employer,19210,BOEING,23-Aug,11/6/2023,16201,BOEING,11000.0,0.0,11000.0,0.0,0.0,0.0,0.0,0.0,0.0,0.0,11000.0,19210,Direct,,,View report (https://accesshub.pdc.wa.gov/node/108011),Transportation,"TRANSPORTATION 1505, 5447",TRANSPORTATION LABOR EDUCATION DOR
15265,108011-19211,108011,FE,17779,MCBRIDE PUBLIC AFFAIRS LLC*,Employer,19211,CITY OF BELLINGHAM,23-Aug,11/6/2023,16276,CITY OF BELLINGHAM,4000.0,-2400.0,1600.0,0.0,0.0,0.0,0.0,0.0,0.0,0.0,1600.0,19211,Direct,,,View report (https://accesshub.pdc.wa.gov/node/108011),Local government,Economic Development,MTCA BUDGET LOCAL GOVERNMENT TRANSPORTATION
15266,108011-19212,108011,FE,17779,MCBRIDE PUBLIC AFFAIRS LLC*,Employer,19212,CITY OF KENNEWICK,23-Aug,11/6/2023,16290,CITY OF KENNEWICK,4120.0,-2746.0,1374.0,0.0,0.0,0.0,0.0,0.0,0.0,0.0,1374.0,19212,Direct,,,View report (https://accesshub.pdc.wa.gov/node/108011),Transportation,transportation,House Senate All
15267,108011-19214,108011,FE,17779,MCBRIDE PUBLIC AFFAIRS LLC*,Employer,19214,DART CONTAINER CORP (THROUGH MULTISTATE ASSOCIATES LLC),23-Aug,11/6/2023,16379,DART CONTAINER CORP (THROUGH MULTISTATE ASSOCIATES LLC),3500.0,0.0,3500.0,0.0,0.0,0.0,0.0,0.0,0.0,0.0,3500.0,19214,Direct,,,View report (https://accesshub.pdc.wa.gov/node/108011),Environmental Affairs - natural resources - parks,"5348, 1131",ENVIRONMENT LABOR
15268,108011-19217,108011,FE,17779,MCBRIDE PUBLIC AFFAIRS LLC*,Employer,19217,HONDA NORTH AMERICA (THRU MULTISTATE ASSOCIATES LLC),23-Aug,11/6/2023,16510,HONDA NORTH AMERICA (THRU MULTISTATE ASSOCIATES LLC),3500.0,0.0,3500.0,0.0,0.0,0.0,0.0,0.0,0.0,0.0,3500.0,19217,Direct,,,View report (https://accesshub.pdc.wa.gov/node/108011),Environmental Affairs - natural resources - parks,Environmental Affairs,TRANSPORTATION PUBLIC SAFETY
15269,108011-19218,108011,FE,17779,MCBRIDE PUBLIC AFFAIRS LLC*,Employer,19218,KITSAP CO,23-Aug,11/6/2023,16580,KITSAP CO,5665.0,0.0,5665.0,0.0,0.0,0.0,0.0,0.0,0.0,0.0,5665.0,19218,Direct,,,View report (https://accesshub.pdc.wa.gov/node/108011),Local government,"1181, 5144, 5203, 1350",REVENUE LOCAL GOV TRANSPORTATION
15270,108011-19219,108011,FE,17779,MCBRIDE PUBLIC AFFAIRS LLC*,Employer,19219,McDonalds Corporation,23-Aug,11/6/2023,16625,McDonalds Corporation,3333.33,0.0,3333.33,0.0,0.0,0.0,0.0,0.0,0.0,0.0,3333.33,19219,Direct,,,View report (https://accesshub.pdc.wa.gov/node/108011),Business and consumer affairs,COMMERCE,1131
15271,108011-19221,108011,FE,17779,MCBRIDE PUBLIC AFFAIRS LLC*,Employer,19221,NATIONAL ELEVATOR INDUSTRY INC,23-Aug,11/6/2023,16663,NATIONAL ELEVATOR INDUSTRY INC,4000.0,0.0,4000.0,0.0,0.0,0.0,0.0,0.0,0.0,0.0,4000.0,19221,Direct,,,View report (https://accesshub.pdc.wa.gov/node/108011),Business and consumer affairs,COMMERCE,ELEVATOR REGS L&I LABOR COMMERCE
15272,108011-19222,108011,FE,17779,MCBRIDE PUBLIC AFFAIRS LLC*,Employer,19222,PORT OF BELLINGHAM,23-Aug,11/6/2023,16792,PORT OF BELLINGHAM,4000.0,-2400.0,1600.0,0.0,0.0,0.0,0.0,0.0,0.0,0.0,1600.0,19222,Direct,,,View report (https://accesshub.pdc.wa.gov/node/108011),Local government,MTCA,BUDGET LOCAL GOVT TRANSPORTATION
15273,108011-49669,108011,FE,17779,MCBRIDE PUBLIC AFFAIRS LLC*,Employer,49669,Molson Coors Beverage Company USA LLC,23-Aug,11/6/2023,16366,Molson Coors Beverage Company USA LLC,4333.0,0.0,4333.0,0.0,0.0,0.0,0.0,0.0,0.0,0.0,4333.0,49669,Direct,,,View report (https://accesshub.pdc.wa.gov/node/108011),Labor,Labor,House Commerce & Gaming AND Senate Labor & Commerce
15274,108011-68909,108011,FE,17779,MCBRIDE PUBLIC AFFAIRS LLC*,Employer,68909,SPOKANE PUBLIC FACILITIES DIST,23-Aug,11/6/2023,16942,SPOKANE PUBLIC FACILITIES DIST,3000.0,0.0,3000.0,0.0,0.0,0.0,0.0,0.0,0.0,0.0,3000.0,68909,Direct,,,View report (https://accesshub.pdc.wa.gov/node/108011),Fiscal,"local government, fiscal",House Senate All - Department of Commerce
15275,108011-68980,108011,FE,17779,MCBRIDE PUBLIC AFFAIRS LLC*,Employer,68980,Superior Court Judges Association,23-Aug,11/6/2023,16960,Superior Court Judges Association,9282.87,0.0,9282.87,0.0,0.0,0.0,0.0,0.0,0.0,0.0,9282.87,68980,Direct,,,View report (https://accesshub.pdc.wa.gov/node/108011),Law and justice,"5434, 1440","House Senate All - Department of Corrections, Administrative Office of the Courts"
15276,108011-69394,108011,FE,17779,MCBRIDE PUBLIC AFFAIRS LLC*,Employer,69394,MT SPOKANE 2000,23-Aug,11/6/2023,16649,MT SPOKANE 2000,3000.0,0.0,3000.0,0.0,0.0,0.0,0.0,0.0,0.0,0.0,3000.0,69394,Direct,,,View report (https://accesshub.pdc.wa.gov/node/108011),State government,"Parks, environment, fiscal, labor",House Senate All - Department of Commerce
15277,108011-71478,108011,FE,17779,MCBRIDE PUBLIC AFFAIRS LLC*,Employer,71478,UNION PACIFIC RAILROAD CO,23-Aug,11/6/2023,17004,UNION PACIFIC RAILROAD CO,4666.0,0.0,4666.0,0.0,0.0,0.0,0.0,0.0,0.0,0.0,4666.0,71478,Direct,,,View report (https://accesshub.pdc.wa.gov/node/108011),Transportation,"1548, 5267",Senate and House All - Utilities and Transportation Commission
15278,108011-71629,108011,FE,17779,MCBRIDE PUBLIC AFFAIRS LLC*,Employer,71629,WHATCOM CO COUNCIL OF GOVERNMENTS,23-Aug,11/6/2023,17308,WHATCOM CO COUNCIL OF GOVERNMENTS,4070.0,0.0,4070.0,0.0,0.0,0.0,0.0,0.0,0.0,0.0,4070.0,71629,Direct,,,View report (https://accesshub.pdc.wa.gov/node/108011),Fiscal,fiscal,"House Senate All, Transportation & Fiscal Committees"
15279,108011-75131,108011,FE,17779,MCBRIDE PUBLIC AFFAIRS LLC*,Employer,75131,SURPLUS LINE ASSN OF WA,23-Aug,11/6/2023,16962,SURPLUS LINE ASSN OF WA,7500.0,0.0,7500.0,0.0,0.0,0.0,0.0,0.0,0.0,0.0,7500.0,75131,Direct,,,View report (https://accesshub.pdc.wa.gov/node/108011),Financial institutions and insurance,"Insurance, OIC, Business",House Senate All
15280,108011-80296,108011,FE,17779,MCBRIDE PUBLIC AFFAIRS LLC*,Employer,80296,"Horizon Therapeutics USA, Inc.",23-Aug,11/6/2023,80293,"Horizon Therapeutics USA, Inc.",5000.0,0.0,5000.0,0.0,0.0,0.0,0.0,0.0,0.0,0.0,5000.0,80296,Direct,,,View report (https://accesshub.pdc.wa.gov/node/108011),Business and consumer affairs,Business & Consumer Affairs,House Senate All
15281,108011-81253,108011,FE,17779,MCBRIDE PUBLIC AFFAIRS LLC*,Employer,81253,S. C. Johnson & Son,23-Aug,11/6/2023,81208,S. C. Johnson & Son,5000.0,0.0,5000.0,0.0,0.0,0.0,0.0,0.0,0.0,0.0,5000.0,81253,Direct,,,View report (https://accesshub.pdc.wa.gov/node/108011),Environmental Affairs - natural resources - parks,1131,House Senate All
15282,108011-86735,108011,FE,17779,MCBRIDE PUBLIC AFFAIRS LLC*,Employer,86735,Uber Technologies Inc and Affiliates,23-Aug,11/6/2023,17001,Uber Technologies Inc and Affiliates,5400.0,0.0,5400.0,0.0,0.0,0.0,0.0,0.0,0.0,0.0,5400.0,86735,Direct,,,View report (https://accesshub.pdc.wa.gov/node/108011),Labor,labor,House Senate All
15283,108011-96893,108011,FE,17779,MCBRIDE PUBLIC AFFAIRS LLC*,Employer,96893,Albemarle Corporation,23-Aug,11/6/2023,96892,Albemarle Corporation,8000.0,0.0,8000.0,0.0,0.0,0.0,0.0,0.0,0.0,0.0,8000.0,96893,Direct,,,View report (https://accesshub.pdc.wa.gov/node/108011),Business and consumer affairs,Business & Consumer Affairs,"House, Senate All, Dept. of Ecology"
15284,108011-98449,108011,FE,17779,MCBRIDE PUBLIC AFFAIRS LLC*,Employer,98449,"Prime Therapeutics, LLC",23-Aug,11/6/2023,36475,"Prime Therapeutics, LLC",5000.0,0.0,5000.0,0.0,0.0,0.0,0.0,0.0,0.0,0.0,5000.0,98449,Direct,,,View report (https://accesshub.pdc.wa.gov/node/108011),Health Care,Health Care,House Senate All
15285,108011-101027,108011,FE,17779,MCBRIDE PUBLIC AFFAIRS LLC*,Employer,101027,"Performa Labs, Inc.",23-Aug,11/6/2023,100949,"Performa Labs, Inc.",5000.0,0.0,5000.0,0.0,0.0,0.0,0.0,0.0,0.0,0.0,5000.0,101027,Direct,,,View report (https://accesshub.pdc.wa.gov/node/108011),Fiscal,fiscal,House Senate All
15286,108011-103892,108011,FE,17779,MCBRIDE PUBLIC AFFAIRS LLC*,Employer,103892,"Al Fakher Distribution USA, Inc.",23-Aug,11/6/2023,76082,"Al Fakher Distribution USA, Inc.",3000.0,0.0,3000.0,0.0,0.0,0.0,0.0,0.0,0.0,0.0,3000.0,103892,Direct,,,View report (https://accesshub.pdc.wa.gov/node/108011),,,
15287,109734-93162,109734,FE,17483,Thomas M Davis,Employer,93162,WA FOREST PROTECTION ASSN,23-Oct,11/6/2023,17120,WA FOREST PROTECTION ASSN,4000.0,0.0,4000.0,0.0,0.0,0.0,0.0,0.0,0.0,0.0,4000.0,93162,Direct,,,View report (https://accesshub.pdc.wa.gov/node/109734),Environmental Affairs - natural resources - parks,various,various
15288,107091-106286,107091,FE,17779,MCBRIDE PUBLIC AFFAIRS LLC*,Employer,106286,"VMware, Inc.",23-Jul,11/6/2023,106201,"VMware, Inc.",4000.0,0.0,4000.0,0.0,0.0,0.0,0.0,0.0,0.0,0.0,4000.0,106286,Direct,,,View report (https://accesshub.pdc.wa.gov/node/107091),,,
15289,107091-19207,107091,FE,17779,MCBRIDE PUBLIC AFFAIRS LLC*,Employer,19207,"Elevance Health, and its Affiliates",23-Jul,11/6/2023,16107,"Elevance Health, and its Affiliates",5000.0,0.0,5000.0,0.0,0.0,0.0,0.0,0.0,0.0,0.0,5000.0,19207,Direct,,,View report (https://accesshub.pdc.wa.gov/node/107091),Human services,Medicaid,HEALTH CARE BUDGET HUMAN SERVICES
15290,107091-19208,107091,FE,17779,MCBRIDE PUBLIC AFFAIRS LLC*,Employer,19208,AMGEN INC,23-Jul,11/6/2023,16127,AMGEN INC,4500.0,0.0,4500.0,0.0,0.0,0.0,0.0,0.0,0.0,0.0,4500.0,19208,Direct,,,View report (https://accesshub.pdc.wa.gov/node/107091),Health Care,"Health Care 1450, 5074,1269",HEALTH CARE TECH WAYS & MEANS
15291,107091-19210,107091,FE,17779,MCBRIDE PUBLIC AFFAIRS LLC*,Employer,19210,BOEING,23-Jul,11/6/2023,16201,BOEING,11000.0,0.0,11000.0,0.0,0.0,0.0,0.0,0.0,0.0,0.0,11000.0,19210,Direct,,,View report (https://accesshub.pdc.wa.gov/node/107091),Transportation,"TRANSPORTATION 1505, 5447",TRANSPORTATION LABOR EDUCATION DOR
15292,107091-19211,107091,FE,17779,MCBRIDE PUBLIC AFFAIRS LLC*,Employer,19211,CITY OF BELLINGHAM,23-Jul,11/6/2023,16276,CITY OF BELLINGHAM,4000.0,-2400.0,1600.0,0.0,0.0,0.0,0.0,0.0,0.0,0.0,1600.0,19211,Direct,,,View report (https://accesshub.pdc.wa.gov/node/107091),Local government,Economic Development,MTCA BUDGET LOCAL GOVERNMENT TRANSPORTATION
15293,107091-19212,107091,FE,17779,MCBRIDE PUBLIC AFFAIRS LLC*,Employer,19212,CITY OF KENNEWICK,23-Jul,11/6/2023,16290,CITY OF KENNEWICK,4120.0,-2746.0,1374.0,0.0,0.0,0.0,0.0,0.0,0.0,0.0,1374.0,19212,Direct,,,View report (https://accesshub.pdc.wa.gov/node/107091),Transportation,transportation,House Senate All
15294,107091-19214,107091,FE,17779,MCBRIDE PUBLIC AFFAIRS LLC*,Employer,19214,DART CONTAINER CORP (THROUGH MULTISTATE ASSOCIATES LLC),23-Jul,11/6/2023,16379,DART CONTAINER CORP (THROUGH MULTISTATE ASSOCIATES LLC),3500.0,0.0,3500.0,0.0,0.0,0.0,0.0,0.0,0.0,0.0,3500.0,19214,Direct,,,View report (https://accesshub.pdc.wa.gov/node/107091),Environmental Affairs - natural resources - parks,"5348, 1131",ENVIRONMENT LABOR
15295,107091-19217,107091,FE,17779,MCBRIDE PUBLIC AFFAIRS LLC*,Employer,19217,HONDA NORTH AMERICA (THRU MULTISTATE ASSOCIATES LLC),23-Jul,11/6/2023,16510,HONDA NORTH AMERICA (THRU MULTISTATE ASSOCIATES LLC),3500.0,0.0,3500.0,0.0,0.0,0.0,0.0,0.0,0.0,0.0,3500.0,19217,Direct,,,View report (https://accesshub.pdc.wa.gov/node/107091),Environmental Affairs - natural resources - parks,Environmental Affairs,TRANSPORTATION PUBLIC SAFETY
15296,107091-19218,107091,FE,17779,MCBRIDE PUBLIC AFFAIRS LLC*,Employer,19218,KITSAP CO,23-Jul,11/6/2023,16580,KITSAP CO,5665.0,0.0,5665.0,0.0,0.0,0.0,0.0,0.0,0.0,0.0,5665.0,19218,Direct,,,View report (https://accesshub.pdc.wa.gov/node/107091),Local government,"1181, 5144, 5203, 1350",REVENUE LOCAL GOV TRANSPORTATION
15297,107091-19219,107091,FE,17779,MCBRIDE PUBLIC AFFAIRS LLC*,Employer,19219,McDonalds Corporation,23-Jul,11/6/2023,16625,McDonalds Corporation,3333.33,0.0,3333.33,0.0,0.0,0.0,0.0,0.0,0.0,0.0,3333.33,19219,Direct,,,View report (https://accesshub.pdc.wa.gov/node/107091),Business and consumer affairs,COMMERCE,1131
15298,107091-19221,107091,FE,17779,MCBRIDE PUBLIC AFFAIRS LLC*,Employer,19221,NATIONAL ELEVATOR INDUSTRY INC,23-Jul,11/6/2023,16663,NATIONAL ELEVATOR INDUSTRY INC,4000.0,0.0,4000.0,0.0,0.0,0.0,0.0,0.0,0.0,0.0,4000.0,19221,Direct,,,View report (https://accesshub.pdc.wa.gov/node/107091),Business and consumer affairs,COMMERCE,ELEVATOR REGS L&I LABOR COMMERCE
15299,107091-19222,107091,FE,17779,MCBRIDE PUBLIC AFFAIRS LLC*,Employer,19222,PORT OF BELLINGHAM,23-Jul,11/6/2023,16792,PORT OF BELLINGHAM,4000.0,-2400.0,1600.0,0.0,0.0,0.0,0.0,0.0,0.0,0.0,1600.0,19222,Direct,,,View report (https://accesshub.pdc.wa.gov/node/107091),Local government,MTCA,BUDGET LOCAL GOVT TRANSPORTATION
15300,107091-19224,107091,FE,17779,MCBRIDE PUBLIC AFFAIRS LLC*,Employer,19224,QUEST DIAGNOSTICS ,23-Jul,11/6/2023,16836,QUEST DIAGNOSTICS ,5000.0,0.0,5000.0,0.0,0.0,0.0,0.0,0.0,0.0,0.0,5000.0,19224,Direct,,,View report (https://accesshub.pdc.wa.gov/node/107091),,,
15301,107091-19225,107091,FE,17779,MCBRIDE PUBLIC AFFAIRS LLC*,Employer,19225,THYSSENKRUPP ELEVATOR,23-Jul,11/6/2023,16983,THYSSENKRUPP ELEVATOR,5000.0,0.0,5000.0,0.0,0.0,0.0,0.0,0.0,0.0,0.0,5000.0,19225,Direct,,,View report (https://accesshub.pdc.wa.gov/node/107091),Labor,COMMERCE LABOR,LABOR & INDUSTRIES
15302,107091-19226,107091,FE,17779,MCBRIDE PUBLIC AFFAIRS LLC*,Employer,19226,WA ASSN OF JUVENILE COURT ADMINISTRATORS,23-Jul,11/6/2023,17139,WA ASSN OF JUVENILE COURT ADMINISTRATORS,4208.0,0.0,4208.0,0.0,0.0,0.0,0.0,0.0,0.0,0.0,4208.0,19226,Direct,,,View report (https://accesshub.pdc.wa.gov/node/107091),Law and justice,"1440, 5434, 5644",JUVENILE SERVICES BUDGET
15303,107091-19228,107091,FE,17779,MCBRIDE PUBLIC AFFAIRS LLC*,Employer,19228,Whatcom Co,23-Jul,11/6/2023,17307,Whatcom Co,4000.0,-2400.0,1600.0,0.0,0.0,0.0,0.0,0.0,0.0,0.0,1600.0,19228,Direct,,,View report (https://accesshub.pdc.wa.gov/node/107091),Local government,HOUSING,BUDGET LOCAL GOVT TRANSPORTATION
15304,107091-30638,107091,FE,17779,MCBRIDE PUBLIC AFFAIRS LLC*,Employer,30638,Growth Energy,23-Jul,11/6/2023,30635,Growth Energy,5000.0,0.0,5000.0,0.0,0.0,0.0,0.0,0.0,0.0,0.0,5000.0,30638,Direct,,,View report (https://accesshub.pdc.wa.gov/node/107091),Agriculture,"5447, 1505",House Senate All
15305,107091-49669,107091,FE,17779,MCBRIDE PUBLIC AFFAIRS LLC*,Employer,49669,Molson Coors Beverage Company USA LLC,23-Jul,11/6/2023,16366,Molson Coors Beverage Company USA LLC,4333.0,0.0,4333.0,0.0,0.0,0.0,0.0,0.0,0.0,0.0,4333.0,49669,Direct,,,View report (https://accesshub.pdc.wa.gov/node/107091),Labor,Labor,House Commerce & Gaming AND Senate Labor & Commerce
15306,107091-68909,107091,FE,17779,MCBRIDE PUBLIC AFFAIRS LLC*,Employer,68909,SPOKANE PUBLIC FACILITIES DIST,23-Jul,11/6/2023,16942,SPOKANE PUBLIC FACILITIES DIST,3000.0,0.0,3000.0,0.0,0.0,0.0,0.0,0.0,0.0,0.0,3000.0,68909,Direct,,,View report (https://accesshub.pdc.wa.gov/node/107091),Fiscal,"local government, fiscal",House Senate All - Department of Commerce
15307,107091-68980,107091,FE,17779,MCBRIDE PUBLIC AFFAIRS LLC*,Employer,68980,Superior Court Judges Association,23-Jul,11/6/2023,16960,Superior Court Judges Association,9282.87,0.0,9282.87,1055.23,0.0,0.0,0.0,0.0,0.0,1055.23,10338.1,68980,Direct,,,View report (https://accesshub.pdc.wa.gov/node/107091),Law and justice,"5434, 1440","House Senate All - Department of Corrections, Administrative Office of the Courts"
