,id,report_number,origin,filer_id,filer_name,type,funding_source_id,funding_source_name,filing_period,receipt_date,employer_id,employer_name,compensation,sub_lobbyist_compensation,net_compensation,personal_expenses,entertainment,contributions,advertising,political_ads,other,total_expenses,net_total,employment_registration_id,employment_type,contractor_id,contractor_name,url,legislation_subject_matter,issue_bill_number,committee_lobbied
85000,74113-18837,74113,FE,17581,GORDON THOMAS HONEYWELL GOV AFFAIRS*,Employer,18837,CITY OF SPOKANE VALLEY,20-Dec,2/26/2021,16317.0,CITY OF SPOKANE VALLEY,5000.0,0.0,5000.0,0.0,0.0,0.0,0.0,0.0,0.0,0.0,5000.0,18837.0,Direct,,,View report (https://accesshub.pdc.wa.gov/node/74113),Local government,Local miscell,legislature
85001,68088-18838,68088,FE,17581,GORDON THOMAS HONEYWELL GOV AFFAIRS*,Employer,18838,CITY OF TACOMA,20-May,2/26/2021,16318.0,CITY OF TACOMA,7705.0,0.0,7705.0,0.0,0.0,0.0,0.0,0.0,0.0,0.0,7705.0,18838.0,Direct,,,View report (https://accesshub.pdc.wa.gov/node/68088),Local government,"business licenses, transportation, land use, traffic enforcment, local law enforcement, budget, public safety, affordable housing",legislature
85002,68836-18838,68836,FE,17581,GORDON THOMAS HONEYWELL GOV AFFAIRS*,Employer,18838,CITY OF TACOMA,20-Jun,2/26/2021,16318.0,CITY OF TACOMA,7705.0,0.0,7705.0,0.0,0.0,0.0,0.0,0.0,0.0,0.0,7705.0,18838.0,Direct,,,View report (https://accesshub.pdc.wa.gov/node/68836),Local government,"business licenses, transportation, land use, traffic enforcment, local law enforcement, budget, public safety, affordable housing",legislature
85003,69694-18838,69694,FE,17581,GORDON THOMAS HONEYWELL GOV AFFAIRS*,Employer,18838,CITY OF TACOMA,20-Jul,2/26/2021,16318.0,CITY OF TACOMA,7705.0,0.0,7705.0,0.0,0.0,0.0,0.0,0.0,0.0,0.0,7705.0,18838.0,Direct,,,View report (https://accesshub.pdc.wa.gov/node/69694),Local government,"business licenses, transportation, land use, traffic enforcment, local law enforcement, budget, public safety, affordable housing",legislature
85004,70481-18838,70481,FE,17581,GORDON THOMAS HONEYWELL GOV AFFAIRS*,Employer,18838,CITY OF TACOMA,20-Aug,2/26/2021,16318.0,CITY OF TACOMA,7705.0,0.0,7705.0,0.0,0.0,0.0,0.0,0.0,0.0,0.0,7705.0,18838.0,Direct,,,View report (https://accesshub.pdc.wa.gov/node/70481),Local government,"business licenses, transportation, land use, traffic enforcment, local law enforcement, budget, public safety, affordable housing",legislature
85005,71317-18838,71317,FE,17581,GORDON THOMAS HONEYWELL GOV AFFAIRS*,Employer,18838,CITY OF TACOMA,20-Sep,2/26/2021,16318.0,CITY OF TACOMA,7705.0,0.0,7705.0,0.0,0.0,0.0,0.0,0.0,0.0,0.0,7705.0,18838.0,Direct,,,View report (https://accesshub.pdc.wa.gov/node/71317),Local government,"business licenses, transportation, land use, traffic enforcment, local law enforcement, budget, public safety, affordable housing",legislature
85006,72347-18838,72347,FE,17581,GORDON THOMAS HONEYWELL GOV AFFAIRS*,Employer,18838,CITY OF TACOMA,20-Oct,2/26/2021,16318.0,CITY OF TACOMA,7705.0,0.0,7705.0,0.0,0.0,0.0,0.0,0.0,0.0,0.0,7705.0,18838.0,Direct,,,View report (https://accesshub.pdc.wa.gov/node/72347),Local government,"business licenses, transportation, land use, traffic enforcment, local law enforcement, budget, public safety, affordable housing",legislature
85007,73068-18838,73068,FE,17581,GORDON THOMAS HONEYWELL GOV AFFAIRS*,Employer,18838,CITY OF TACOMA,20-Nov,2/26/2021,16318.0,CITY OF TACOMA,7705.0,0.0,7705.0,0.0,0.0,0.0,0.0,0.0,0.0,0.0,7705.0,18838.0,Direct,,,View report (https://accesshub.pdc.wa.gov/node/73068),Local government,"business licenses, transportation, land use, traffic enforcment, local law enforcement, budget, public safety, affordable housing",legislature
85008,74113-18838,74113,FE,17581,GORDON THOMAS HONEYWELL GOV AFFAIRS*,Employer,18838,CITY OF TACOMA,20-Dec,2/26/2021,16318.0,CITY OF TACOMA,7705.0,0.0,7705.0,0.0,0.0,0.0,0.0,0.0,0.0,0.0,7705.0,18838.0,Direct,,,View report (https://accesshub.pdc.wa.gov/node/74113),Local government,"business licenses, transportation, land use, traffic enforcment, local law enforcement, budget, public safety, affordable housing",legislature
85009,68088-47232,68088,FE,17581,GORDON THOMAS HONEYWELL GOV AFFAIRS*,Employer,47232,CLARK COUNTY,20-May,2/26/2021,16322.0,CLARK COUNTY,6695.0,0.0,6695.0,0.0,0.0,0.0,0.0,0.0,0.0,0.0,6695.0,47232.0,Direct,,,View report (https://accesshub.pdc.wa.gov/node/68088),State government,"economic development, transportation funding, other local gvmt issues",Legislature
85010,68836-47232,68836,FE,17581,GORDON THOMAS HONEYWELL GOV AFFAIRS*,Employer,47232,CLARK COUNTY,20-Jun,2/26/2021,16322.0,CLARK COUNTY,6695.0,0.0,6695.0,0.0,0.0,0.0,0.0,0.0,0.0,0.0,6695.0,47232.0,Direct,,,View report (https://accesshub.pdc.wa.gov/node/68836),State government,"economic development, transportation funding, other local gvmt issues",Legislature
85011,69694-47232,69694,FE,17581,GORDON THOMAS HONEYWELL GOV AFFAIRS*,Employer,47232,CLARK COUNTY,20-Jul,2/26/2021,16322.0,CLARK COUNTY,6695.0,0.0,6695.0,0.0,0.0,0.0,0.0,0.0,0.0,0.0,6695.0,47232.0,Direct,,,View report (https://accesshub.pdc.wa.gov/node/69694),State government,"economic development, transportation funding, other local gvmt issues",Legislature
85012,70481-47232,70481,FE,17581,GORDON THOMAS HONEYWELL GOV AFFAIRS*,Employer,47232,CLARK COUNTY,20-Aug,2/26/2021,16322.0,CLARK COUNTY,6695.0,0.0,6695.0,0.0,0.0,0.0,0.0,0.0,0.0,0.0,6695.0,47232.0,Direct,,,View report (https://accesshub.pdc.wa.gov/node/70481),State government,"economic development, transportation funding, other local gvmt issues",Legislature
85013,71317-47232,71317,FE,17581,GORDON THOMAS HONEYWELL GOV AFFAIRS*,Employer,47232,CLARK COUNTY,20-Sep,2/26/2021,16322.0,CLARK COUNTY,6695.0,0.0,6695.0,0.0,0.0,0.0,0.0,0.0,0.0,0.0,6695.0,47232.0,Direct,,,View report (https://accesshub.pdc.wa.gov/node/71317),State government,"economic development, transportation funding, other local gvmt issues",Legislature
85014,72347-47232,72347,FE,17581,GORDON THOMAS HONEYWELL GOV AFFAIRS*,Employer,47232,CLARK COUNTY,20-Oct,2/26/2021,16322.0,CLARK COUNTY,6695.0,0.0,6695.0,0.0,0.0,0.0,0.0,0.0,0.0,0.0,6695.0,47232.0,Direct,,,View report (https://accesshub.pdc.wa.gov/node/72347),State government,"economic development, transportation funding, other local gvmt issues",Legislature
85015,73068-47232,73068,FE,17581,GORDON THOMAS HONEYWELL GOV AFFAIRS*,Employer,47232,CLARK COUNTY,20-Nov,2/26/2021,16322.0,CLARK COUNTY,6695.0,0.0,6695.0,0.0,0.0,0.0,0.0,0.0,0.0,0.0,6695.0,47232.0,Direct,,,View report (https://accesshub.pdc.wa.gov/node/73068),State government,"economic development, transportation funding, other local gvmt issues",Legislature
85016,74113-47232,74113,FE,17581,GORDON THOMAS HONEYWELL GOV AFFAIRS*,Employer,47232,CLARK COUNTY,20-Dec,2/26/2021,16322.0,CLARK COUNTY,6695.0,0.0,6695.0,0.0,0.0,0.0,0.0,0.0,0.0,0.0,6695.0,47232.0,Direct,,,View report (https://accesshub.pdc.wa.gov/node/74113),State government,"economic development, transportation funding, other local gvmt issues",Legislature
85017,67422-18172,67422,FE,17348,CHRISTOPHERSEN INC*,Employer,18172,THE COLLEGE BOARD,20-Apr,2/26/2021,16334.0,THE COLLEGE BOARD,5000.0,-727.26,4272.74,0.0,0.0,0.0,0.0,0.0,0.0,0.0,4272.74,18172.0,Direct,,,View report (https://accesshub.pdc.wa.gov/node/67422),Education,various,various
85018,69803-18172,69803,FE,17348,CHRISTOPHERSEN INC*,Employer,18172,THE COLLEGE BOARD,20-Jul,2/26/2021,16334.0,THE COLLEGE BOARD,5000.0,-363.63,4636.37,0.0,0.0,0.0,0.0,0.0,0.0,0.0,4636.37,18172.0,Direct,,,View report (https://accesshub.pdc.wa.gov/node/69803),Education,various,various
85019,72300-18172,72300,FE,17348,CHRISTOPHERSEN INC*,Employer,18172,THE COLLEGE BOARD,20-Oct,2/26/2021,16334.0,THE COLLEGE BOARD,5000.0,-363.63,4636.37,0.0,0.0,0.0,0.0,0.0,0.0,0.0,4636.37,18172.0,Direct,,,View report (https://accesshub.pdc.wa.gov/node/72300),Education,various,various
85020,68088-18840,68088,FE,17581,GORDON THOMAS HONEYWELL GOV AFFAIRS*,Employer,18840,COWLITZ PUD,20-May,2/26/2021,16373.0,COWLITZ PUD,3750.0,0.0,3750.0,0.0,0.0,0.0,0.0,0.0,0.0,0.0,3750.0,18840.0,Direct,,,View report (https://accesshub.pdc.wa.gov/node/68088),Energy and utilities,energy and climate change,legislature
85021,68836-18840,68836,FE,17581,GORDON THOMAS HONEYWELL GOV AFFAIRS*,Employer,18840,COWLITZ PUD,20-Jun,2/26/2021,16373.0,COWLITZ PUD,3750.0,0.0,3750.0,0.0,0.0,0.0,0.0,0.0,0.0,0.0,3750.0,18840.0,Direct,,,View report (https://accesshub.pdc.wa.gov/node/68836),Energy and utilities,energy and climate change,legislature
85022,69694-18840,69694,FE,17581,GORDON THOMAS HONEYWELL GOV AFFAIRS*,Employer,18840,COWLITZ PUD,20-Jul,2/26/2021,16373.0,COWLITZ PUD,3750.0,0.0,3750.0,0.0,0.0,0.0,0.0,0.0,0.0,0.0,3750.0,18840.0,Direct,,,View report (https://accesshub.pdc.wa.gov/node/69694),Energy and utilities,energy and climate change,legislature
85023,70481-18840,70481,FE,17581,GORDON THOMAS HONEYWELL GOV AFFAIRS*,Employer,18840,COWLITZ PUD,20-Aug,2/26/2021,16373.0,COWLITZ PUD,3750.0,0.0,3750.0,0.0,0.0,0.0,0.0,0.0,0.0,0.0,3750.0,18840.0,Direct,,,View report (https://accesshub.pdc.wa.gov/node/70481),Energy and utilities,energy and climate change,legislature
85024,71317-18840,71317,FE,17581,GORDON THOMAS HONEYWELL GOV AFFAIRS*,Employer,18840,COWLITZ PUD,20-Sep,2/26/2021,16373.0,COWLITZ PUD,3750.0,0.0,3750.0,0.0,0.0,0.0,0.0,0.0,0.0,0.0,3750.0,18840.0,Direct,,,View report (https://accesshub.pdc.wa.gov/node/71317),Energy and utilities,energy and climate change,legislature
85025,72347-18840,72347,FE,17581,GORDON THOMAS HONEYWELL GOV AFFAIRS*,Employer,18840,COWLITZ PUD,20-Oct,2/26/2021,16373.0,COWLITZ PUD,3750.0,0.0,3750.0,0.0,0.0,0.0,0.0,0.0,0.0,0.0,3750.0,18840.0,Direct,,,View report (https://accesshub.pdc.wa.gov/node/72347),Energy and utilities,energy and climate change,legislature
85026,73068-18840,73068,FE,17581,GORDON THOMAS HONEYWELL GOV AFFAIRS*,Employer,18840,COWLITZ PUD,20-Nov,2/26/2021,16373.0,COWLITZ PUD,3750.0,0.0,3750.0,0.0,0.0,0.0,0.0,0.0,0.0,0.0,3750.0,18840.0,Direct,,,View report (https://accesshub.pdc.wa.gov/node/73068),Energy and utilities,energy and climate change,legislature
85027,74113-18840,74113,FE,17581,GORDON THOMAS HONEYWELL GOV AFFAIRS*,Employer,18840,COWLITZ PUD,20-Dec,2/26/2021,16373.0,COWLITZ PUD,3750.0,0.0,3750.0,0.0,0.0,0.0,0.0,0.0,0.0,0.0,3750.0,18840.0,Direct,,,View report (https://accesshub.pdc.wa.gov/node/74113),Energy and utilities,energy and climate change,legislature
85028,70620-19290,70620,FE,17813,MILLENNIA PUBLIC AFFAIRS INC*,Employer,19290,DISH Network Corporation,20-Aug,2/26/2021,16390.0,DISH Network Corporation,3000.0,0.0,3000.0,0.0,0.0,0.0,0.0,0.0,0.0,0.0,3000.0,19290.0,Direct,,,View report (https://accesshub.pdc.wa.gov/node/70620),Business and consumer affairs,BUSINESS AND CONSUMER AFFAIRS,BUSINESS AND CONSUMER AFFAIRS
85029,76746-18236,76746,FE,17379,ERICA D HALLOCK,Employer,18236,EMPIRE HEALTH FOUNDATION,21-Feb,2/26/2021,16413.0,EMPIRE HEALTH FOUNDATION,1200.0,0.0,1200.0,0.0,0.0,0.0,0.0,0.0,0.0,0.0,1200.0,18236.0,Direct,,,View report (https://accesshub.pdc.wa.gov/node/76746),Human services,"network administrator child welfare, CARE Fund, Accountable Communities of Health","House Children, Youth and Families; House Health; Senate Health; Senate Ways and Means; House Appropriations; DCYF"
85030,71772-19130,71772,FE,17741,JEAN M LEONARD*,Employer,19130,ENTERTAINMENT SOFTWARE ASSN,20-Sep,2/26/2021,16416.0,ENTERTAINMENT SOFTWARE ASSN,6666.67,-1605.45,5061.22,0.0,0.0,9000.0,0.0,0.0,0.0,9000.0,14061.22,19130.0,Direct,,,View report (https://accesshub.pdc.wa.gov/node/71772),Technology,Video Games,"ITED, CG, EET, LC"
85031,68088-18842,68088,FE,17581,GORDON THOMAS HONEYWELL GOV AFFAIRS*,Employer,18842,FEDEX,20-May,2/26/2021,16438.0,FEDEX,6500.0,0.0,6500.0,0.0,0.0,0.0,0.0,0.0,0.0,0.0,6500.0,18842.0,Direct,,,View report (https://accesshub.pdc.wa.gov/node/68088),Transportation,Business/Transportation/labor/climate,legislature
85032,68836-18842,68836,FE,17581,GORDON THOMAS HONEYWELL GOV AFFAIRS*,Employer,18842,FEDEX,20-Jun,2/26/2021,16438.0,FEDEX,6500.0,0.0,6500.0,0.0,0.0,0.0,0.0,0.0,0.0,0.0,6500.0,18842.0,Direct,,,View report (https://accesshub.pdc.wa.gov/node/68836),Transportation,Business/Transportation/labor/climate,legislature
85033,69694-18842,69694,FE,17581,GORDON THOMAS HONEYWELL GOV AFFAIRS*,Employer,18842,FEDEX,20-Jul,2/26/2021,16438.0,FEDEX,6500.0,0.0,6500.0,0.0,0.0,0.0,0.0,0.0,0.0,0.0,6500.0,18842.0,Direct,,,View report (https://accesshub.pdc.wa.gov/node/69694),Transportation,Business/Transportation/labor/climate,legislature
85034,70481-18842,70481,FE,17581,GORDON THOMAS HONEYWELL GOV AFFAIRS*,Employer,18842,FEDEX,20-Aug,2/26/2021,16438.0,FEDEX,6500.0,0.0,6500.0,0.0,0.0,0.0,0.0,0.0,0.0,0.0,6500.0,18842.0,Direct,,,View report (https://accesshub.pdc.wa.gov/node/70481),Transportation,Business/Transportation/labor/climate,legislature
85035,71317-18842,71317,FE,17581,GORDON THOMAS HONEYWELL GOV AFFAIRS*,Employer,18842,FEDEX,20-Sep,2/26/2021,16438.0,FEDEX,6500.0,0.0,6500.0,0.0,0.0,0.0,0.0,0.0,0.0,0.0,6500.0,18842.0,Direct,,,View report (https://accesshub.pdc.wa.gov/node/71317),Transportation,Business/Transportation/labor/climate,legislature
85036,72347-18842,72347,FE,17581,GORDON THOMAS HONEYWELL GOV AFFAIRS*,Employer,18842,FEDEX,20-Oct,2/26/2021,16438.0,FEDEX,6500.0,0.0,6500.0,0.0,0.0,0.0,0.0,0.0,0.0,0.0,6500.0,18842.0,Direct,,,View report (https://accesshub.pdc.wa.gov/node/72347),Transportation,Business/Transportation/labor/climate,legislature
85037,73068-18842,73068,FE,17581,GORDON THOMAS HONEYWELL GOV AFFAIRS*,Employer,18842,FEDEX,20-Nov,2/26/2021,16438.0,FEDEX,6500.0,0.0,6500.0,0.0,0.0,0.0,0.0,0.0,0.0,0.0,6500.0,18842.0,Direct,,,View report (https://accesshub.pdc.wa.gov/node/73068),Transportation,Business/Transportation/labor/climate,legislature
85038,74113-18842,74113,FE,17581,GORDON THOMAS HONEYWELL GOV AFFAIRS*,Employer,18842,FEDEX,20-Dec,2/26/2021,16438.0,FEDEX,6500.0,0.0,6500.0,0.0,0.0,0.0,0.0,0.0,0.0,0.0,6500.0,18842.0,Direct,,,View report (https://accesshub.pdc.wa.gov/node/74113),Transportation,Business/Transportation/labor/climate,legislature
85039,76737-70168,76737,FE,69512,Sound Government Solutions,Employer,70168,FORD MOTOR CO,21-Feb,2/26/2021,16449.0,FORD MOTOR CO,1000.0,0.0,1000.0,0.0,0.0,0.0,0.0,0.0,0.0,0.0,1000.0,70168.0,Direct,,,View report (https://accesshub.pdc.wa.gov/node/76737),Transportation,Auto Manufacturing,Transportation Cmtes
85040,63401-59124,63401,FE,17632,KRISTINA HERMACH,Employer,59124,GILEAD SCIENCES INC,20-Jan,2/26/2021,16471.0,GILEAD SCIENCES INC,2000.0,0.0,2000.0,0.0,0.0,150.0,0.0,0.0,0.0,150.0,2150.0,59124.0,Direct,,,View report (https://accesshub.pdc.wa.gov/node/63401),Health Care,Budget for public health issues,Ways and Means; Health and Long Term Care
85041,73027-59124,73027,FE,17632,KRISTINA HERMACH,Employer,59124,GILEAD SCIENCES INC,20-Nov,2/26/2021,16471.0,GILEAD SCIENCES INC,2000.0,0.0,2000.0,0.0,0.0,150.0,0.0,0.0,0.0,150.0,2150.0,59124.0,Direct,,,View report (https://accesshub.pdc.wa.gov/node/73027),Health Care,Matters pertaining to access to treatments and prevention of HIV as well as general access to medications.,"Legislators on health care and fiscal committees, HCA, DOH, Gov, OIC"
85042,67422-26030,67422,FE,17348,CHRISTOPHERSEN INC*,Employer,26030,HAMPTON TREE FARMS LLC,20-Apr,2/26/2021,16490.0,HAMPTON TREE FARMS LLC,4000.0,-727.26,3272.74,0.0,0.0,0.0,0.0,0.0,0.0,0.0,3272.74,26030.0,Direct,,,View report (https://accesshub.pdc.wa.gov/node/67422),Business and consumer affairs,various,various
85043,69803-26030,69803,FE,17348,CHRISTOPHERSEN INC*,Employer,26030,HAMPTON TREE FARMS LLC,20-Jul,2/26/2021,16490.0,HAMPTON TREE FARMS LLC,4000.0,-363.63,3636.37,0.0,0.0,35000.0,0.0,0.0,0.0,35000.0,38636.37,26030.0,Direct,,,View report (https://accesshub.pdc.wa.gov/node/69803),Business and consumer affairs,various,various
85044,72300-26030,72300,FE,17348,CHRISTOPHERSEN INC*,Employer,26030,HAMPTON TREE FARMS LLC,20-Oct,2/26/2021,16490.0,HAMPTON TREE FARMS LLC,4000.0,-363.63,3636.37,0.0,0.0,12000.0,0.0,0.0,0.0,12000.0,15636.37,26030.0,Direct,,,View report (https://accesshub.pdc.wa.gov/node/72300),Business and consumer affairs,various,various
85045,70481-18844,70481,FE,17581,GORDON THOMAS HONEYWELL GOV AFFAIRS*,Employer,18844,HIGHLINE COLLEGE,20-Aug,2/26/2021,16500.0,HIGHLINE COLLEGE,4000.0,0.0,4000.0,0.0,0.0,0.0,0.0,0.0,0.0,0.0,4000.0,18844.0,Direct,,,View report (https://accesshub.pdc.wa.gov/node/70481),Higher education,community college,legislative
85046,71317-18844,71317,FE,17581,GORDON THOMAS HONEYWELL GOV AFFAIRS*,Employer,18844,HIGHLINE COLLEGE,20-Sep,2/26/2021,16500.0,HIGHLINE COLLEGE,3000.0,0.0,3000.0,0.0,0.0,0.0,0.0,0.0,0.0,0.0,3000.0,18844.0,Direct,,,View report (https://accesshub.pdc.wa.gov/node/71317),Higher education,community college,legislative
85047,72347-18844,72347,FE,17581,GORDON THOMAS HONEYWELL GOV AFFAIRS*,Employer,18844,HIGHLINE COLLEGE,20-Oct,2/26/2021,16500.0,HIGHLINE COLLEGE,3000.0,0.0,3000.0,0.0,0.0,0.0,0.0,0.0,0.0,0.0,3000.0,18844.0,Direct,,,View report (https://accesshub.pdc.wa.gov/node/72347),Higher education,community college,legislative
85048,73068-18844,73068,FE,17581,GORDON THOMAS HONEYWELL GOV AFFAIRS*,Employer,18844,HIGHLINE COLLEGE,20-Nov,2/26/2021,16500.0,HIGHLINE COLLEGE,3000.0,0.0,3000.0,0.0,0.0,0.0,0.0,0.0,0.0,0.0,3000.0,18844.0,Direct,,,View report (https://accesshub.pdc.wa.gov/node/73068),Higher education,community college,legislative
85049,74113-18844,74113,FE,17581,GORDON THOMAS HONEYWELL GOV AFFAIRS*,Employer,18844,HIGHLINE COLLEGE,20-Dec,2/26/2021,16500.0,HIGHLINE COLLEGE,3000.0,0.0,3000.0,0.0,0.0,0.0,0.0,0.0,0.0,0.0,3000.0,18844.0,Direct,,,View report (https://accesshub.pdc.wa.gov/node/74113),Higher education,community college,legislative
85050,70620-19291,70620,FE,17813,MILLENNIA PUBLIC AFFAIRS INC*,Employer,19291,"JOHNSON & JOHNSON SERVICES, INC.",20-Aug,2/26/2021,16562.0,"JOHNSON & JOHNSON SERVICES, INC.",4000.0,0.0,4000.0,0.0,0.0,0.0,0.0,0.0,0.0,0.0,4000.0,19291.0,Direct,,,View report (https://accesshub.pdc.wa.gov/node/70620),Health Care,HEALTH CARE,HEALTH CARE
85051,68088-18846,68088,FE,17581,GORDON THOMAS HONEYWELL GOV AFFAIRS*,Employer,18846,Lewis PUD 01,20-May,2/26/2021,16601.0,Lewis PUD 01,3750.0,0.0,3750.0,0.0,0.0,0.0,0.0,0.0,0.0,0.0,3750.0,18846.0,Direct,,,View report (https://accesshub.pdc.wa.gov/node/68088),Energy and utilities,energy and climate change; flood control,legislature
85052,68836-18846,68836,FE,17581,GORDON THOMAS HONEYWELL GOV AFFAIRS*,Employer,18846,Lewis PUD 01,20-Jun,2/26/2021,16601.0,Lewis PUD 01,3750.0,0.0,3750.0,0.0,0.0,0.0,0.0,0.0,0.0,0.0,3750.0,18846.0,Direct,,,View report (https://accesshub.pdc.wa.gov/node/68836),Energy and utilities,energy and climate change; flood control,legislature
85053,69694-18846,69694,FE,17581,GORDON THOMAS HONEYWELL GOV AFFAIRS*,Employer,18846,Lewis PUD 01,20-Jul,2/26/2021,16601.0,Lewis PUD 01,3750.0,0.0,3750.0,0.0,0.0,0.0,0.0,0.0,0.0,0.0,3750.0,18846.0,Direct,,,View report (https://accesshub.pdc.wa.gov/node/69694),Energy and utilities,energy and climate change; flood control,legislature
85054,70481-18846,70481,FE,17581,GORDON THOMAS HONEYWELL GOV AFFAIRS*,Employer,18846,Lewis PUD 01,20-Aug,2/26/2021,16601.0,Lewis PUD 01,3750.0,0.0,3750.0,0.0,0.0,0.0,0.0,0.0,0.0,0.0,3750.0,18846.0,Direct,,,View report (https://accesshub.pdc.wa.gov/node/70481),Energy and utilities,energy and climate change; flood control,legislature
85055,71317-18846,71317,FE,17581,GORDON THOMAS HONEYWELL GOV AFFAIRS*,Employer,18846,Lewis PUD 01,20-Sep,2/26/2021,16601.0,Lewis PUD 01,3750.0,0.0,3750.0,0.0,0.0,0.0,0.0,0.0,0.0,0.0,3750.0,18846.0,Direct,,,View report (https://accesshub.pdc.wa.gov/node/71317),Energy and utilities,energy and climate change; flood control,legislature
85056,72347-18846,72347,FE,17581,GORDON THOMAS HONEYWELL GOV AFFAIRS*,Employer,18846,Lewis PUD 01,20-Oct,2/26/2021,16601.0,Lewis PUD 01,3750.0,0.0,3750.0,0.0,0.0,0.0,0.0,0.0,0.0,0.0,3750.0,18846.0,Direct,,,View report (https://accesshub.pdc.wa.gov/node/72347),Energy and utilities,energy and climate change; flood control,legislature
85057,73068-18846,73068,FE,17581,GORDON THOMAS HONEYWELL GOV AFFAIRS*,Employer,18846,Lewis PUD 01,20-Nov,2/26/2021,16601.0,Lewis PUD 01,3750.0,0.0,3750.0,0.0,0.0,0.0,0.0,0.0,0.0,0.0,3750.0,18846.0,Direct,,,View report (https://accesshub.pdc.wa.gov/node/73068),Energy and utilities,energy and climate change; flood control,legislature
85058,74113-18846,74113,FE,17581,GORDON THOMAS HONEYWELL GOV AFFAIRS*,Employer,18846,Lewis PUD 01,20-Dec,2/26/2021,16601.0,Lewis PUD 01,3750.0,0.0,3750.0,0.0,0.0,0.0,0.0,0.0,0.0,0.0,3750.0,18846.0,Direct,,,View report (https://accesshub.pdc.wa.gov/node/74113),Energy and utilities,energy and climate change; flood control,legislature
85059,73068-18847,73068,FE,17581,GORDON THOMAS HONEYWELL GOV AFFAIRS*,Employer,18847,"THERMO FISHER SCIENTIFIC, INC.",20-Nov,2/26/2021,16606.0,"THERMO FISHER SCIENTIFIC, INC.",3750.0,-3750.0,0.0,0.0,0.0,0.0,0.0,0.0,0.0,0.0,0.0,18847.0,Direct,,,View report (https://accesshub.pdc.wa.gov/node/73068),State government,DNA issues,legislative
85060,74113-18847,74113,FE,17581,GORDON THOMAS HONEYWELL GOV AFFAIRS*,Employer,18847,"THERMO FISHER SCIENTIFIC, INC.",20-Dec,2/26/2021,16606.0,"THERMO FISHER SCIENTIFIC, INC.",3750.0,-3750.0,0.0,0.0,0.0,0.0,0.0,0.0,0.0,0.0,0.0,18847.0,Direct,,,View report (https://accesshub.pdc.wa.gov/node/74113),State government,DNA issues,legislative
85061,67422-18174,67422,FE,17348,CHRISTOPHERSEN INC*,Employer,18174,MERCK SHARP & DOHME LLC & AFFILIATES,20-Apr,2/26/2021,16632.0,MERCK SHARP & DOHME LLC & AFFILIATES,4583.33,-363.63,4219.7,0.0,0.0,0.0,0.0,0.0,0.0,0.0,4219.7,18174.0,Direct,,,View report (https://accesshub.pdc.wa.gov/node/67422),Business and consumer affairs,various,various
85062,69803-18174,69803,FE,17348,CHRISTOPHERSEN INC*,Employer,18174,MERCK SHARP & DOHME LLC & AFFILIATES,20-Jul,2/26/2021,16632.0,MERCK SHARP & DOHME LLC & AFFILIATES,4583.33,-363.63,4219.7,0.0,0.0,0.0,0.0,0.0,0.0,0.0,4219.7,18174.0,Direct,,,View report (https://accesshub.pdc.wa.gov/node/69803),Business and consumer affairs,various,various
85063,72300-18174,72300,FE,17348,CHRISTOPHERSEN INC*,Employer,18174,MERCK SHARP & DOHME LLC & AFFILIATES,20-Oct,2/26/2021,16632.0,MERCK SHARP & DOHME LLC & AFFILIATES,4583.33,-363.63,4219.7,0.0,0.0,0.0,0.0,0.0,0.0,0.0,4219.7,18174.0,Direct,,,View report (https://accesshub.pdc.wa.gov/node/72300),Business and consumer affairs,various,various
85064,70620-19292,70620,FE,17813,MILLENNIA PUBLIC AFFAIRS INC*,Employer,19292,MetLife,20-Aug,2/26/2021,16634.0,MetLife,2500.0,0.0,2500.0,0.0,0.0,0.0,0.0,0.0,0.0,0.0,2500.0,19292.0,Direct,,,View report (https://accesshub.pdc.wa.gov/node/70620),Financial institutions and insurance,2306 6146,House Senate All
85065,74889-72684,74889,FE,72570,SDMC,Employer,72684,The Mockingbird Society,20-Nov,2/26/2021,16639.0,The Mockingbird Society,2250.0,0.0,2250.0,0.0,0.0,0.0,0.0,0.0,0.0,0.0,2250.0,72684.0,Direct,,,View report (https://accesshub.pdc.wa.gov/node/74889),,,
85066,71772-19132,71772,FE,17741,JEAN M LEONARD*,Employer,19132,NATIONWIDE INSURANCE,20-Sep,2/26/2021,16676.0,NATIONWIDE INSURANCE,3000.0,-1605.45,1394.55,56.66,0.0,0.0,0.0,0.0,0.0,56.66,1451.21,19132.0,Direct,,,View report (https://accesshub.pdc.wa.gov/node/71772),Financial institutions and insurance,Insurance,"CPB, CRJ, TR, LJ, FIEDT"
85067,70481-18848,70481,FE,17581,GORDON THOMAS HONEYWELL GOV AFFAIRS*,Employer,18848,NoaNet,20-Aug,2/26/2021,16690.0,NoaNet,6000.0,0.0,6000.0,0.0,0.0,0.0,0.0,0.0,0.0,0.0,6000.0,18848.0,Direct,,,View report (https://accesshub.pdc.wa.gov/node/70481),Technology,broadband,legislative
85068,71317-18848,71317,FE,17581,GORDON THOMAS HONEYWELL GOV AFFAIRS*,Employer,18848,NoaNet,20-Sep,2/26/2021,16690.0,NoaNet,6000.0,0.0,6000.0,0.0,0.0,0.0,0.0,0.0,0.0,0.0,6000.0,18848.0,Direct,,,View report (https://accesshub.pdc.wa.gov/node/71317),Technology,broadband,legislative
85069,72347-18848,72347,FE,17581,GORDON THOMAS HONEYWELL GOV AFFAIRS*,Employer,18848,NoaNet,20-Oct,2/26/2021,16690.0,NoaNet,6000.0,0.0,6000.0,0.0,0.0,0.0,0.0,0.0,0.0,0.0,6000.0,18848.0,Direct,,,View report (https://accesshub.pdc.wa.gov/node/72347),Technology,broadband,legislative
85070,73068-18848,73068,FE,17581,GORDON THOMAS HONEYWELL GOV AFFAIRS*,Employer,18848,NoaNet,20-Nov,2/26/2021,16690.0,NoaNet,6000.0,0.0,6000.0,0.0,0.0,0.0,0.0,0.0,0.0,0.0,6000.0,18848.0,Direct,,,View report (https://accesshub.pdc.wa.gov/node/73068),Technology,broadband,legislative
85071,74113-18848,74113,FE,17581,GORDON THOMAS HONEYWELL GOV AFFAIRS*,Employer,18848,NoaNet,20-Dec,2/26/2021,16690.0,NoaNet,6000.0,0.0,6000.0,0.0,0.0,0.0,0.0,0.0,0.0,0.0,6000.0,18848.0,Direct,,,View report (https://accesshub.pdc.wa.gov/node/74113),Technology,broadband,legislative
85072,76738-71581,76738,FE,71580,Emily Brice,Employer,71581,Northwest Health Law Advocates,20-Sep,2/26/2021,16709.0,Northwest Health Law Advocates,211.96,0.0,211.96,0.0,0.0,0.0,0.0,0.0,0.0,0.0,211.96,71581.0,Direct,,,View report (https://accesshub.pdc.wa.gov/node/76738),Health Care,Budget cuts to health safety net services and progressive revenue,Health and fiscal committees
85073,67422-18175,67422,FE,17348,CHRISTOPHERSEN INC*,Employer,18175,NORTHWEST KIDNEY CENTERS,20-Apr,2/26/2021,16711.0,NORTHWEST KIDNEY CENTERS,2000.0,-727.26,1272.74,0.0,0.0,0.0,0.0,0.0,0.0,0.0,1272.74,18175.0,Direct,,,View report (https://accesshub.pdc.wa.gov/node/67422),Health Care,various,various
85074,69803-18175,69803,FE,17348,CHRISTOPHERSEN INC*,Employer,18175,NORTHWEST KIDNEY CENTERS,20-Jul,2/26/2021,16711.0,NORTHWEST KIDNEY CENTERS,2000.0,-363.63,1636.37,0.0,0.0,0.0,0.0,0.0,0.0,0.0,1636.37,18175.0,Direct,,,View report (https://accesshub.pdc.wa.gov/node/69803),Health Care,various,various
85075,72300-18175,72300,FE,17348,CHRISTOPHERSEN INC*,Employer,18175,NORTHWEST KIDNEY CENTERS,20-Oct,2/26/2021,16711.0,NORTHWEST KIDNEY CENTERS,2000.0,-363.63,1636.37,0.0,0.0,0.0,0.0,0.0,0.0,0.0,1636.37,18175.0,Direct,,,View report (https://accesshub.pdc.wa.gov/node/72300),Health Care,various,various
85076,68088-18849,68088,FE,17581,GORDON THOMAS HONEYWELL GOV AFFAIRS*,Employer,18849,NORTHWEST ENERGY EFFICIENCY COUNCIL (NEEC),20-May,2/26/2021,16722.0,NORTHWEST ENERGY EFFICIENCY COUNCIL (NEEC),4000.0,0.0,4000.0,0.0,0.0,0.0,0.0,0.0,0.0,0.0,4000.0,18849.0,Direct,,,View report (https://accesshub.pdc.wa.gov/node/68088),Energy and utilities,"capital budget items, operating budget items, Policy discussions around energy efficiency, HB 2405 concerning commercial property assessed clean energy and resilience",legislature
85077,68836-18849,68836,FE,17581,GORDON THOMAS HONEYWELL GOV AFFAIRS*,Employer,18849,NORTHWEST ENERGY EFFICIENCY COUNCIL (NEEC),20-Jun,2/26/2021,16722.0,NORTHWEST ENERGY EFFICIENCY COUNCIL (NEEC),4000.0,0.0,4000.0,0.0,0.0,0.0,0.0,0.0,0.0,0.0,4000.0,18849.0,Direct,,,View report (https://accesshub.pdc.wa.gov/node/68836),Energy and utilities,"capital budget items, operating budget items, Policy discussions around energy efficiency, HB 2405 concerning commercial property assessed clean energy and resilience",legislature
85078,69694-18849,69694,FE,17581,GORDON THOMAS HONEYWELL GOV AFFAIRS*,Employer,18849,NORTHWEST ENERGY EFFICIENCY COUNCIL (NEEC),20-Jul,2/26/2021,16722.0,NORTHWEST ENERGY EFFICIENCY COUNCIL (NEEC),4000.0,0.0,4000.0,0.0,0.0,0.0,0.0,0.0,0.0,0.0,4000.0,18849.0,Direct,,,View report (https://accesshub.pdc.wa.gov/node/69694),Energy and utilities,"capital budget items, operating budget items, Policy discussions around energy efficiency, HB 2405 concerning commercial property assessed clean energy and resilience",legislature
85079,70481-18849,70481,FE,17581,GORDON THOMAS HONEYWELL GOV AFFAIRS*,Employer,18849,NORTHWEST ENERGY EFFICIENCY COUNCIL (NEEC),20-Aug,2/26/2021,16722.0,NORTHWEST ENERGY EFFICIENCY COUNCIL (NEEC),4000.0,0.0,4000.0,0.0,0.0,0.0,0.0,0.0,0.0,0.0,4000.0,18849.0,Direct,,,View report (https://accesshub.pdc.wa.gov/node/70481),Energy and utilities,"capital budget items, operating budget items, Policy discussions around energy efficiency, HB 2405 concerning commercial property assessed clean energy and resilience",legislature
85080,71317-18849,71317,FE,17581,GORDON THOMAS HONEYWELL GOV AFFAIRS*,Employer,18849,NORTHWEST ENERGY EFFICIENCY COUNCIL (NEEC),20-Sep,2/26/2021,16722.0,NORTHWEST ENERGY EFFICIENCY COUNCIL (NEEC),4000.0,0.0,4000.0,0.0,0.0,0.0,0.0,0.0,0.0,0.0,4000.0,18849.0,Direct,,,View report (https://accesshub.pdc.wa.gov/node/71317),Energy and utilities,"capital budget items, operating budget items, Policy discussions around energy efficiency, HB 2405 concerning commercial property assessed clean energy and resilience",legislature
85081,72347-18849,72347,FE,17581,GORDON THOMAS HONEYWELL GOV AFFAIRS*,Employer,18849,NORTHWEST ENERGY EFFICIENCY COUNCIL (NEEC),20-Oct,2/26/2021,16722.0,NORTHWEST ENERGY EFFICIENCY COUNCIL (NEEC),4000.0,0.0,4000.0,0.0,0.0,0.0,0.0,0.0,0.0,0.0,4000.0,18849.0,Direct,,,View report (https://accesshub.pdc.wa.gov/node/72347),Energy and utilities,"capital budget items, operating budget items, Policy discussions around energy efficiency, HB 2405 concerning commercial property assessed clean energy and resilience",legislature
85082,73068-18849,73068,FE,17581,GORDON THOMAS HONEYWELL GOV AFFAIRS*,Employer,18849,NORTHWEST ENERGY EFFICIENCY COUNCIL (NEEC),20-Nov,2/26/2021,16722.0,NORTHWEST ENERGY EFFICIENCY COUNCIL (NEEC),4000.0,0.0,4000.0,0.0,0.0,0.0,0.0,0.0,0.0,0.0,4000.0,18849.0,Direct,,,View report (https://accesshub.pdc.wa.gov/node/73068),Energy and utilities,"capital budget items, operating budget items, Policy discussions around energy efficiency, HB 2405 concerning commercial property assessed clean energy and resilience",legislature
85083,74113-18849,74113,FE,17581,GORDON THOMAS HONEYWELL GOV AFFAIRS*,Employer,18849,NORTHWEST ENERGY EFFICIENCY COUNCIL (NEEC),20-Dec,2/26/2021,16722.0,NORTHWEST ENERGY EFFICIENCY COUNCIL (NEEC),4000.0,0.0,4000.0,0.0,0.0,0.0,0.0,0.0,0.0,0.0,4000.0,18849.0,Direct,,,View report (https://accesshub.pdc.wa.gov/node/74113),Energy and utilities,"capital budget items, operating budget items, Policy discussions around energy efficiency, HB 2405 concerning commercial property assessed clean energy and resilience",legislature
85084,74113-72656,74113,FE,17581,GORDON THOMAS HONEYWELL GOV AFFAIRS*,Employer,72656,PACIFIC COAST SHELLFISH GROWERS ASSN,20-Dec,2/26/2021,16748.0,PACIFIC COAST SHELLFISH GROWERS ASSN,2500.0,0.0,2500.0,0.0,0.0,0.0,0.0,0.0,0.0,0.0,2500.0,72656.0,Direct,,,View report (https://accesshub.pdc.wa.gov/node/74113),Environmental Affairs - natural resources - parks,"Agriculture, Environmental, Park and Natural resources",legislative
85085,76749-18645,76749,FE,17516,CORY ELLIOTT,Employer,18645,PACIFIC NORTHWEST REGIONAL COUNCIL OF CARPENTERS,21-Jan,2/26/2021,16754.0,PACIFIC NORTHWEST REGIONAL COUNCIL OF CARPENTERS,5098.0,0.0,5098.0,0.0,0.0,0.0,0.0,0.0,0.0,0.0,5098.0,18645.0,Direct,,,View report (https://accesshub.pdc.wa.gov/node/76749),,,
85086,67422-18176,67422,FE,17348,CHRISTOPHERSEN INC*,Employer,18176,Pediatrix Medical Group,20-Apr,2/26/2021,16769.0,Pediatrix Medical Group,2875.0,-727.26,2147.74,0.0,0.0,0.0,0.0,0.0,0.0,0.0,2147.74,18176.0,Direct,,,View report (https://accesshub.pdc.wa.gov/node/67422),Health Care,various,various
85087,69803-18176,69803,FE,17348,CHRISTOPHERSEN INC*,Employer,18176,Pediatrix Medical Group,20-Jul,2/26/2021,16769.0,Pediatrix Medical Group,2875.0,-363.63,2511.37,0.0,0.0,53500.0,0.0,0.0,0.0,53500.0,56011.37,18176.0,Direct,,,View report (https://accesshub.pdc.wa.gov/node/69803),Health Care,various,various
85088,72300-18176,72300,FE,17348,CHRISTOPHERSEN INC*,Employer,18176,Pediatrix Medical Group,20-Oct,2/26/2021,16769.0,Pediatrix Medical Group,5750.0,-363.63,5386.37,0.0,0.0,15500.0,0.0,0.0,0.0,15500.0,20886.37,18176.0,Direct,,,View report (https://accesshub.pdc.wa.gov/node/72300),Health Care,various,various
85089,76737-70172,76737,FE,69512,Sound Government Solutions,Employer,70172,PHARMACEUTICAL CARE MANAGEMENT ASSN,21-Feb,2/26/2021,16775.0,PHARMACEUTICAL CARE MANAGEMENT ASSN,7500.0,0.0,7500.0,0.0,0.0,0.0,0.0,0.0,0.0,0.0,7500.0,70172.0,Direct,,,View report (https://accesshub.pdc.wa.gov/node/76737),Health Care,Health Care,"OIC, HCA, Health Care Cmtes"
85090,68088-18850,68088,FE,17581,GORDON THOMAS HONEYWELL GOV AFFAIRS*,Employer,18850,PIERCE TRANSIT,20-May,2/26/2021,16787.0,PIERCE TRANSIT,5500.0,0.0,5500.0,0.0,0.0,0.0,0.0,0.0,0.0,0.0,5500.0,18850.0,Direct,,,View report (https://accesshub.pdc.wa.gov/node/68088),Transportation,Transit/land use/OPMA/nonER medical transportation,legislature
85091,68836-18850,68836,FE,17581,GORDON THOMAS HONEYWELL GOV AFFAIRS*,Employer,18850,PIERCE TRANSIT,20-Jun,2/26/2021,16787.0,PIERCE TRANSIT,5500.0,0.0,5500.0,0.0,0.0,0.0,0.0,0.0,0.0,0.0,5500.0,18850.0,Direct,,,View report (https://accesshub.pdc.wa.gov/node/68836),Transportation,Transit/land use/OPMA/nonER medical transportation,legislature
85092,70481-18850,70481,FE,17581,GORDON THOMAS HONEYWELL GOV AFFAIRS*,Employer,18850,PIERCE TRANSIT,20-Aug,2/26/2021,16787.0,PIERCE TRANSIT,5750.0,0.0,5750.0,0.0,0.0,0.0,0.0,0.0,0.0,0.0,5750.0,18850.0,Direct,,,View report (https://accesshub.pdc.wa.gov/node/70481),Transportation,transportation,legislative
85093,71317-18850,71317,FE,17581,GORDON THOMAS HONEYWELL GOV AFFAIRS*,Employer,18850,PIERCE TRANSIT,20-Sep,2/26/2021,16787.0,PIERCE TRANSIT,5750.0,0.0,5750.0,0.0,0.0,0.0,0.0,0.0,0.0,0.0,5750.0,18850.0,Direct,,,View report (https://accesshub.pdc.wa.gov/node/71317),Transportation,transportation,legislative
85094,72347-18850,72347,FE,17581,GORDON THOMAS HONEYWELL GOV AFFAIRS*,Employer,18850,PIERCE TRANSIT,20-Oct,2/26/2021,16787.0,PIERCE TRANSIT,5750.0,0.0,5750.0,0.0,0.0,0.0,0.0,0.0,0.0,0.0,5750.0,18850.0,Direct,,,View report (https://accesshub.pdc.wa.gov/node/72347),Transportation,transportation,legislative
85095,73068-18850,73068,FE,17581,GORDON THOMAS HONEYWELL GOV AFFAIRS*,Employer,18850,PIERCE TRANSIT,20-Nov,2/26/2021,16787.0,PIERCE TRANSIT,5750.0,0.0,5750.0,0.0,0.0,0.0,0.0,0.0,0.0,0.0,5750.0,18850.0,Direct,,,View report (https://accesshub.pdc.wa.gov/node/73068),Transportation,transportation,legislative
85096,74113-18850,74113,FE,17581,GORDON THOMAS HONEYWELL GOV AFFAIRS*,Employer,18850,PIERCE TRANSIT,20-Dec,2/26/2021,16787.0,PIERCE TRANSIT,5750.0,0.0,5750.0,0.0,0.0,0.0,0.0,0.0,0.0,0.0,5750.0,18850.0,Direct,,,View report (https://accesshub.pdc.wa.gov/node/74113),Transportation,transportation,legislative
85097,70620-58858,70620,FE,17813,MILLENNIA PUBLIC AFFAIRS INC*,Employer,58858,PRE-PAID LEGAL SERVICES INC,20-Aug,2/26/2021,16811.0,PRE-PAID LEGAL SERVICES INC,7000.0,0.0,7000.0,0.0,0.0,1250.0,0.0,0.0,0.0,1250.0,8250.0,58858.0,Direct,,,View report (https://accesshub.pdc.wa.gov/node/70620),Financial institutions and insurance,Insurance,House Senate All
85098,76737-70186,76737,FE,69512,Sound Government Solutions,Employer,70186,Progressive,21-Feb,2/26/2021,16816.0,Progressive,5833.33,0.0,5833.33,0.0,0.0,0.0,0.0,0.0,0.0,0.0,5833.33,70186.0,Direct,,,View report (https://accesshub.pdc.wa.gov/node/76737),Financial institutions and insurance,Insurance,"OIC, Business Cmtes"
85099,76737-70264,76737,FE,69512,Sound Government Solutions,Employer,70264,PUYALLUP TRIBE OF INDIANS,21-Feb,2/26/2021,16835.0,PUYALLUP TRIBE OF INDIANS,5909.09,0.0,5909.09,0.0,0.0,0.0,0.0,0.0,0.0,0.0,5909.09,70264.0,Direct,,,View report (https://accesshub.pdc.wa.gov/node/76737),Environmental Affairs - natural resources - parks,Tribal Matters,Various
85100,68088-18854,68088,FE,17581,GORDON THOMAS HONEYWELL GOV AFFAIRS*,Employer,18854,RELX INC,20-May,2/26/2021,16848.0,RELX INC,5250.0,0.0,5250.0,0.0,0.0,0.0,0.0,0.0,0.0,0.0,5250.0,18854.0,Direct,,,View report (https://accesshub.pdc.wa.gov/node/68088),Human services,public records act and privacy legislation,legislature
85101,68836-18854,68836,FE,17581,GORDON THOMAS HONEYWELL GOV AFFAIRS*,Employer,18854,RELX INC,20-Jun,2/26/2021,16848.0,RELX INC,5250.0,0.0,5250.0,0.0,0.0,0.0,0.0,0.0,0.0,0.0,5250.0,18854.0,Direct,,,View report (https://accesshub.pdc.wa.gov/node/68836),Human services,public records act and privacy legislation,legislature
85102,69694-18854,69694,FE,17581,GORDON THOMAS HONEYWELL GOV AFFAIRS*,Employer,18854,RELX INC,20-Jul,2/26/2021,16848.0,RELX INC,5250.0,0.0,5250.0,0.0,0.0,7000.0,0.0,0.0,0.0,7000.0,12250.0,18854.0,Direct,,,View report (https://accesshub.pdc.wa.gov/node/69694),Human services,public records act and privacy legislation,legislature
85103,70481-18854,70481,FE,17581,GORDON THOMAS HONEYWELL GOV AFFAIRS*,Employer,18854,RELX INC,20-Aug,2/26/2021,16848.0,RELX INC,5250.0,0.0,5250.0,0.0,0.0,0.0,0.0,0.0,0.0,0.0,5250.0,18854.0,Direct,,,View report (https://accesshub.pdc.wa.gov/node/70481),Human services,public records act and privacy legislation,legislature
85104,71317-18854,71317,FE,17581,GORDON THOMAS HONEYWELL GOV AFFAIRS*,Employer,18854,RELX INC,20-Sep,2/26/2021,16848.0,RELX INC,5250.0,0.0,5250.0,0.0,0.0,0.0,0.0,0.0,0.0,0.0,5250.0,18854.0,Direct,,,View report (https://accesshub.pdc.wa.gov/node/71317),Human services,public records act and privacy legislation,legislature
85105,72347-18854,72347,FE,17581,GORDON THOMAS HONEYWELL GOV AFFAIRS*,Employer,18854,RELX INC,20-Oct,2/26/2021,16848.0,RELX INC,5250.0,0.0,5250.0,0.0,0.0,0.0,0.0,0.0,0.0,0.0,5250.0,18854.0,Direct,,,View report (https://accesshub.pdc.wa.gov/node/72347),Human services,public records act and privacy legislation,legislature
85106,73068-18854,73068,FE,17581,GORDON THOMAS HONEYWELL GOV AFFAIRS*,Employer,18854,RELX INC,20-Nov,2/26/2021,16848.0,RELX INC,5250.0,0.0,5250.0,0.0,0.0,0.0,0.0,0.0,0.0,0.0,5250.0,18854.0,Direct,,,View report (https://accesshub.pdc.wa.gov/node/73068),Human services,public records act and privacy legislation,legislature
85107,74113-18854,74113,FE,17581,GORDON THOMAS HONEYWELL GOV AFFAIRS*,Employer,18854,RELX INC,20-Dec,2/26/2021,16848.0,RELX INC,5250.0,0.0,5250.0,0.0,0.0,0.0,0.0,0.0,0.0,0.0,5250.0,18854.0,Direct,,,View report (https://accesshub.pdc.wa.gov/node/74113),Human services,public records act and privacy legislation,legislature
85108,76737-70239,76737,FE,69512,Sound Government Solutions,Employer,70239,REGENCE BLUE SHIELD,21-Feb,2/26/2021,16849.0,REGENCE BLUE SHIELD,11000.0,0.0,11000.0,0.0,0.0,0.0,0.0,0.0,0.0,0.0,11000.0,70239.0,Direct,,,View report (https://accesshub.pdc.wa.gov/node/76737),Health Care,Health Care,"OIC, Health Care & Business Cmtes"
85109,73068-72711,73068,FE,17581,GORDON THOMAS HONEYWELL GOV AFFAIRS*,Employer,72711,REGIONAL FISHERIES ENHANCEMENT GROUP COALITION,20-Nov,2/26/2021,16850.0,REGIONAL FISHERIES ENHANCEMENT GROUP COALITION,1000.0,0.0,1000.0,0.0,0.0,0.0,0.0,0.0,0.0,0.0,1000.0,72711.0,Direct,,,View report (https://accesshub.pdc.wa.gov/node/73068),Environmental Affairs - natural resources - parks,"natural resources, operating budget",legislative
85110,74113-72711,74113,FE,17581,GORDON THOMAS HONEYWELL GOV AFFAIRS*,Employer,72711,REGIONAL FISHERIES ENHANCEMENT GROUP COALITION,20-Dec,2/26/2021,16850.0,REGIONAL FISHERIES ENHANCEMENT GROUP COALITION,1000.0,0.0,1000.0,0.0,0.0,0.0,0.0,0.0,0.0,0.0,1000.0,72711.0,Direct,,,View report (https://accesshub.pdc.wa.gov/node/74113),Environmental Affairs - natural resources - parks,"natural resources, operating budget",legislative
85111,70620-19295,70620,FE,17813,MILLENNIA PUBLIC AFFAIRS INC*,Employer,19295,ROWLEY PROPERTIES INC,20-Aug,2/26/2021,16864.0,ROWLEY PROPERTIES INC,4000.0,0.0,4000.0,0.0,0.0,0.0,0.0,0.0,0.0,0.0,4000.0,19295.0,Direct,,,View report (https://accesshub.pdc.wa.gov/node/70620),Business and consumer affairs,BUSINESS AND CONSUMER AFFAIRS,BUSINESS AND CONSUMER AFFAIRS
85112,68088-18855,68088,FE,17581,GORDON THOMAS HONEYWELL GOV AFFAIRS*,Employer,18855,SAP PUBLIC SERVICES INC,20-May,2/26/2021,16873.0,SAP PUBLIC SERVICES INC,5000.0,0.0,5000.0,0.0,0.0,0.0,0.0,0.0,0.0,0.0,5000.0,18855.0,Direct,,,View report (https://accesshub.pdc.wa.gov/node/68088),State government,,legislature
85113,68836-18855,68836,FE,17581,GORDON THOMAS HONEYWELL GOV AFFAIRS*,Employer,18855,SAP PUBLIC SERVICES INC,20-Jun,2/26/2021,16873.0,SAP PUBLIC SERVICES INC,5000.0,0.0,5000.0,0.0,0.0,0.0,0.0,0.0,0.0,0.0,5000.0,18855.0,Direct,,,View report (https://accesshub.pdc.wa.gov/node/68836),State government,,legislature
85114,69694-18855,69694,FE,17581,GORDON THOMAS HONEYWELL GOV AFFAIRS*,Employer,18855,SAP PUBLIC SERVICES INC,20-Jul,2/26/2021,16873.0,SAP PUBLIC SERVICES INC,2500.0,0.0,2500.0,0.0,0.0,0.0,0.0,0.0,0.0,0.0,2500.0,18855.0,Direct,,,View report (https://accesshub.pdc.wa.gov/node/69694),State government,,legislature
85115,68088-18856,68088,FE,17581,GORDON THOMAS HONEYWELL GOV AFFAIRS*,Employer,18856,SNOHOMISH CO,20-May,2/26/2021,16921.0,SNOHOMISH CO,7583.33,0.0,7583.33,0.0,0.0,0.0,0.0,0.0,0.0,0.0,7583.33,18856.0,Direct,,,View report (https://accesshub.pdc.wa.gov/node/68088),Local government,"Human services, transportation, veterans, other local gvmt issues",legislature
85116,68836-18856,68836,FE,17581,GORDON THOMAS HONEYWELL GOV AFFAIRS*,Employer,18856,SNOHOMISH CO,20-Jun,2/26/2021,16921.0,SNOHOMISH CO,7583.33,0.0,7583.33,0.0,0.0,0.0,0.0,0.0,0.0,0.0,7583.33,18856.0,Direct,,,View report (https://accesshub.pdc.wa.gov/node/68836),Local government,"Human services, transportation, veterans, other local gvmt issues",legislature
85117,69694-18856,69694,FE,17581,GORDON THOMAS HONEYWELL GOV AFFAIRS*,Employer,18856,SNOHOMISH CO,20-Jul,2/26/2021,16921.0,SNOHOMISH CO,7583.33,0.0,7583.33,0.0,0.0,0.0,0.0,0.0,0.0,0.0,7583.33,18856.0,Direct,,,View report (https://accesshub.pdc.wa.gov/node/69694),Local government,"Human services, transportation, veterans, other local gvmt issues",legislature
85118,70481-18856,70481,FE,17581,GORDON THOMAS HONEYWELL GOV AFFAIRS*,Employer,18856,SNOHOMISH CO,20-Aug,2/26/2021,16921.0,SNOHOMISH CO,7583.33,0.0,7583.33,0.0,0.0,0.0,0.0,0.0,0.0,0.0,7583.33,18856.0,Direct,,,View report (https://accesshub.pdc.wa.gov/node/70481),Local government,county issues,legislative
85119,71317-18856,71317,FE,17581,GORDON THOMAS HONEYWELL GOV AFFAIRS*,Employer,18856,SNOHOMISH CO,20-Sep,2/26/2021,16921.0,SNOHOMISH CO,7583.33,0.0,7583.33,0.0,0.0,0.0,0.0,0.0,0.0,0.0,7583.33,18856.0,Direct,,,View report (https://accesshub.pdc.wa.gov/node/71317),Local government,county issues,legislative
85120,72347-18856,72347,FE,17581,GORDON THOMAS HONEYWELL GOV AFFAIRS*,Employer,18856,SNOHOMISH CO,20-Oct,2/26/2021,16921.0,SNOHOMISH CO,7583.33,0.0,7583.33,0.0,0.0,0.0,0.0,0.0,0.0,0.0,7583.33,18856.0,Direct,,,View report (https://accesshub.pdc.wa.gov/node/72347),Local government,county issues,legislative
85121,73068-18856,73068,FE,17581,GORDON THOMAS HONEYWELL GOV AFFAIRS*,Employer,18856,SNOHOMISH CO,20-Nov,2/26/2021,16921.0,SNOHOMISH CO,7583.33,0.0,7583.33,0.0,0.0,0.0,0.0,0.0,0.0,0.0,7583.33,18856.0,Direct,,,View report (https://accesshub.pdc.wa.gov/node/73068),Local government,county issues,legislative
85122,74113-18856,74113,FE,17581,GORDON THOMAS HONEYWELL GOV AFFAIRS*,Employer,18856,SNOHOMISH CO,20-Dec,2/26/2021,16921.0,SNOHOMISH CO,7583.33,0.0,7583.33,0.0,0.0,0.0,0.0,0.0,0.0,0.0,7583.33,18856.0,Direct,,,View report (https://accesshub.pdc.wa.gov/node/74113),Local government,county issues,legislative
85123,69803-18178,69803,FE,17348,CHRISTOPHERSEN INC*,Employer,18178,"STAND FOR CHILDREN, INC.",20-Jul,2/26/2021,16949.0,"STAND FOR CHILDREN, INC.",1875.0,0.0,1875.0,0.0,0.0,0.0,0.0,0.0,0.0,0.0,1875.0,18178.0,Direct,,,View report (https://accesshub.pdc.wa.gov/node/69803),Education,various,various
85124,72300-18178,72300,FE,17348,CHRISTOPHERSEN INC*,Employer,18178,"STAND FOR CHILDREN, INC.",20-Oct,2/26/2021,16949.0,"STAND FOR CHILDREN, INC.",5625.0,0.0,5625.0,0.0,0.0,0.0,0.0,0.0,0.0,0.0,5625.0,18178.0,Direct,,,View report (https://accesshub.pdc.wa.gov/node/72300),Education,various,various
85125,71772-19134,71772,FE,17741,JEAN M LEONARD*,Employer,19134,STATE FARM INSURANCE COMPANIES,20-Sep,2/26/2021,16951.0,STATE FARM INSURANCE COMPANIES,8366.67,-1605.45,6761.22,0.0,0.0,0.0,0.0,0.0,0.0,0.0,6761.22,19134.0,Direct,,,View report (https://accesshub.pdc.wa.gov/node/71772),Financial institutions and insurance,Insurance,"CPB, CRJ, TR, LJ, FIEDT"
85126,68088-18859,68088,FE,17581,GORDON THOMAS HONEYWELL GOV AFFAIRS*,Employer,18859,GOODWILL OF THE OLYMPICS & RAINIER REGION,20-May,2/26/2021,16965.0,GOODWILL OF THE OLYMPICS & RAINIER REGION,3250.0,0.0,3250.0,0.0,0.0,0.0,0.0,0.0,0.0,0.0,3250.0,18859.0,Direct,,,View report (https://accesshub.pdc.wa.gov/node/68088),Business and consumer affairs,,legislature
85127,68836-18859,68836,FE,17581,GORDON THOMAS HONEYWELL GOV AFFAIRS*,Employer,18859,GOODWILL OF THE OLYMPICS & RAINIER REGION,20-Jun,2/26/2021,16965.0,GOODWILL OF THE OLYMPICS & RAINIER REGION,3250.0,0.0,3250.0,0.0,0.0,0.0,0.0,0.0,0.0,0.0,3250.0,18859.0,Direct,,,View report (https://accesshub.pdc.wa.gov/node/68836),Business and consumer affairs,,legislature
85128,69694-18859,69694,FE,17581,GORDON THOMAS HONEYWELL GOV AFFAIRS*,Employer,18859,GOODWILL OF THE OLYMPICS & RAINIER REGION,20-Jul,2/26/2021,16965.0,GOODWILL OF THE OLYMPICS & RAINIER REGION,3250.0,0.0,3250.0,0.0,0.0,0.0,0.0,0.0,0.0,0.0,3250.0,18859.0,Direct,,,View report (https://accesshub.pdc.wa.gov/node/69694),Business and consumer affairs,,legislature
85129,70481-18859,70481,FE,17581,GORDON THOMAS HONEYWELL GOV AFFAIRS*,Employer,18859,GOODWILL OF THE OLYMPICS & RAINIER REGION,20-Aug,2/26/2021,16965.0,GOODWILL OF THE OLYMPICS & RAINIER REGION,3250.0,0.0,3250.0,0.0,0.0,0.0,0.0,0.0,0.0,0.0,3250.0,18859.0,Direct,,,View report (https://accesshub.pdc.wa.gov/node/70481),Business and consumer affairs,,legislature
85130,71317-18859,71317,FE,17581,GORDON THOMAS HONEYWELL GOV AFFAIRS*,Employer,18859,GOODWILL OF THE OLYMPICS & RAINIER REGION,20-Sep,2/26/2021,16965.0,GOODWILL OF THE OLYMPICS & RAINIER REGION,3250.0,0.0,3250.0,0.0,0.0,0.0,0.0,0.0,0.0,0.0,3250.0,18859.0,Direct,,,View report (https://accesshub.pdc.wa.gov/node/71317),Business and consumer affairs,,legislature
85131,72347-18859,72347,FE,17581,GORDON THOMAS HONEYWELL GOV AFFAIRS*,Employer,18859,GOODWILL OF THE OLYMPICS & RAINIER REGION,20-Oct,2/26/2021,16965.0,GOODWILL OF THE OLYMPICS & RAINIER REGION,3250.0,0.0,3250.0,0.0,0.0,0.0,0.0,0.0,0.0,0.0,3250.0,18859.0,Direct,,,View report (https://accesshub.pdc.wa.gov/node/72347),Business and consumer affairs,,legislature
85132,73068-18859,73068,FE,17581,GORDON THOMAS HONEYWELL GOV AFFAIRS*,Employer,18859,GOODWILL OF THE OLYMPICS & RAINIER REGION,20-Nov,2/26/2021,16965.0,GOODWILL OF THE OLYMPICS & RAINIER REGION,3250.0,0.0,3250.0,0.0,0.0,0.0,0.0,0.0,0.0,0.0,3250.0,18859.0,Direct,,,View report (https://accesshub.pdc.wa.gov/node/73068),Business and consumer affairs,,legislature
85133,74113-18859,74113,FE,17581,GORDON THOMAS HONEYWELL GOV AFFAIRS*,Employer,18859,GOODWILL OF THE OLYMPICS & RAINIER REGION,20-Dec,2/26/2021,16965.0,GOODWILL OF THE OLYMPICS & RAINIER REGION,3250.0,0.0,3250.0,0.0,0.0,0.0,0.0,0.0,0.0,0.0,3250.0,18859.0,Direct,,,View report (https://accesshub.pdc.wa.gov/node/74113),Business and consumer affairs,,legislature
85134,68088-18860,68088,FE,17581,GORDON THOMAS HONEYWELL GOV AFFAIRS*,Employer,18860,Tacoma Public Utilities,20-May,2/26/2021,16969.0,Tacoma Public Utilities,7700.0,0.0,7700.0,0.0,0.0,0.0,0.0,0.0,0.0,0.0,7700.0,18860.0,Direct,,,View report (https://accesshub.pdc.wa.gov/node/68088),Energy and utilities,"energy independence act, climate change, public works trust, public records, telecommunications, renewable energy systems, water, utility, transportation, recreational access to land",legislature
85135,68836-18860,68836,FE,17581,GORDON THOMAS HONEYWELL GOV AFFAIRS*,Employer,18860,Tacoma Public Utilities,20-Jun,2/26/2021,16969.0,Tacoma Public Utilities,7700.0,0.0,7700.0,0.0,0.0,0.0,0.0,0.0,0.0,0.0,7700.0,18860.0,Direct,,,View report (https://accesshub.pdc.wa.gov/node/68836),Energy and utilities,"energy independence act, climate change, public works trust, public records, telecommunications, renewable energy systems, water, utility, transportation, recreational access to land",legislature
85136,69694-18860,69694,FE,17581,GORDON THOMAS HONEYWELL GOV AFFAIRS*,Employer,18860,Tacoma Public Utilities,20-Jul,2/26/2021,16969.0,Tacoma Public Utilities,7700.0,0.0,7700.0,0.0,0.0,0.0,0.0,0.0,0.0,0.0,7700.0,18860.0,Direct,,,View report (https://accesshub.pdc.wa.gov/node/69694),Energy and utilities,"energy independence act, climate change, public works trust, public records, telecommunications, renewable energy systems, water, utility, transportation, recreational access to land",legislature
85137,70481-18860,70481,FE,17581,GORDON THOMAS HONEYWELL GOV AFFAIRS*,Employer,18860,Tacoma Public Utilities,20-Aug,2/26/2021,16969.0,Tacoma Public Utilities,7700.0,0.0,7700.0,0.0,0.0,0.0,0.0,0.0,0.0,0.0,7700.0,18860.0,Direct,,,View report (https://accesshub.pdc.wa.gov/node/70481),Energy and utilities,"energy independence act, climate change, public works trust, public records, telecommunications, renewable energy systems, water, utility, transportation, recreational access to land",legislature
85138,71317-18860,71317,FE,17581,GORDON THOMAS HONEYWELL GOV AFFAIRS*,Employer,18860,Tacoma Public Utilities,20-Sep,2/26/2021,16969.0,Tacoma Public Utilities,7700.0,0.0,7700.0,0.0,0.0,0.0,0.0,0.0,0.0,0.0,7700.0,18860.0,Direct,,,View report (https://accesshub.pdc.wa.gov/node/71317),Energy and utilities,"energy independence act, climate change, public works trust, public records, telecommunications, renewable energy systems, water, utility, transportation, recreational access to land",legislature
85139,72347-18860,72347,FE,17581,GORDON THOMAS HONEYWELL GOV AFFAIRS*,Employer,18860,Tacoma Public Utilities,20-Oct,2/26/2021,16969.0,Tacoma Public Utilities,7700.0,0.0,7700.0,0.0,0.0,0.0,0.0,0.0,0.0,0.0,7700.0,18860.0,Direct,,,View report (https://accesshub.pdc.wa.gov/node/72347),Energy and utilities,"energy independence act, climate change, public works trust, public records, telecommunications, renewable energy systems, water, utility, transportation, recreational access to land",legislature
85140,73068-18860,73068,FE,17581,GORDON THOMAS HONEYWELL GOV AFFAIRS*,Employer,18860,Tacoma Public Utilities,20-Nov,2/26/2021,16969.0,Tacoma Public Utilities,7700.0,0.0,7700.0,0.0,0.0,0.0,0.0,0.0,0.0,0.0,7700.0,18860.0,Direct,,,View report (https://accesshub.pdc.wa.gov/node/73068),Energy and utilities,"energy independence act, climate change, public works trust, public records, telecommunications, renewable energy systems, water, utility, transportation, recreational access to land",legislature
85141,74113-18860,74113,FE,17581,GORDON THOMAS HONEYWELL GOV AFFAIRS*,Employer,18860,Tacoma Public Utilities,20-Dec,2/26/2021,16969.0,Tacoma Public Utilities,7700.0,0.0,7700.0,0.0,0.0,0.0,0.0,0.0,0.0,0.0,7700.0,18860.0,Direct,,,View report (https://accesshub.pdc.wa.gov/node/74113),Energy and utilities,"energy independence act, climate change, public works trust, public records, telecommunications, renewable energy systems, water, utility, transportation, recreational access to land",legislature
85142,70620-19296,70620,FE,17813,MILLENNIA PUBLIC AFFAIRS INC*,Employer,19296,Marathon Petroleum Corporation and its Subsidiaries,20-Aug,2/26/2021,16980.0,Marathon Petroleum Corporation and its Subsidiaries,6000.0,0.0,6000.0,0.0,0.0,0.0,0.0,0.0,0.0,0.0,6000.0,19296.0,Direct,,,View report (https://accesshub.pdc.wa.gov/node/70620),Business and consumer affairs,BUSINESS AND CONSUMER AFFAIRS,BUSINESS AND CONSUMER AFFAIRS
85143,68088-18861,68088,FE,17581,GORDON THOMAS HONEYWELL GOV AFFAIRS*,Employer,18861,TOTAL WINE & MORE,20-May,2/26/2021,16986.0,TOTAL WINE & MORE,3750.0,0.0,3750.0,0.0,0.0,0.0,0.0,0.0,0.0,0.0,3750.0,18861.0,Direct,,,View report (https://accesshub.pdc.wa.gov/node/68088),Business and consumer affairs,"retail liquor sales, labor/general business",legislature
85144,68836-18861,68836,FE,17581,GORDON THOMAS HONEYWELL GOV AFFAIRS*,Employer,18861,TOTAL WINE & MORE,20-Jun,2/26/2021,16986.0,TOTAL WINE & MORE,3750.0,0.0,3750.0,0.0,0.0,0.0,0.0,0.0,0.0,0.0,3750.0,18861.0,Direct,,,View report (https://accesshub.pdc.wa.gov/node/68836),Business and consumer affairs,"retail liquor sales, labor/general business",legislature
85145,69694-18861,69694,FE,17581,GORDON THOMAS HONEYWELL GOV AFFAIRS*,Employer,18861,TOTAL WINE & MORE,20-Jul,2/26/2021,16986.0,TOTAL WINE & MORE,3750.0,0.0,3750.0,0.0,0.0,0.0,0.0,0.0,0.0,0.0,3750.0,18861.0,Direct,,,View report (https://accesshub.pdc.wa.gov/node/69694),Business and consumer affairs,"retail liquor sales, labor/general business",legislature
85146,70481-18861,70481,FE,17581,GORDON THOMAS HONEYWELL GOV AFFAIRS*,Employer,18861,TOTAL WINE & MORE,20-Aug,2/26/2021,16986.0,TOTAL WINE & MORE,3750.0,0.0,3750.0,0.0,0.0,0.0,0.0,0.0,0.0,0.0,3750.0,18861.0,Direct,,,View report (https://accesshub.pdc.wa.gov/node/70481),Business and consumer affairs,"retail liquor sales, labor/general business",legislature
85147,71317-18861,71317,FE,17581,GORDON THOMAS HONEYWELL GOV AFFAIRS*,Employer,18861,TOTAL WINE & MORE,20-Sep,2/26/2021,16986.0,TOTAL WINE & MORE,3750.0,0.0,3750.0,0.0,0.0,0.0,0.0,0.0,0.0,0.0,3750.0,18861.0,Direct,,,View report (https://accesshub.pdc.wa.gov/node/71317),Business and consumer affairs,"retail liquor sales, labor/general business",legislature
85148,72347-18861,72347,FE,17581,GORDON THOMAS HONEYWELL GOV AFFAIRS*,Employer,18861,TOTAL WINE & MORE,20-Oct,2/26/2021,16986.0,TOTAL WINE & MORE,3750.0,0.0,3750.0,0.0,0.0,0.0,0.0,0.0,0.0,0.0,3750.0,18861.0,Direct,,,View report (https://accesshub.pdc.wa.gov/node/72347),Business and consumer affairs,"retail liquor sales, labor/general business",legislature
85149,73068-18861,73068,FE,17581,GORDON THOMAS HONEYWELL GOV AFFAIRS*,Employer,18861,TOTAL WINE & MORE,20-Nov,2/26/2021,16986.0,TOTAL WINE & MORE,3750.0,0.0,3750.0,0.0,0.0,0.0,0.0,0.0,0.0,0.0,3750.0,18861.0,Direct,,,View report (https://accesshub.pdc.wa.gov/node/73068),Business and consumer affairs,"retail liquor sales, labor/general business",legislature
85150,74113-18861,74113,FE,17581,GORDON THOMAS HONEYWELL GOV AFFAIRS*,Employer,18861,TOTAL WINE & MORE,20-Dec,2/26/2021,16986.0,TOTAL WINE & MORE,3750.0,0.0,3750.0,0.0,0.0,0.0,0.0,0.0,0.0,0.0,3750.0,18861.0,Direct,,,View report (https://accesshub.pdc.wa.gov/node/74113),Business and consumer affairs,"retail liquor sales, labor/general business",legislature
85151,76736-19280,76736,FE,17811,MILLER MALONE & TELLEFSON PS*,Employer,19280,USAA,21-Feb,2/26/2021,17012.0,USAA,4398.49,0.0,4398.49,0.0,0.0,0.0,0.0,0.0,0.0,0.0,4398.49,19280.0,Direct,,,View report (https://accesshub.pdc.wa.gov/node/76736),Financial institutions and insurance,Banking,"OIC, DFI Business Committees"
85152,70620-19298,70620,FE,17813,MILLENNIA PUBLIC AFFAIRS INC*,Employer,19298,UNIVERSITY OF WASHINGTON,20-Aug,2/26/2021,17021.0,UNIVERSITY OF WASHINGTON,4000.0,0.0,4000.0,0.0,0.0,0.0,0.0,0.0,0.0,0.0,4000.0,19298.0,Direct,,,View report (https://accesshub.pdc.wa.gov/node/70620),Business and consumer affairs,Business & Consumer Affairs,Business & Consumer Affairs
85153,76737-70187,76737,FE,69512,Sound Government Solutions,Employer,70187,Veritec Solutions,21-Feb,2/26/2021,17031.0,Veritec Solutions,2000.0,0.0,2000.0,0.0,0.0,0.0,0.0,0.0,0.0,0.0,2000.0,70187.0,Direct,,,View report (https://accesshub.pdc.wa.gov/node/76737),Financial institutions and insurance,Payday Lending,DFI
85154,70620-19299,70620,FE,17813,MILLENNIA PUBLIC AFFAIRS INC*,Employer,19299,WA AGGREGATES & CONCRETE ASSN,20-Aug,2/26/2021,17048.0,WA AGGREGATES & CONCRETE ASSN,5000.0,0.0,5000.0,0.0,0.0,16250.0,0.0,0.0,0.0,16250.0,21250.0,19299.0,Direct,,,View report (https://accesshub.pdc.wa.gov/node/70620),Business and consumer affairs,BUSINESS AND CONSUMER AFFAIRS,BUSINESS AND CONSUMER AFFAIRS
85155,76737-70169,76737,FE,69512,Sound Government Solutions,Employer,70169,WA BANKERS ASSN,21-Feb,2/26/2021,17061.0,WA BANKERS ASSN,5000.0,0.0,5000.0,0.0,0.0,0.0,0.0,0.0,0.0,0.0,5000.0,70169.0,Direct,,,View report (https://accesshub.pdc.wa.gov/node/76737),Financial institutions and insurance,Banking,"OIC, DFI, Business Cmtes"
85156,67422-18180,67422,FE,17348,CHRISTOPHERSEN INC*,Employer,18180,WA CANNABUSINESS ASSN,20-Apr,2/26/2021,17073.0,WA CANNABUSINESS ASSN,6000.0,-727.4,5272.6,0.0,0.0,0.0,0.0,0.0,0.0,0.0,5272.6,18180.0,Direct,,,View report (https://accesshub.pdc.wa.gov/node/67422),Business and consumer affairs,various,various
85157,69803-18180,69803,FE,17348,CHRISTOPHERSEN INC*,Employer,18180,WA CANNABUSINESS ASSN,20-Jul,2/26/2021,17073.0,WA CANNABUSINESS ASSN,6000.0,-363.7,5636.3,0.0,0.0,0.0,0.0,0.0,0.0,0.0,5636.3,18180.0,Direct,,,View report (https://accesshub.pdc.wa.gov/node/69803),Business and consumer affairs,various,various
85158,72300-18180,72300,FE,17348,CHRISTOPHERSEN INC*,Employer,18180,WA CANNABUSINESS ASSN,20-Oct,2/26/2021,17073.0,WA CANNABUSINESS ASSN,6000.0,-363.7,5636.3,0.0,0.0,0.0,0.0,0.0,0.0,0.0,5636.3,18180.0,Direct,,,View report (https://accesshub.pdc.wa.gov/node/72300),Business and consumer affairs,various,various
85159,76744-19070,76744,FE,17698,Juliet Schindler,Employer,19070,COLLEGE SUCCESS FOUNDATION,21-Jan,2/26/2021,17104.0,COLLEGE SUCCESS FOUNDATION,3500.0,0.0,3500.0,0.0,0.0,0.0,0.0,0.0,0.0,0.0,3500.0,19070.0,Direct,,,View report (https://accesshub.pdc.wa.gov/node/76744),Higher education,"budget ask, financial aid",various legislators
85160,71772-19135,71772,FE,17741,JEAN M LEONARD*,Employer,19135,WA INSURERS,20-Sep,2/26/2021,17130.0,WA INSURERS,8075.75,-1605.45,6470.3,0.0,0.0,0.0,0.0,0.0,0.0,0.0,6470.3,19135.0,Direct,,,View report (https://accesshub.pdc.wa.gov/node/71772),Financial institutions and insurance,Insurance,"CPB, CRJ, TR, LJ, FIEDT"
85161,76737-71009,76737,FE,69512,Sound Government Solutions,Employer,71009,Washington Land Title Association,21-Feb,2/26/2021,17146.0,Washington Land Title Association,5000.0,0.0,5000.0,0.0,0.0,0.0,0.0,0.0,0.0,0.0,5000.0,71009.0,Direct,,,View report (https://accesshub.pdc.wa.gov/node/76737),Financial institutions and insurance,Title Insurance,"OIC, Business Cmtes, Judiciary Cmtes & DOL"
85162,67422-18181,67422,FE,17348,CHRISTOPHERSEN INC*,Employer,18181,WA REFUSE & RECYCLING ASSN,20-Apr,2/26/2021,17185.0,WA REFUSE & RECYCLING ASSN,6000.0,0.0,6000.0,0.0,0.0,0.0,0.0,0.0,0.0,0.0,6000.0,18181.0,Direct,,,View report (https://accesshub.pdc.wa.gov/node/67422),Business and consumer affairs,various,various
85163,69803-18181,69803,FE,17348,CHRISTOPHERSEN INC*,Employer,18181,WA REFUSE & RECYCLING ASSN,20-Jul,2/26/2021,17185.0,WA REFUSE & RECYCLING ASSN,6000.0,0.0,6000.0,0.0,0.0,0.0,0.0,0.0,0.0,0.0,6000.0,18181.0,Direct,,,View report (https://accesshub.pdc.wa.gov/node/69803),Business and consumer affairs,various,various
85164,72300-18181,72300,FE,17348,CHRISTOPHERSEN INC*,Employer,18181,WA REFUSE & RECYCLING ASSN,20-Oct,2/26/2021,17185.0,WA REFUSE & RECYCLING ASSN,6000.0,0.0,6000.0,0.0,0.0,0.0,0.0,0.0,0.0,0.0,6000.0,18181.0,Direct,,,View report (https://accesshub.pdc.wa.gov/node/72300),Business and consumer affairs,various,various
85165,68088-18865,68088,FE,17581,GORDON THOMAS HONEYWELL GOV AFFAIRS*,Employer,18865,WA ASSN OF WHEAT GROWERS,20-May,2/26/2021,17209.0,WA ASSN OF WHEAT GROWERS,4250.0,0.0,4250.0,0.0,0.0,0.0,0.0,0.0,0.0,0.0,4250.0,18865.0,Direct,,,View report (https://accesshub.pdc.wa.gov/node/68088),Agriculture,"agriculture, climate change/environmental regulation, pesticides, water policy, fiscal issues/tax incentives",legislature
85166,68836-18865,68836,FE,17581,GORDON THOMAS HONEYWELL GOV AFFAIRS*,Employer,18865,WA ASSN OF WHEAT GROWERS,20-Jun,2/26/2021,17209.0,WA ASSN OF WHEAT GROWERS,4250.0,0.0,4250.0,0.0,0.0,0.0,0.0,0.0,0.0,0.0,4250.0,18865.0,Direct,,,View report (https://accesshub.pdc.wa.gov/node/68836),Agriculture,"agriculture, climate change/environmental regulation, pesticides, water policy, fiscal issues/tax incentives",legislature
85167,69694-18865,69694,FE,17581,GORDON THOMAS HONEYWELL GOV AFFAIRS*,Employer,18865,WA ASSN OF WHEAT GROWERS,20-Jul,2/26/2021,17209.0,WA ASSN OF WHEAT GROWERS,4250.0,0.0,4250.0,0.0,0.0,0.0,0.0,0.0,0.0,0.0,4250.0,18865.0,Direct,,,View report (https://accesshub.pdc.wa.gov/node/69694),Agriculture,"climate change, pesticides, water policy, fiscal issues, tax incentives, agriculture",legislature
85168,70481-18865,70481,FE,17581,GORDON THOMAS HONEYWELL GOV AFFAIRS*,Employer,18865,WA ASSN OF WHEAT GROWERS,20-Aug,2/26/2021,17209.0,WA ASSN OF WHEAT GROWERS,4250.0,0.0,4250.0,0.0,0.0,0.0,0.0,0.0,0.0,0.0,4250.0,18865.0,Direct,,,View report (https://accesshub.pdc.wa.gov/node/70481),Agriculture,"climate change, pesticides, water policy, fiscal issues, tax incentives, agriculture",legislature
85169,71317-18865,71317,FE,17581,GORDON THOMAS HONEYWELL GOV AFFAIRS*,Employer,18865,WA ASSN OF WHEAT GROWERS,20-Sep,2/26/2021,17209.0,WA ASSN OF WHEAT GROWERS,4250.0,0.0,4250.0,0.0,0.0,0.0,0.0,0.0,0.0,0.0,4250.0,18865.0,Direct,,,View report (https://accesshub.pdc.wa.gov/node/71317),Agriculture,"climate change, pesticides, water policy, fiscal issues, tax incentives, agriculture",legislature
85170,72347-18865,72347,FE,17581,GORDON THOMAS HONEYWELL GOV AFFAIRS*,Employer,18865,WA ASSN OF WHEAT GROWERS,20-Oct,2/26/2021,17209.0,WA ASSN OF WHEAT GROWERS,4250.0,0.0,4250.0,0.0,0.0,0.0,0.0,0.0,0.0,0.0,4250.0,18865.0,Direct,,,View report (https://accesshub.pdc.wa.gov/node/72347),Agriculture,"climate change, pesticides, water policy, fiscal issues, tax incentives, agriculture",legislature
85171,73068-18865,73068,FE,17581,GORDON THOMAS HONEYWELL GOV AFFAIRS*,Employer,18865,WA ASSN OF WHEAT GROWERS,20-Nov,2/26/2021,17209.0,WA ASSN OF WHEAT GROWERS,4250.0,0.0,4250.0,0.0,0.0,0.0,0.0,0.0,0.0,0.0,4250.0,18865.0,Direct,,,View report (https://accesshub.pdc.wa.gov/node/73068),Agriculture,"climate change, pesticides, water policy, fiscal issues, tax incentives, agriculture",legislature
85172,74113-18865,74113,FE,17581,GORDON THOMAS HONEYWELL GOV AFFAIRS*,Employer,18865,WA ASSN OF WHEAT GROWERS,20-Dec,2/26/2021,17209.0,WA ASSN OF WHEAT GROWERS,4250.0,0.0,4250.0,0.0,0.0,0.0,0.0,0.0,0.0,0.0,4250.0,18865.0,Direct,,,View report (https://accesshub.pdc.wa.gov/node/74113),Agriculture,"climate change, pesticides, water policy, fiscal issues, tax incentives, agriculture",legislature
85173,65787-60935,65787,FE,60930,Mario Merced Villanueva,Employer,60935,WA ST CATHOLIC CONFERENCE,20-Feb,2/26/2021,17228.0,WA ST CATHOLIC CONFERENCE,673.0,0.0,673.0,98.05,0.0,0.0,0.0,0.0,0.0,98.05,771.05,60935.0,Direct,,,View report (https://accesshub.pdc.wa.gov/node/65787),Education,SB 5395 Comprehensive Sex Education,"Re. Santos, Chair, House Education Committee"
85175,71772-72397,71772,FE,17741,JEAN M LEONARD*,Employer,72397,WA ST PSYCHIATRIC ASSN (KATHRYN KOLAN),20-Sep,2/26/2021,17270.0,WA ST PSYCHIATRIC ASSN,750.0,0.0,750.0,0.0,0.0,0.0,0.0,0.0,0.0,0.0,750.0,72397.0,Subcontract,17712.0,KATHRYN KOLAN,View report (https://accesshub.pdc.wa.gov/node/71772),,,
85176,76771-18975,76771,FE,17646,DEDI LITTLE,Employer,18975,WA ST PHARMACY ASSN,21-Feb,2/26/2021,17271.0,WA ST PHARMACY ASSN,6215.0,0.0,6215.0,0.0,0.0,0.0,0.0,0.0,0.0,0.0,6215.0,18975.0,Direct,,,View report (https://accesshub.pdc.wa.gov/node/76771),Health Care,health care issues related and impacting the pharmacy profession,Senate and House Health Care committee
85177,69694-68847,69694,FE,17581,GORDON THOMAS HONEYWELL GOV AFFAIRS*,Employer,68847,WA ST POTATO COMMISSION,20-Jul,2/26/2021,17273.0,WA ST POTATO COMMISSION,4150.0,0.0,4150.0,0.0,0.0,0.0,0.0,0.0,0.0,0.0,4150.0,68847.0,Direct,,,View report (https://accesshub.pdc.wa.gov/node/69694),Agriculture,"Operating budget issues, higher education issues, educations issues",legislature
85178,70481-68847,70481,FE,17581,GORDON THOMAS HONEYWELL GOV AFFAIRS*,Employer,68847,WA ST POTATO COMMISSION,20-Aug,2/26/2021,17273.0,WA ST POTATO COMMISSION,4150.0,0.0,4150.0,0.0,0.0,0.0,0.0,0.0,0.0,0.0,4150.0,68847.0,Direct,,,View report (https://accesshub.pdc.wa.gov/node/70481),Agriculture,"Operating budget issues, higher education issues, educations issues",legislature
85179,71317-68847,71317,FE,17581,GORDON THOMAS HONEYWELL GOV AFFAIRS*,Employer,68847,WA ST POTATO COMMISSION,20-Sep,2/26/2021,17273.0,WA ST POTATO COMMISSION,4150.0,0.0,4150.0,0.0,0.0,0.0,0.0,0.0,0.0,0.0,4150.0,68847.0,Direct,,,View report (https://accesshub.pdc.wa.gov/node/71317),Agriculture,"Operating budget issues, higher education issues, educations issues",legislature
85180,72347-68847,72347,FE,17581,GORDON THOMAS HONEYWELL GOV AFFAIRS*,Employer,68847,WA ST POTATO COMMISSION,20-Oct,2/26/2021,17273.0,WA ST POTATO COMMISSION,4150.0,0.0,4150.0,0.0,0.0,0.0,0.0,0.0,0.0,0.0,4150.0,68847.0,Direct,,,View report (https://accesshub.pdc.wa.gov/node/72347),Agriculture,"Operating budget issues, higher education issues, educations issues",legislature
85181,73068-68847,73068,FE,17581,GORDON THOMAS HONEYWELL GOV AFFAIRS*,Employer,68847,WA ST POTATO COMMISSION,20-Nov,2/26/2021,17273.0,WA ST POTATO COMMISSION,4150.0,0.0,4150.0,0.0,0.0,0.0,0.0,0.0,0.0,0.0,4150.0,68847.0,Direct,,,View report (https://accesshub.pdc.wa.gov/node/73068),Agriculture,"Operating budget issues, higher education issues, educations issues",legislature
85182,74113-68847,74113,FE,17581,GORDON THOMAS HONEYWELL GOV AFFAIRS*,Employer,68847,WA ST POTATO COMMISSION,20-Dec,2/26/2021,17273.0,WA ST POTATO COMMISSION,4150.0,0.0,4150.0,0.0,0.0,0.0,0.0,0.0,0.0,0.0,4150.0,68847.0,Direct,,,View report (https://accesshub.pdc.wa.gov/node/74113),Agriculture,"Operating budget issues, higher education issues, educations issues",legislature
85183,68088-47229,68088,FE,17581,GORDON THOMAS HONEYWELL GOV AFFAIRS*,Employer,47229,Western Governors University,20-May,2/26/2021,17299.0,Western Governors University,4000.0,0.0,4000.0,0.0,0.0,0.0,0.0,0.0,0.0,0.0,4000.0,47229.0,Direct,,,View report (https://accesshub.pdc.wa.gov/node/68088),Education,"Operating budget issues, higher education issues, educations issues",legislature
85184,68836-47229,68836,FE,17581,GORDON THOMAS HONEYWELL GOV AFFAIRS*,Employer,47229,Western Governors University,20-Jun,2/26/2021,17299.0,Western Governors University,4000.0,0.0,4000.0,0.0,0.0,0.0,0.0,0.0,0.0,0.0,4000.0,47229.0,Direct,,,View report (https://accesshub.pdc.wa.gov/node/68836),Education,"Operating budget issues, higher education issues, educations issues",legislature
85185,69694-47229,69694,FE,17581,GORDON THOMAS HONEYWELL GOV AFFAIRS*,Employer,47229,Western Governors University,20-Jul,2/26/2021,17299.0,Western Governors University,4000.0,0.0,4000.0,0.0,0.0,0.0,0.0,0.0,0.0,0.0,4000.0,47229.0,Direct,,,View report (https://accesshub.pdc.wa.gov/node/69694),Education,"Operating budget issues, higher education issues, educations issues",legislature
85186,70481-47229,70481,FE,17581,GORDON THOMAS HONEYWELL GOV AFFAIRS*,Employer,47229,Western Governors University,20-Aug,2/26/2021,17299.0,Western Governors University,4000.0,0.0,4000.0,0.0,0.0,0.0,0.0,0.0,0.0,0.0,4000.0,47229.0,Direct,,,View report (https://accesshub.pdc.wa.gov/node/70481),Education,"Operating budget issues, higher education issues, educations issues",legislature
85187,71317-47229,71317,FE,17581,GORDON THOMAS HONEYWELL GOV AFFAIRS*,Employer,47229,Western Governors University,20-Sep,2/26/2021,17299.0,Western Governors University,4000.0,0.0,4000.0,0.0,0.0,0.0,0.0,0.0,0.0,0.0,4000.0,47229.0,Direct,,,View report (https://accesshub.pdc.wa.gov/node/71317),Education,"Operating budget issues, higher education issues, educations issues",legislature
85188,72347-47229,72347,FE,17581,GORDON THOMAS HONEYWELL GOV AFFAIRS*,Employer,47229,Western Governors University,20-Oct,2/26/2021,17299.0,Western Governors University,4000.0,0.0,4000.0,0.0,0.0,0.0,0.0,0.0,0.0,0.0,4000.0,47229.0,Direct,,,View report (https://accesshub.pdc.wa.gov/node/72347),Education,"Operating budget issues, higher education issues, educations issues",legislature
85189,73068-47229,73068,FE,17581,GORDON THOMAS HONEYWELL GOV AFFAIRS*,Employer,47229,Western Governors University,20-Nov,2/26/2021,17299.0,Western Governors University,4000.0,0.0,4000.0,0.0,0.0,0.0,0.0,0.0,0.0,0.0,4000.0,47229.0,Direct,,,View report (https://accesshub.pdc.wa.gov/node/73068),Education,"Operating budget issues, higher education issues, educations issues",legislature
85190,74113-47229,74113,FE,17581,GORDON THOMAS HONEYWELL GOV AFFAIRS*,Employer,47229,Western Governors University,20-Dec,2/26/2021,17299.0,Western Governors University,4000.0,0.0,4000.0,0.0,0.0,0.0,0.0,0.0,0.0,0.0,4000.0,47229.0,Direct,,,View report (https://accesshub.pdc.wa.gov/node/74113),Education,"Operating budget issues, higher education issues, educations issues",legislature
85191,68088-18866,68088,FE,17581,GORDON THOMAS HONEYWELL GOV AFFAIRS*,Employer,18866,YAKIMA CO,20-May,2/26/2021,17320.0,YAKIMA CO,4500.0,0.0,4500.0,0.0,0.0,0.0,0.0,0.0,0.0,0.0,4500.0,18866.0,Direct,,,View report (https://accesshub.pdc.wa.gov/node/68088),Local government,"economic development, criminal justice, Yakima Basin Integrated Plan, Health Sciences Service Authority, other local gvmt issues",legislature
85192,68836-18866,68836,FE,17581,GORDON THOMAS HONEYWELL GOV AFFAIRS*,Employer,18866,YAKIMA CO,20-Jun,2/26/2021,17320.0,YAKIMA CO,4500.0,0.0,4500.0,0.0,0.0,0.0,0.0,0.0,0.0,0.0,4500.0,18866.0,Direct,,,View report (https://accesshub.pdc.wa.gov/node/68836),Local government,"economic development, criminal justice, Yakima Basin Integrated Plan, Health Sciences Service Authority, other local gvmt issues",legislature
85193,69694-18866,69694,FE,17581,GORDON THOMAS HONEYWELL GOV AFFAIRS*,Employer,18866,YAKIMA CO,20-Jul,2/26/2021,17320.0,YAKIMA CO,4500.0,0.0,4500.0,0.0,0.0,0.0,0.0,0.0,0.0,0.0,4500.0,18866.0,Direct,,,View report (https://accesshub.pdc.wa.gov/node/69694),Local government,"economic development, criminal justice, Yakima Basin Integrated Plan, Health Sciences Service Authority, other local gvmt issues",legislature
85194,70481-18866,70481,FE,17581,GORDON THOMAS HONEYWELL GOV AFFAIRS*,Employer,18866,YAKIMA CO,20-Aug,2/26/2021,17320.0,YAKIMA CO,4500.0,0.0,4500.0,0.0,0.0,0.0,0.0,0.0,0.0,0.0,4500.0,18866.0,Direct,,,View report (https://accesshub.pdc.wa.gov/node/70481),Local government,"economic development, criminal justice, Yakima Basin Integrated Plan, Health Sciences Service Authority, other local gvmt issues",legislature
85195,71317-18866,71317,FE,17581,GORDON THOMAS HONEYWELL GOV AFFAIRS*,Employer,18866,YAKIMA CO,20-Sep,2/26/2021,17320.0,YAKIMA CO,4500.0,0.0,4500.0,0.0,0.0,0.0,0.0,0.0,0.0,0.0,4500.0,18866.0,Direct,,,View report (https://accesshub.pdc.wa.gov/node/71317),Local government,"economic development, criminal justice, Yakima Basin Integrated Plan, Health Sciences Service Authority, other local gvmt issues",legislature
85196,72347-18866,72347,FE,17581,GORDON THOMAS HONEYWELL GOV AFFAIRS*,Employer,18866,YAKIMA CO,20-Oct,2/26/2021,17320.0,YAKIMA CO,4500.0,0.0,4500.0,0.0,0.0,0.0,0.0,0.0,0.0,0.0,4500.0,18866.0,Direct,,,View report (https://accesshub.pdc.wa.gov/node/72347),Local government,"economic development, criminal justice, Yakima Basin Integrated Plan, Health Sciences Service Authority, other local gvmt issues",legislature
85197,73068-18866,73068,FE,17581,GORDON THOMAS HONEYWELL GOV AFFAIRS*,Employer,18866,YAKIMA CO,20-Nov,2/26/2021,17320.0,YAKIMA CO,4500.0,0.0,4500.0,0.0,0.0,0.0,0.0,0.0,0.0,0.0,4500.0,18866.0,Direct,,,View report (https://accesshub.pdc.wa.gov/node/73068),Local government,"economic development, criminal justice, Yakima Basin Integrated Plan, Health Sciences Service Authority, other local gvmt issues",legislature
85198,74113-18866,74113,FE,17581,GORDON THOMAS HONEYWELL GOV AFFAIRS*,Employer,18866,YAKIMA CO,20-Dec,2/26/2021,17320.0,YAKIMA CO,4500.0,0.0,4500.0,0.0,0.0,0.0,0.0,0.0,0.0,0.0,4500.0,18866.0,Direct,,,View report (https://accesshub.pdc.wa.gov/node/74113),Local government,"economic development, criminal justice, Yakima Basin Integrated Plan, Health Sciences Service Authority, other local gvmt issues",legislature
85199,76737-70190,76737,FE,69512,Sound Government Solutions,Employer,70190,Republic National Distributing Company,21-Feb,2/26/2021,17324.0,Republic National Distributing Company,4500.0,0.0,4500.0,0.0,0.0,0.0,0.0,0.0,0.0,0.0,4500.0,70190.0,Direct,,,View report (https://accesshub.pdc.wa.gov/node/76737),Business and consumer affairs,Liquor Regulation,Senate Commerce & Gaming House Cmte on Commerce
85200,69694-69157,69694,FE,17581,GORDON THOMAS HONEYWELL GOV AFFAIRS*,Employer,69157,WA POTATO & ONION ASSN,20-Jul,2/26/2021,23611.0,WA POTATO & ONION ASSN,850.0,0.0,850.0,0.0,0.0,0.0,0.0,0.0,0.0,0.0,850.0,69157.0,Direct,,,View report (https://accesshub.pdc.wa.gov/node/69694),Agriculture,budget,legislature
85201,70481-69157,70481,FE,17581,GORDON THOMAS HONEYWELL GOV AFFAIRS*,Employer,69157,WA POTATO & ONION ASSN,20-Aug,2/26/2021,23611.0,WA POTATO & ONION ASSN,850.0,0.0,850.0,0.0,0.0,0.0,0.0,0.0,0.0,0.0,850.0,69157.0,Direct,,,View report (https://accesshub.pdc.wa.gov/node/70481),Agriculture,budget,legislature
85202,71317-69157,71317,FE,17581,GORDON THOMAS HONEYWELL GOV AFFAIRS*,Employer,69157,WA POTATO & ONION ASSN,20-Sep,2/26/2021,23611.0,WA POTATO & ONION ASSN,850.0,0.0,850.0,0.0,0.0,0.0,0.0,0.0,0.0,0.0,850.0,69157.0,Direct,,,View report (https://accesshub.pdc.wa.gov/node/71317),Agriculture,budget,legislature
85203,72347-69157,72347,FE,17581,GORDON THOMAS HONEYWELL GOV AFFAIRS*,Employer,69157,WA POTATO & ONION ASSN,20-Oct,2/26/2021,23611.0,WA POTATO & ONION ASSN,850.0,0.0,850.0,0.0,0.0,0.0,0.0,0.0,0.0,0.0,850.0,69157.0,Direct,,,View report (https://accesshub.pdc.wa.gov/node/72347),Agriculture,budget,legislature
85204,73068-69157,73068,FE,17581,GORDON THOMAS HONEYWELL GOV AFFAIRS*,Employer,69157,WA POTATO & ONION ASSN,20-Nov,2/26/2021,23611.0,WA POTATO & ONION ASSN,850.0,0.0,850.0,0.0,0.0,0.0,0.0,0.0,0.0,0.0,850.0,69157.0,Direct,,,View report (https://accesshub.pdc.wa.gov/node/73068),Agriculture,budget,legislature
85205,74113-69157,74113,FE,17581,GORDON THOMAS HONEYWELL GOV AFFAIRS*,Employer,69157,WA POTATO & ONION ASSN,20-Dec,2/26/2021,23611.0,WA POTATO & ONION ASSN,850.0,0.0,850.0,0.0,0.0,0.0,0.0,0.0,0.0,0.0,850.0,69157.0,Direct,,,View report (https://accesshub.pdc.wa.gov/node/74113),Agriculture,budget,legislature
85206,68088-25018,68088,FE,17581,GORDON THOMAS HONEYWELL GOV AFFAIRS*,Employer,25018,SSMCP,20-May,2/26/2021,24910.0,SSMCP,2916.67,0.0,2916.67,0.0,0.0,0.0,0.0,0.0,0.0,0.0,2916.67,25018.0,Direct,,,View report (https://accesshub.pdc.wa.gov/node/68088),Local government,,Legislature
85207,68836-25018,68836,FE,17581,GORDON THOMAS HONEYWELL GOV AFFAIRS*,Employer,25018,SSMCP,20-Jun,2/26/2021,24910.0,SSMCP,2916.67,0.0,2916.67,0.0,0.0,0.0,0.0,0.0,0.0,0.0,2916.67,25018.0,Direct,,,View report (https://accesshub.pdc.wa.gov/node/68836),Local government,,Legislature
85208,69694-25018,69694,FE,17581,GORDON THOMAS HONEYWELL GOV AFFAIRS*,Employer,25018,SSMCP,20-Jul,2/26/2021,24910.0,SSMCP,2916.67,0.0,2916.67,0.0,0.0,0.0,0.0,0.0,0.0,0.0,2916.67,25018.0,Direct,,,View report (https://accesshub.pdc.wa.gov/node/69694),Local government,,Legislature
85209,70481-25018,70481,FE,17581,GORDON THOMAS HONEYWELL GOV AFFAIRS*,Employer,25018,SSMCP,20-Aug,2/26/2021,24910.0,SSMCP,2917.0,0.0,2917.0,0.0,0.0,0.0,0.0,0.0,0.0,0.0,2917.0,25018.0,Direct,,,View report (https://accesshub.pdc.wa.gov/node/70481),Transportation,transportation,legislative
85210,71317-25018,71317,FE,17581,GORDON THOMAS HONEYWELL GOV AFFAIRS*,Employer,25018,SSMCP,20-Sep,2/26/2021,24910.0,SSMCP,2917.0,0.0,2917.0,0.0,0.0,0.0,0.0,0.0,0.0,0.0,2917.0,25018.0,Direct,,,View report (https://accesshub.pdc.wa.gov/node/71317),Transportation,transportation,legislative
85211,72347-25018,72347,FE,17581,GORDON THOMAS HONEYWELL GOV AFFAIRS*,Employer,25018,SSMCP,20-Oct,2/26/2021,24910.0,SSMCP,2917.0,0.0,2917.0,0.0,0.0,0.0,0.0,0.0,0.0,0.0,2917.0,25018.0,Direct,,,View report (https://accesshub.pdc.wa.gov/node/72347),Transportation,transportation,legislative
85212,73068-25018,73068,FE,17581,GORDON THOMAS HONEYWELL GOV AFFAIRS*,Employer,25018,SSMCP,20-Nov,2/26/2021,24910.0,SSMCP,2917.0,0.0,2917.0,0.0,0.0,0.0,0.0,0.0,0.0,0.0,2917.0,25018.0,Direct,,,View report (https://accesshub.pdc.wa.gov/node/73068),Transportation,transportation,legislative
85213,74113-25018,74113,FE,17581,GORDON THOMAS HONEYWELL GOV AFFAIRS*,Employer,25018,SSMCP,20-Dec,2/26/2021,24910.0,SSMCP,2917.0,0.0,2917.0,0.0,0.0,0.0,0.0,0.0,0.0,0.0,2917.0,25018.0,Direct,,,View report (https://accesshub.pdc.wa.gov/node/74113),Transportation,transportation,legislative
85214,68088-26833,68088,FE,17581,GORDON THOMAS HONEYWELL GOV AFFAIRS*,Employer,26833,STACS DNA Inc,20-May,2/26/2021,26832.0,STACS DNA Inc,500.0,0.0,500.0,0.0,0.0,0.0,0.0,0.0,0.0,0.0,500.0,26833.0,Direct,,,View report (https://accesshub.pdc.wa.gov/node/68088),State government,DNA rape kit tracking,legislature
85215,68836-26833,68836,FE,17581,GORDON THOMAS HONEYWELL GOV AFFAIRS*,Employer,26833,STACS DNA Inc,20-Jun,2/26/2021,26832.0,STACS DNA Inc,500.0,0.0,500.0,0.0,0.0,0.0,0.0,0.0,0.0,0.0,500.0,26833.0,Direct,,,View report (https://accesshub.pdc.wa.gov/node/68836),State government,DNA rape kit tracking,legislature
85216,72347-26833,72347,FE,17581,GORDON THOMAS HONEYWELL GOV AFFAIRS*,Employer,26833,STACS DNA Inc,20-Oct,2/26/2021,26832.0,STACS DNA Inc,500.0,0.0,500.0,0.0,0.0,0.0,0.0,0.0,0.0,0.0,500.0,26833.0,Direct,,,View report (https://accesshub.pdc.wa.gov/node/72347),Law and justice,dna technology,legislative
85217,73068-26833,73068,FE,17581,GORDON THOMAS HONEYWELL GOV AFFAIRS*,Employer,26833,STACS DNA Inc,20-Nov,2/26/2021,26832.0,STACS DNA Inc,500.0,0.0,500.0,0.0,0.0,0.0,0.0,0.0,0.0,0.0,500.0,26833.0,Direct,,,View report (https://accesshub.pdc.wa.gov/node/73068),Law and justice,dna technology,legislative
85218,74113-26833,74113,FE,17581,GORDON THOMAS HONEYWELL GOV AFFAIRS*,Employer,26833,STACS DNA Inc,20-Dec,2/26/2021,26832.0,STACS DNA Inc,500.0,0.0,500.0,0.0,0.0,0.0,0.0,0.0,0.0,0.0,500.0,26833.0,Direct,,,View report (https://accesshub.pdc.wa.gov/node/74113),Law and justice,dna technology,legislative
85219,70620-27670,70620,FE,17813,MILLENNIA PUBLIC AFFAIRS INC*,Employer,27670,"Jazz Pharmaceuticals, Inc. and its subsidiaries, including Greenwich Biosciences, Inc.",20-Aug,2/26/2021,27659.0,"Jazz Pharmaceuticals, Inc. and its subsidiaries, including Greenwich Biosciences, Inc.",3500.0,0.0,3500.0,0.0,0.0,0.0,0.0,0.0,0.0,0.0,3500.0,27670.0,Direct,,,View report (https://accesshub.pdc.wa.gov/node/70620),Business and consumer affairs,Business & Consumer Affairs,House Senate All
85220,68088-28692,68088,FE,17581,GORDON THOMAS HONEYWELL GOV AFFAIRS*,Employer,28692,Benton County Commissioners,20-May,2/26/2021,28679.0,Benton County Commissioners,3000.0,0.0,3000.0,0.0,0.0,0.0,0.0,0.0,0.0,0.0,3000.0,28692.0,Direct,,,View report (https://accesshub.pdc.wa.gov/node/68088),Local government,"Economic development, transportation funding, Yakima Basin Integrated Plan funding, other local gvmt issues",legislature
85221,68836-28692,68836,FE,17581,GORDON THOMAS HONEYWELL GOV AFFAIRS*,Employer,28692,Benton County Commissioners,20-Jun,2/26/2021,28679.0,Benton County Commissioners,3000.0,0.0,3000.0,0.0,0.0,0.0,0.0,0.0,0.0,0.0,3000.0,28692.0,Direct,,,View report (https://accesshub.pdc.wa.gov/node/68836),Local government,"Economic development, transportation funding, Yakima Basin Integrated Plan funding, other local gvmt issues",legislature
85222,69694-28692,69694,FE,17581,GORDON THOMAS HONEYWELL GOV AFFAIRS*,Employer,28692,Benton County Commissioners,20-Jul,2/26/2021,28679.0,Benton County Commissioners,3000.0,0.0,3000.0,0.0,0.0,0.0,0.0,0.0,0.0,0.0,3000.0,28692.0,Direct,,,View report (https://accesshub.pdc.wa.gov/node/69694),Local government,"Economic development, transportation funding, Yakima Basin Integrated Plan funding, other local gvmt issues",legislature
85223,70481-28692,70481,FE,17581,GORDON THOMAS HONEYWELL GOV AFFAIRS*,Employer,28692,Benton County Commissioners,20-Aug,2/26/2021,28679.0,Benton County Commissioners,3000.0,0.0,3000.0,0.0,0.0,0.0,0.0,0.0,0.0,0.0,3000.0,28692.0,Direct,,,View report (https://accesshub.pdc.wa.gov/node/70481),Local government,"Economic development, transportation funding, Yakima Basin Integrated Plan funding, other local gvmt issues",legislature
85224,71317-28692,71317,FE,17581,GORDON THOMAS HONEYWELL GOV AFFAIRS*,Employer,28692,Benton County Commissioners,20-Sep,2/26/2021,28679.0,Benton County Commissioners,3000.0,0.0,3000.0,0.0,0.0,0.0,0.0,0.0,0.0,0.0,3000.0,28692.0,Direct,,,View report (https://accesshub.pdc.wa.gov/node/71317),Local government,"Economic development, transportation funding, Yakima Basin Integrated Plan funding, other local gvmt issues",legislature
85225,72347-28692,72347,FE,17581,GORDON THOMAS HONEYWELL GOV AFFAIRS*,Employer,28692,Benton County Commissioners,20-Oct,2/26/2021,28679.0,Benton County Commissioners,3000.0,0.0,3000.0,0.0,0.0,0.0,0.0,0.0,0.0,0.0,3000.0,28692.0,Direct,,,View report (https://accesshub.pdc.wa.gov/node/72347),Local government,"Economic development, transportation funding, Yakima Basin Integrated Plan funding, other local gvmt issues",legislature
85226,73068-28692,73068,FE,17581,GORDON THOMAS HONEYWELL GOV AFFAIRS*,Employer,28692,Benton County Commissioners,20-Nov,2/26/2021,28679.0,Benton County Commissioners,3000.0,0.0,3000.0,0.0,0.0,0.0,0.0,0.0,0.0,0.0,3000.0,28692.0,Direct,,,View report (https://accesshub.pdc.wa.gov/node/73068),Local government,"Economic development, transportation funding, Yakima Basin Integrated Plan funding, other local gvmt issues",legislature
85227,74113-28692,74113,FE,17581,GORDON THOMAS HONEYWELL GOV AFFAIRS*,Employer,28692,Benton County Commissioners,20-Dec,2/26/2021,28679.0,Benton County Commissioners,3000.0,0.0,3000.0,0.0,0.0,0.0,0.0,0.0,0.0,0.0,3000.0,28692.0,Direct,,,View report (https://accesshub.pdc.wa.gov/node/74113),Local government,"Economic development, transportation funding, Yakima Basin Integrated Plan funding, other local gvmt issues",legislature
85228,68088-29154,68088,FE,17581,GORDON THOMAS HONEYWELL GOV AFFAIRS*,Employer,29154,Cerner Corporation,20-May,2/26/2021,29139.0,Cerner Corporation,5000.0,0.0,5000.0,0.0,0.0,0.0,0.0,0.0,0.0,0.0,5000.0,29154.0,Direct,,,View report (https://accesshub.pdc.wa.gov/node/68088),Technology,technology,legislature
85229,68836-29154,68836,FE,17581,GORDON THOMAS HONEYWELL GOV AFFAIRS*,Employer,29154,Cerner Corporation,20-Jun,2/26/2021,29139.0,Cerner Corporation,5000.0,0.0,5000.0,0.0,0.0,4550.0,0.0,0.0,0.0,4550.0,9550.0,29154.0,Direct,,,View report (https://accesshub.pdc.wa.gov/node/68836),Technology,technology,legislature
85230,69694-29154,69694,FE,17581,GORDON THOMAS HONEYWELL GOV AFFAIRS*,Employer,29154,Cerner Corporation,20-Jul,2/26/2021,29139.0,Cerner Corporation,5000.0,0.0,5000.0,0.0,0.0,0.0,0.0,0.0,0.0,0.0,5000.0,29154.0,Direct,,,View report (https://accesshub.pdc.wa.gov/node/69694),Technology,technology,legislature
85231,70481-29154,70481,FE,17581,GORDON THOMAS HONEYWELL GOV AFFAIRS*,Employer,29154,Cerner Corporation,20-Aug,2/26/2021,29139.0,Cerner Corporation,5000.0,0.0,5000.0,0.0,0.0,0.0,0.0,0.0,0.0,0.0,5000.0,29154.0,Direct,,,View report (https://accesshub.pdc.wa.gov/node/70481),Technology,technology,legislature
85232,71317-29154,71317,FE,17581,GORDON THOMAS HONEYWELL GOV AFFAIRS*,Employer,29154,Cerner Corporation,20-Sep,2/26/2021,29139.0,Cerner Corporation,5000.0,0.0,5000.0,0.0,0.0,1500.0,0.0,0.0,0.0,1500.0,6500.0,29154.0,Direct,,,View report (https://accesshub.pdc.wa.gov/node/71317),Technology,technology,legislature
85233,72347-29154,72347,FE,17581,GORDON THOMAS HONEYWELL GOV AFFAIRS*,Employer,29154,Cerner Corporation,20-Oct,2/26/2021,29139.0,Cerner Corporation,5000.0,0.0,5000.0,0.0,0.0,0.0,0.0,0.0,0.0,0.0,5000.0,29154.0,Direct,,,View report (https://accesshub.pdc.wa.gov/node/72347),Technology,technology,legislature
85234,73068-29154,73068,FE,17581,GORDON THOMAS HONEYWELL GOV AFFAIRS*,Employer,29154,Cerner Corporation,20-Nov,2/26/2021,29139.0,Cerner Corporation,5000.0,0.0,5000.0,0.0,0.0,0.0,0.0,0.0,0.0,0.0,5000.0,29154.0,Direct,,,View report (https://accesshub.pdc.wa.gov/node/73068),Technology,technology,legislature
85235,74113-29154,74113,FE,17581,GORDON THOMAS HONEYWELL GOV AFFAIRS*,Employer,29154,Cerner Corporation,20-Dec,2/26/2021,29139.0,Cerner Corporation,5000.0,0.0,5000.0,0.0,0.0,0.0,0.0,0.0,0.0,0.0,5000.0,29154.0,Direct,,,View report (https://accesshub.pdc.wa.gov/node/74113),Technology,technology,legislature
85236,76737-71234,76737,FE,69512,Sound Government Solutions,Employer,71234,"Teladoc Health, Inc.",21-Feb,2/26/2021,29480.0,"Teladoc Health, Inc.",9000.0,0.0,9000.0,0.0,0.0,0.0,0.0,0.0,0.0,0.0,9000.0,71234.0,Direct,,,View report (https://accesshub.pdc.wa.gov/node/76737),Health Care,Telehealth,"OIC, HCA, Medical Commission & Health Care Cmtes"
85237,67422-48674,67422,FE,17348,CHRISTOPHERSEN INC*,Employer,48674,Internet Association,20-Apr,2/26/2021,31991.0,Internet Association,4000.0,-363.63,3636.37,0.0,0.0,0.0,0.0,0.0,0.0,0.0,3636.37,48674.0,Direct,,,View report (https://accesshub.pdc.wa.gov/node/67422),Technology,various,various
85238,69803-48674,69803,FE,17348,CHRISTOPHERSEN INC*,Employer,48674,Internet Association,20-Jul,2/26/2021,31991.0,Internet Association,4000.0,-363.63,3636.37,0.0,0.0,0.0,0.0,0.0,0.0,0.0,3636.37,48674.0,Direct,,,View report (https://accesshub.pdc.wa.gov/node/69803),Technology,various,various
85239,72300-48674,72300,FE,17348,CHRISTOPHERSEN INC*,Employer,48674,Internet Association,20-Oct,2/26/2021,31991.0,Internet Association,4000.0,-363.63,3636.37,0.0,0.0,0.0,0.0,0.0,0.0,0.0,3636.37,48674.0,Direct,,,View report (https://accesshub.pdc.wa.gov/node/72300),Technology,various,various
85240,68088-34690,68088,FE,17581,GORDON THOMAS HONEYWELL GOV AFFAIRS*,Employer,34690,City of Blaine,20-May,2/26/2021,34689.0,City of Blaine,2000.0,0.0,2000.0,0.0,0.0,0.0,0.0,0.0,0.0,0.0,2000.0,34690.0,Direct,,,View report (https://accesshub.pdc.wa.gov/node/68088),Local government,,legislature
85241,68836-34690,68836,FE,17581,GORDON THOMAS HONEYWELL GOV AFFAIRS*,Employer,34690,City of Blaine,20-Jun,2/26/2021,34689.0,City of Blaine,2000.0,0.0,2000.0,0.0,0.0,0.0,0.0,0.0,0.0,0.0,2000.0,34690.0,Direct,,,View report (https://accesshub.pdc.wa.gov/node/68836),Local government,,legislature
85242,69694-34690,69694,FE,17581,GORDON THOMAS HONEYWELL GOV AFFAIRS*,Employer,34690,City of Blaine,20-Jul,2/26/2021,34689.0,City of Blaine,2000.0,0.0,2000.0,0.0,0.0,0.0,0.0,0.0,0.0,0.0,2000.0,34690.0,Direct,,,View report (https://accesshub.pdc.wa.gov/node/69694),Local government,,legislature
85243,70481-34690,70481,FE,17581,GORDON THOMAS HONEYWELL GOV AFFAIRS*,Employer,34690,City of Blaine,20-Aug,2/26/2021,34689.0,City of Blaine,2000.0,0.0,2000.0,0.0,0.0,0.0,0.0,0.0,0.0,0.0,2000.0,34690.0,Direct,,,View report (https://accesshub.pdc.wa.gov/node/70481),Local government,,legislature
85244,71317-34690,71317,FE,17581,GORDON THOMAS HONEYWELL GOV AFFAIRS*,Employer,34690,City of Blaine,20-Sep,2/26/2021,34689.0,City of Blaine,2000.0,0.0,2000.0,0.0,0.0,0.0,0.0,0.0,0.0,0.0,2000.0,34690.0,Direct,,,View report (https://accesshub.pdc.wa.gov/node/71317),Local government,,legislature
85245,72347-34690,72347,FE,17581,GORDON THOMAS HONEYWELL GOV AFFAIRS*,Employer,34690,City of Blaine,20-Oct,2/26/2021,34689.0,City of Blaine,2000.0,0.0,2000.0,0.0,0.0,0.0,0.0,0.0,0.0,0.0,2000.0,34690.0,Direct,,,View report (https://accesshub.pdc.wa.gov/node/72347),Local government,,legislature
85246,73068-34690,73068,FE,17581,GORDON THOMAS HONEYWELL GOV AFFAIRS*,Employer,34690,City of Blaine,20-Nov,2/26/2021,34689.0,City of Blaine,2000.0,0.0,2000.0,0.0,0.0,0.0,0.0,0.0,0.0,0.0,2000.0,34690.0,Direct,,,View report (https://accesshub.pdc.wa.gov/node/73068),Local government,,legislature
85247,74113-34690,74113,FE,17581,GORDON THOMAS HONEYWELL GOV AFFAIRS*,Employer,34690,City of Blaine,20-Dec,2/26/2021,34689.0,City of Blaine,2000.0,0.0,2000.0,0.0,0.0,0.0,0.0,0.0,0.0,0.0,2000.0,34690.0,Direct,,,View report (https://accesshub.pdc.wa.gov/node/74113),Local government,,legislature
85248,68088-37814,68088,FE,17581,GORDON THOMAS HONEYWELL GOV AFFAIRS*,Employer,37814,City Of Othello,20-May,2/26/2021,37808.0,City Of Othello,3630.0,0.0,3630.0,0.0,0.0,0.0,0.0,0.0,0.0,0.0,3630.0,37814.0,Direct,,,View report (https://accesshub.pdc.wa.gov/node/68088),Local government,,legislature
85249,68836-37814,68836,FE,17581,GORDON THOMAS HONEYWELL GOV AFFAIRS*,Employer,37814,City Of Othello,20-Jun,2/26/2021,37808.0,City Of Othello,3630.0,0.0,3630.0,0.0,0.0,0.0,0.0,0.0,0.0,0.0,3630.0,37814.0,Direct,,,View report (https://accesshub.pdc.wa.gov/node/68836),Local government,,legislature
85250,69694-37814,69694,FE,17581,GORDON THOMAS HONEYWELL GOV AFFAIRS*,Employer,37814,City Of Othello,20-Jul,2/26/2021,37808.0,City Of Othello,3630.0,0.0,3630.0,0.0,0.0,0.0,0.0,0.0,0.0,0.0,3630.0,37814.0,Direct,,,View report (https://accesshub.pdc.wa.gov/node/69694),Local government,,legislature
85251,70481-37814,70481,FE,17581,GORDON THOMAS HONEYWELL GOV AFFAIRS*,Employer,37814,City Of Othello,20-Aug,2/26/2021,37808.0,City Of Othello,3630.0,0.0,3630.0,0.0,0.0,0.0,0.0,0.0,0.0,0.0,3630.0,37814.0,Direct,,,View report (https://accesshub.pdc.wa.gov/node/70481),Local government,,legislature
85252,71317-37814,71317,FE,17581,GORDON THOMAS HONEYWELL GOV AFFAIRS*,Employer,37814,City Of Othello,20-Sep,2/26/2021,37808.0,City Of Othello,3630.0,0.0,3630.0,0.0,0.0,0.0,0.0,0.0,0.0,0.0,3630.0,37814.0,Direct,,,View report (https://accesshub.pdc.wa.gov/node/71317),Local government,,legislature
85253,72347-37814,72347,FE,17581,GORDON THOMAS HONEYWELL GOV AFFAIRS*,Employer,37814,City Of Othello,20-Oct,2/26/2021,37808.0,City Of Othello,3630.0,0.0,3630.0,0.0,0.0,0.0,0.0,0.0,0.0,0.0,3630.0,37814.0,Direct,,,View report (https://accesshub.pdc.wa.gov/node/72347),Local government,,legislature
85254,73068-37814,73068,FE,17581,GORDON THOMAS HONEYWELL GOV AFFAIRS*,Employer,37814,City Of Othello,20-Nov,2/26/2021,37808.0,City Of Othello,3630.0,0.0,3630.0,0.0,0.0,0.0,0.0,0.0,0.0,0.0,3630.0,37814.0,Direct,,,View report (https://accesshub.pdc.wa.gov/node/73068),Local government,,legislature
85255,74113-37814,74113,FE,17581,GORDON THOMAS HONEYWELL GOV AFFAIRS*,Employer,37814,City Of Othello,20-Dec,2/26/2021,37808.0,City Of Othello,3630.0,0.0,3630.0,0.0,0.0,0.0,0.0,0.0,0.0,0.0,3630.0,37814.0,Direct,,,View report (https://accesshub.pdc.wa.gov/node/74113),Local government,,legislature
85256,67422-38319,67422,FE,17348,CHRISTOPHERSEN INC*,Employer,38319,Recompose,20-Apr,2/26/2021,38316.0,Recompose,4000.0,-727.26,3272.74,0.0,0.0,0.0,0.0,0.0,0.0,0.0,3272.74,38319.0,Direct,,,View report (https://accesshub.pdc.wa.gov/node/67422),Business and consumer affairs,various,various
85257,69803-38319,69803,FE,17348,CHRISTOPHERSEN INC*,Employer,38319,Recompose,20-Jul,2/26/2021,38316.0,Recompose,4000.0,-363.63,3636.37,0.0,0.0,0.0,0.0,0.0,0.0,0.0,3636.37,38319.0,Direct,,,View report (https://accesshub.pdc.wa.gov/node/69803),Business and consumer affairs,various,various
85258,72300-38319,72300,FE,17348,CHRISTOPHERSEN INC*,Employer,38319,Recompose,20-Oct,2/26/2021,38316.0,Recompose,4000.0,-363.63,3636.37,0.0,0.0,0.0,0.0,0.0,0.0,0.0,3636.37,38319.0,Direct,,,View report (https://accesshub.pdc.wa.gov/node/72300),Business and consumer affairs,various,various
85259,71772-39625,71772,FE,17741,JEAN M LEONARD*,Employer,39625,Blue Origin LLC,20-Sep,2/26/2021,39619.0,Blue Origin LLC,2500.0,-1605.45,894.55,0.0,0.0,0.0,0.0,0.0,0.0,0.0,894.55,39625.0,Direct,,,View report (https://accesshub.pdc.wa.gov/node/71772),Technology,Science Aerospace,"ITED, EET"
85260,72347-39866,72347,FE,17581,GORDON THOMAS HONEYWELL GOV AFFAIRS*,Employer,39866,FIRST Washington,20-Oct,2/26/2021,39865.0,FIRST Washington,2500.0,0.0,2500.0,0.0,0.0,0.0,0.0,0.0,0.0,0.0,2500.0,39866.0,Direct,,,View report (https://accesshub.pdc.wa.gov/node/72347),Education,STEM Education and Operating Budget Issues,legislative
85261,73068-39866,73068,FE,17581,GORDON THOMAS HONEYWELL GOV AFFAIRS*,Employer,39866,FIRST Washington,20-Nov,2/26/2021,39865.0,FIRST Washington,2500.0,0.0,2500.0,0.0,0.0,0.0,0.0,0.0,0.0,0.0,2500.0,39866.0,Direct,,,View report (https://accesshub.pdc.wa.gov/node/73068),Education,STEM Education and Operating Budget Issues,legislative
85262,74113-39866,74113,FE,17581,GORDON THOMAS HONEYWELL GOV AFFAIRS*,Employer,39866,FIRST Washington,20-Dec,2/26/2021,39865.0,FIRST Washington,2500.0,0.0,2500.0,0.0,0.0,0.0,0.0,0.0,0.0,0.0,2500.0,39866.0,Direct,,,View report (https://accesshub.pdc.wa.gov/node/74113),Education,STEM Education and Operating Budget Issues,legislative
85263,67422-44208,67422,FE,17348,CHRISTOPHERSEN INC*,Employer,44208,"Assurant, Inc.",20-Apr,2/26/2021,44206.0,"Assurant, Inc.",4000.0,-363.63,3636.37,0.0,0.0,0.0,0.0,0.0,0.0,0.0,3636.37,44208.0,Direct,,,View report (https://accesshub.pdc.wa.gov/node/67422),Financial institutions and insurance,various,various
85264,69803-44208,69803,FE,17348,CHRISTOPHERSEN INC*,Employer,44208,"Assurant, Inc.",20-Jul,2/26/2021,44206.0,"Assurant, Inc.",4000.0,-363.63,3636.37,0.0,0.0,0.0,0.0,0.0,0.0,0.0,3636.37,44208.0,Direct,,,View report (https://accesshub.pdc.wa.gov/node/69803),Financial institutions and insurance,various,various
85265,72300-44208,72300,FE,17348,CHRISTOPHERSEN INC*,Employer,44208,"Assurant, Inc.",20-Oct,2/26/2021,44206.0,"Assurant, Inc.",4000.0,-363.63,3636.37,0.0,0.0,0.0,0.0,0.0,0.0,0.0,3636.37,44208.0,Direct,,,View report (https://accesshub.pdc.wa.gov/node/72300),Financial institutions and insurance,various,various
85266,68088-46229,68088,FE,17581,GORDON THOMAS HONEYWELL GOV AFFAIRS*,Employer,46229,"Dun & Bradstreet, Inc.",20-May,2/26/2021,46228.0,"Dun & Bradstreet, Inc.",2500.0,0.0,2500.0,0.0,0.0,0.0,0.0,0.0,0.0,0.0,2500.0,46229.0,Direct,,,View report (https://accesshub.pdc.wa.gov/node/68088),State government,"workforce, tax, econ devel, software, operating budget",legislature
85267,68836-46229,68836,FE,17581,GORDON THOMAS HONEYWELL GOV AFFAIRS*,Employer,46229,"Dun & Bradstreet, Inc.",20-Jun,2/26/2021,46228.0,"Dun & Bradstreet, Inc.",2500.0,0.0,2500.0,0.0,0.0,0.0,0.0,0.0,0.0,0.0,2500.0,46229.0,Direct,,,View report (https://accesshub.pdc.wa.gov/node/68836),State government,"workforce, tax, econ devel, software, operating budget",legislature
85268,69694-46229,69694,FE,17581,GORDON THOMAS HONEYWELL GOV AFFAIRS*,Employer,46229,"Dun & Bradstreet, Inc.",20-Jul,2/26/2021,46228.0,"Dun & Bradstreet, Inc.",2500.0,0.0,2500.0,0.0,0.0,0.0,0.0,0.0,0.0,0.0,2500.0,46229.0,Direct,,,View report (https://accesshub.pdc.wa.gov/node/69694),State government,"workforce, tax, econ devel, software, operating budget",legislature
85269,70481-46229,70481,FE,17581,GORDON THOMAS HONEYWELL GOV AFFAIRS*,Employer,46229,"Dun & Bradstreet, Inc.",20-Aug,2/26/2021,46228.0,"Dun & Bradstreet, Inc.",2500.0,0.0,2500.0,0.0,0.0,0.0,0.0,0.0,0.0,0.0,2500.0,46229.0,Direct,,,View report (https://accesshub.pdc.wa.gov/node/70481),Technology,technology,legislature
85270,71317-46229,71317,FE,17581,GORDON THOMAS HONEYWELL GOV AFFAIRS*,Employer,46229,"Dun & Bradstreet, Inc.",20-Sep,2/26/2021,46228.0,"Dun & Bradstreet, Inc.",2500.0,0.0,2500.0,0.0,0.0,0.0,0.0,0.0,0.0,0.0,2500.0,46229.0,Direct,,,View report (https://accesshub.pdc.wa.gov/node/71317),Technology,technology,legislature
85271,72347-46229,72347,FE,17581,GORDON THOMAS HONEYWELL GOV AFFAIRS*,Employer,46229,"Dun & Bradstreet, Inc.",20-Oct,2/26/2021,46228.0,"Dun & Bradstreet, Inc.",2500.0,0.0,2500.0,0.0,0.0,0.0,0.0,0.0,0.0,0.0,2500.0,46229.0,Direct,,,View report (https://accesshub.pdc.wa.gov/node/72347),Technology,technology,legislature
85272,73068-46229,73068,FE,17581,GORDON THOMAS HONEYWELL GOV AFFAIRS*,Employer,46229,"Dun & Bradstreet, Inc.",20-Nov,2/26/2021,46228.0,"Dun & Bradstreet, Inc.",2500.0,0.0,2500.0,0.0,0.0,0.0,0.0,0.0,0.0,0.0,2500.0,46229.0,Direct,,,View report (https://accesshub.pdc.wa.gov/node/73068),Technology,technology,legislature
85273,74113-46229,74113,FE,17581,GORDON THOMAS HONEYWELL GOV AFFAIRS*,Employer,46229,"Dun & Bradstreet, Inc.",20-Dec,2/26/2021,46228.0,"Dun & Bradstreet, Inc.",2500.0,0.0,2500.0,0.0,0.0,0.0,0.0,0.0,0.0,0.0,2500.0,46229.0,Direct,,,View report (https://accesshub.pdc.wa.gov/node/74113),Technology,technology,legislature
85274,68088-46254,68088,FE,17581,GORDON THOMAS HONEYWELL GOV AFFAIRS*,Employer,46254,City of Bothell,20-May,2/26/2021,46253.0,City of Bothell,4635.0,0.0,4635.0,0.0,0.0,0.0,0.0,0.0,0.0,0.0,4635.0,46254.0,Direct,,,View report (https://accesshub.pdc.wa.gov/node/68088),Local government,"Transportation; Econ Dev, Local Law enforcment, Streamlined sales tax mitigation, other local gov issues",Legislature
85275,68836-46254,68836,FE,17581,GORDON THOMAS HONEYWELL GOV AFFAIRS*,Employer,46254,City of Bothell,20-Jun,2/26/2021,46253.0,City of Bothell,4635.0,0.0,4635.0,0.0,0.0,0.0,0.0,0.0,0.0,0.0,4635.0,46254.0,Direct,,,View report (https://accesshub.pdc.wa.gov/node/68836),Local government,"Transportation; Econ Dev, Local Law enforcment, Streamlined sales tax mitigation, other local gov issues",Legislature
85276,69694-46254,69694,FE,17581,GORDON THOMAS HONEYWELL GOV AFFAIRS*,Employer,46254,City of Bothell,20-Jul,2/26/2021,46253.0,City of Bothell,4635.0,0.0,4635.0,0.0,0.0,0.0,0.0,0.0,0.0,0.0,4635.0,46254.0,Direct,,,View report (https://accesshub.pdc.wa.gov/node/69694),Local government,"Transportation; Econ Dev, Local Law enforcment, Streamlined sales tax mitigation, other local gov issues",Legislature
85277,70481-46254,70481,FE,17581,GORDON THOMAS HONEYWELL GOV AFFAIRS*,Employer,46254,City of Bothell,20-Aug,2/26/2021,46253.0,City of Bothell,4635.0,0.0,4635.0,0.0,0.0,0.0,0.0,0.0,0.0,0.0,4635.0,46254.0,Direct,,,View report (https://accesshub.pdc.wa.gov/node/70481),Local government,"Transportation; Econ Dev, Local Law enforcment, Streamlined sales tax mitigation, other local gov issues",Legislature
85278,71317-46254,71317,FE,17581,GORDON THOMAS HONEYWELL GOV AFFAIRS*,Employer,46254,City of Bothell,20-Sep,2/26/2021,46253.0,City of Bothell,4635.0,0.0,4635.0,0.0,0.0,0.0,0.0,0.0,0.0,0.0,4635.0,46254.0,Direct,,,View report (https://accesshub.pdc.wa.gov/node/71317),Local government,"Transportation; Econ Dev, Local Law enforcment, Streamlined sales tax mitigation, other local gov issues",Legislature
85279,72347-46254,72347,FE,17581,GORDON THOMAS HONEYWELL GOV AFFAIRS*,Employer,46254,City of Bothell,20-Oct,2/26/2021,46253.0,City of Bothell,4635.0,0.0,4635.0,0.0,0.0,0.0,0.0,0.0,0.0,0.0,4635.0,46254.0,Direct,,,View report (https://accesshub.pdc.wa.gov/node/72347),Local government,"Transportation; Econ Dev, Local Law enforcment, Streamlined sales tax mitigation, other local gov issues",Legislature
85280,73068-46254,73068,FE,17581,GORDON THOMAS HONEYWELL GOV AFFAIRS*,Employer,46254,City of Bothell,20-Nov,2/26/2021,46253.0,City of Bothell,4635.0,0.0,4635.0,0.0,0.0,0.0,0.0,0.0,0.0,0.0,4635.0,46254.0,Direct,,,View report (https://accesshub.pdc.wa.gov/node/73068),Local government,"Transportation; Econ Dev, Local Law enforcment, Streamlined sales tax mitigation, other local gov issues",Legislature
85281,74113-46254,74113,FE,17581,GORDON THOMAS HONEYWELL GOV AFFAIRS*,Employer,46254,City of Bothell,20-Dec,2/26/2021,46253.0,City of Bothell,4635.0,0.0,4635.0,0.0,0.0,0.0,0.0,0.0,0.0,0.0,4635.0,46254.0,Direct,,,View report (https://accesshub.pdc.wa.gov/node/74113),Local government,"Transportation; Econ Dev, Local Law enforcment, Streamlined sales tax mitigation, other local gov issues",Legislature
85282,68088-48523,68088,FE,17581,GORDON THOMAS HONEYWELL GOV AFFAIRS*,Employer,48523,Port of Allyn,20-May,2/26/2021,48241.0,Port of Allyn,2378.0,0.0,2378.0,0.0,0.0,0.0,0.0,0.0,0.0,0.0,2378.0,48523.0,Direct,,,View report (https://accesshub.pdc.wa.gov/node/68088),State government,,legislature
85283,68836-48523,68836,FE,17581,GORDON THOMAS HONEYWELL GOV AFFAIRS*,Employer,48523,Port of Allyn,20-Jun,2/26/2021,48241.0,Port of Allyn,2378.0,0.0,2378.0,0.0,0.0,0.0,0.0,0.0,0.0,0.0,2378.0,48523.0,Direct,,,View report (https://accesshub.pdc.wa.gov/node/68836),State government,,legislature
