,id,report_number,origin,filer_id,filer_name,type,funding_source_id,funding_source_name,filing_period,receipt_date,employer_id,employer_name,compensation,sub_lobbyist_compensation,net_compensation,personal_expenses,entertainment,contributions,advertising,political_ads,other,total_expenses,net_total,employment_registration_id,employment_type,contractor_id,contractor_name,url,legislation_subject_matter,issue_bill_number,committee_lobbied
5,89456-75459,89456,FE,17543,H2 Government Relations,Employer,75459,CITY OF FEDERAL WAY,22-Feb,2/27/2023,16282,CITY OF FEDERAL WAY,3000.0,0.0,3000.0,0.0,0.0,0.0,0.0,0.0,0.0,0.0,3000.0,75459,Direct,,,View report (https://accesshub.pdc.wa.gov/node/89456),Local government,Local Gov't Committees,Local Gov't Committees
6,88576-19699,88576,FE,17996,STRATEGIES 360*,Employer,19699,CITY OF MARYSVILLE,22-Jan,2/27/2023,16298,CITY OF MARYSVILLE,12500.0,0.0,12500.0,0.0,0.0,0.0,0.0,0.0,0.0,0.0,12500.0,19699,Direct,,,View report (https://accesshub.pdc.wa.gov/node/88576),Transportation,Transportation Package funding,Transportation
7,90384-19699,90384,FE,17996,STRATEGIES 360*,Employer,19699,CITY OF MARYSVILLE,22-Feb,2/27/2023,16298,CITY OF MARYSVILLE,12500.0,0.0,12500.0,0.0,0.0,0.0,0.0,0.0,0.0,0.0,12500.0,19699,Direct,,,View report (https://accesshub.pdc.wa.gov/node/90384),Transportation,Transportation Package funding,Transportation
13,88576-48466,88576,FE,17996,STRATEGIES 360*,Employer,48466,CITY OF MONROE,22-Jan,2/27/2023,16299,CITY OF MONROE,4000.0,0.0,4000.0,0.0,0.0,0.0,0.0,0.0,0.0,0.0,4000.0,48466,Direct,,,View report (https://accesshub.pdc.wa.gov/node/88576),Local government,Local Gov issues,Local Government
14,90384-48466,90384,FE,17996,STRATEGIES 360*,Employer,48466,CITY OF MONROE,22-Feb,2/27/2023,16299,CITY OF MONROE,4000.0,0.0,4000.0,0.0,0.0,0.0,0.0,0.0,0.0,0.0,4000.0,48466,Direct,,,View report (https://accesshub.pdc.wa.gov/node/90384),Local government,Local Gov issues,Local Government
20,89456-18710,89456,FE,17543,H2 Government Relations,Employer,18710,City of Maple Valley,22-Feb,2/27/2023,16300,City of Maple Valley,3300.0,0.0,3300.0,0.0,0.0,0.0,0.0,0.0,0.0,0.0,3300.0,18710,Direct,,,View report (https://accesshub.pdc.wa.gov/node/89456),Local government,Transportation and Land Use,"H Local Government, S Gov Ops, H Trans, S Trans"
21,89456-49524,89456,FE,17543,H2 Government Relations,Employer,49524,CITY OF PUYALLUP,22-Feb,2/27/2023,16302,CITY OF PUYALLUP,2250.0,0.0,2250.0,0.0,0.0,0.0,0.0,0.0,0.0,0.0,2250.0,49524,Direct,,,View report (https://accesshub.pdc.wa.gov/node/89456),,,
22,88328-81716,88328,FE,81702,JH Consulting,Employer,81716,THE COLLEGE BOARD (CHRISTOPHERSEN INC*),22-Jan,2/27/2023,16334,THE COLLEGE BOARD,229.16,0.0,229.16,0.0,0.0,0.0,0.0,0.0,0.0,0.0,229.16,81716,Subcontract,17348.0,CHRISTOPHERSEN INC*,View report (https://accesshub.pdc.wa.gov/node/88328),,,
23,90188-81716,90188,FE,81702,JH Consulting,Employer,81716,THE COLLEGE BOARD (CHRISTOPHERSEN INC*),22-Feb,2/27/2023,16334,THE COLLEGE BOARD,229.16,0.0,229.16,0.0,0.0,0.0,0.0,0.0,0.0,0.0,229.16,81716,Subcontract,17348.0,CHRISTOPHERSEN INC*,View report (https://accesshub.pdc.wa.gov/node/90188),,,
24,95187-73123,95187,FE,18008,Eileen Sullivan,Employer,73123,COMCAST CABLE COMMUNICATIONS,22-Aug,2/27/2023,16344,COMCAST CABLE COMMUNICATIONS,8000.0,0.0,8000.0,0.0,0.0,0.0,0.0,0.0,0.0,0.0,8000.0,73123,Direct,,,View report (https://accesshub.pdc.wa.gov/node/95187),Technology,Privacy,"H Innovation, Technology & Economic Development, S Environment, Energy & Technology"
25,89456-18711,89456,FE,17543,H2 Government Relations,Employer,18711,COMMUNITY ASSOC INSTITUTE,22-Feb,2/27/2023,16346,COMMUNITY ASSOC INSTITUTE,3750.0,0.0,3750.0,0.0,0.0,0.0,0.0,0.0,0.0,0.0,3750.0,18711,Direct,,,View report (https://accesshub.pdc.wa.gov/node/89456),Business and consumer affairs,Condo and Homeowner,"House Judiciary, Senate FII, Ways & Means, Senate Judiciary"
26,88576-62476,88576,FE,17996,STRATEGIES 360*,Employer,62476,COMPASS HEALTH,22-Jan,2/27/2023,16353,COMPASS HEALTH,6500.0,0.0,6500.0,0.0,0.0,0.0,0.0,0.0,0.0,0.0,6500.0,62476,Direct,,,View report (https://accesshub.pdc.wa.gov/node/88576),Health Care,"HB 1735, HB 2053, HB 1865",Behavioral Health
27,90384-62476,90384,FE,17996,STRATEGIES 360*,Employer,62476,COMPASS HEALTH,22-Feb,2/27/2023,16353,COMPASS HEALTH,6500.0,0.0,6500.0,0.0,0.0,0.0,0.0,0.0,0.0,0.0,6500.0,62476,Direct,,,View report (https://accesshub.pdc.wa.gov/node/90384),Health Care,"HB 1735, HB 2053, HB 1865",Behavioral Health
33,88576-38853,88576,FE,17996,STRATEGIES 360*,Employer,38853,C-TRAN,22-Jan,2/27/2023,16375,C-TRAN,4000.0,0.0,4000.0,0.0,0.0,0.0,0.0,0.0,0.0,0.0,4000.0,38853,Direct,,,View report (https://accesshub.pdc.wa.gov/node/88576),Fiscal,Bus Rapid Transit,Transportation / Capital
34,90384-38853,90384,FE,17996,STRATEGIES 360*,Employer,38853,C-TRAN,22-Feb,2/27/2023,16375,C-TRAN,4000.0,0.0,4000.0,0.0,0.0,0.0,0.0,0.0,0.0,0.0,4000.0,38853,Direct,,,View report (https://accesshub.pdc.wa.gov/node/90384),Fiscal,Bus Rapid Transit,Transportation / Capital
40,89456-18712,89456,FE,17543,H2 Government Relations,Employer,18712,DAYBREAK YOUTH SERVICES,22-Feb,2/27/2023,16381,DAYBREAK YOUTH SERVICES,2300.0,0.0,2300.0,0.0,0.0,0.0,0.0,0.0,0.0,0.0,2300.0,18712,Direct,,,View report (https://accesshub.pdc.wa.gov/node/89456),Health Care,Health Care,"H Health Care, S Health Care"
41,95187-73988,95187,FE,18008,Eileen Sullivan,Employer,73988,"Meta Platforms, Inc.",22-Aug,2/27/2023,16430,"Meta Platforms, Inc.",6250.0,0.0,6250.0,0.0,0.0,0.0,0.0,0.0,0.0,0.0,6250.0,73988,Direct,,,View report (https://accesshub.pdc.wa.gov/node/95187),Technology,Privacy,"H Innovation, Technology & Economic Development, S Environment, Energy & Technology"
42,88576-19701,88576,FE,17996,STRATEGIES 360*,Employer,19701,GRANT PUD,22-Jan,2/27/2023,16481,GRANT PUD,3500.0,0.0,3500.0,0.0,0.0,0.0,0.0,0.0,0.0,0.0,3500.0,19701,Direct,,,View report (https://accesshub.pdc.wa.gov/node/88576),,,
43,90384-19701,90384,FE,17996,STRATEGIES 360*,Employer,19701,GRANT PUD,22-Feb,2/27/2023,16481,GRANT PUD,7000.0,0.0,7000.0,0.0,0.0,0.0,0.0,0.0,0.0,0.0,7000.0,19701,Direct,,,View report (https://accesshub.pdc.wa.gov/node/90384),,,
49,91152-18285,91152,FE,17398,BOSWELL CONSULTING*,Employer,18285,GREATER SEATTLE CHAMBER OF COMMERCE,22-Mar,2/27/2023,16483,GREATER SEATTLE CHAMBER OF COMMERCE,6250.0,-560.48,5689.52,86.96,0.0,0.0,0.0,0.0,0.0,86.96,5776.48,18285,Direct,,,View report (https://accesshub.pdc.wa.gov/node/91152),Local government,various,various
50,92153-18285,92153,FE,17398,BOSWELL CONSULTING*,Employer,18285,GREATER SEATTLE CHAMBER OF COMMERCE,22-Apr,2/27/2023,16483,GREATER SEATTLE CHAMBER OF COMMERCE,6250.0,-560.48,5689.52,0.0,0.0,0.0,0.0,0.0,0.0,0.0,5689.52,18285,Direct,,,View report (https://accesshub.pdc.wa.gov/node/92153),Local government,various,various
51,88328-81725,88328,FE,81702,JH Consulting,Employer,81725,GREATER SEATTLE CHAMBER OF COMMERCE (BOSWELL CONSULTING*),22-Jan,2/27/2023,16483,GREATER SEATTLE CHAMBER OF COMMERCE,200.0,0.0,200.0,0.0,0.0,0.0,0.0,0.0,0.0,0.0,200.0,81725,Subcontract,17398.0,BOSWELL CONSULTING*,View report (https://accesshub.pdc.wa.gov/node/88328),,,
52,90188-81725,90188,FE,81702,JH Consulting,Employer,81725,GREATER SEATTLE CHAMBER OF COMMERCE (BOSWELL CONSULTING*),22-Feb,2/27/2023,16483,GREATER SEATTLE CHAMBER OF COMMERCE,200.0,0.0,200.0,0.0,0.0,0.0,0.0,0.0,0.0,0.0,200.0,81725,Subcontract,17398.0,BOSWELL CONSULTING*,View report (https://accesshub.pdc.wa.gov/node/90188),,,
53,88328-81718,88328,FE,81702,JH Consulting,Employer,81718,HAMPTON TREE FARMS LLC (CHRISTOPHERSEN INC*),22-Jan,2/27/2023,16490,HAMPTON TREE FARMS LLC,229.16,0.0,229.16,0.0,0.0,0.0,0.0,0.0,0.0,0.0,229.16,81718,Subcontract,17348.0,CHRISTOPHERSEN INC*,View report (https://accesshub.pdc.wa.gov/node/88328),,,
54,90188-81718,90188,FE,81702,JH Consulting,Employer,81718,HAMPTON TREE FARMS LLC (CHRISTOPHERSEN INC*),22-Feb,2/27/2023,16490,HAMPTON TREE FARMS LLC,229.16,0.0,229.16,0.0,0.0,0.0,0.0,0.0,0.0,0.0,229.16,81718,Subcontract,17348.0,CHRISTOPHERSEN INC*,View report (https://accesshub.pdc.wa.gov/node/90188),,,
55,88576-19703,88576,FE,17996,STRATEGIES 360*,Employer,19703,Jefferson County,22-Jan,2/27/2023,16558,Jefferson County,5600.0,0.0,5600.0,0.0,0.0,0.0,0.0,0.0,0.0,0.0,5600.0,19703,Direct,,,View report (https://accesshub.pdc.wa.gov/node/88576),Fiscal,HB 1333,Fiscal
56,90384-19703,90384,FE,17996,STRATEGIES 360*,Employer,19703,Jefferson County,22-Feb,2/27/2023,16558,Jefferson County,7600.0,0.0,7600.0,0.0,0.0,0.0,0.0,0.0,0.0,0.0,7600.0,19703,Direct,,,View report (https://accesshub.pdc.wa.gov/node/90384),Fiscal,HB 1333,Fiscal
62,95187-73541,95187,FE,18008,Eileen Sullivan,Employer,73541,"McLANE COMPANY, Inc.",22-Aug,2/27/2023,16626,"McLANE COMPANY, Inc.",3500.0,0.0,3500.0,0.0,0.0,0.0,0.0,0.0,0.0,0.0,3500.0,73541,Direct,,,View report (https://accesshub.pdc.wa.gov/node/95187),Business and consumer affairs,Labor / Tax,All House Senate
63,88328-81713,88328,FE,81702,JH Consulting,Employer,81713,MERCK SHARP & DOHME LLC & AFFILIATES (CHRISTOPHERSEN INC*),22-Jan,2/27/2023,16632,MERCK SHARP & DOHME LLC & AFFILIATES,229.16,0.0,229.16,0.0,0.0,0.0,0.0,0.0,0.0,0.0,229.16,81713,Subcontract,17348.0,CHRISTOPHERSEN INC*,View report (https://accesshub.pdc.wa.gov/node/88328),,,
64,90188-81713,90188,FE,81702,JH Consulting,Employer,81713,MERCK SHARP & DOHME LLC & AFFILIATES (CHRISTOPHERSEN INC*),22-Feb,2/27/2023,16632,MERCK SHARP & DOHME LLC & AFFILIATES,229.16,0.0,229.16,0.0,0.0,0.0,0.0,0.0,0.0,0.0,229.16,81713,Subcontract,17348.0,CHRISTOPHERSEN INC*,View report (https://accesshub.pdc.wa.gov/node/90188),,,
65,89456-29219,89456,FE,17543,H2 Government Relations,Employer,29219,MUCKLESHOOT INDIAN TRIBE,22-Feb,2/27/2023,16650,MUCKLESHOOT INDIAN TRIBE,7416.66,0.0,7416.66,0.0,0.0,0.0,0.0,0.0,0.0,0.0,7416.66,29219,Direct,,,View report (https://accesshub.pdc.wa.gov/node/89456),Local government,Natural Resources,"Senate Natural Resources & Parks, House Environment, Senate Agriculture, Water & Rural Economic Development"
66,88328-81726,88328,FE,81702,JH Consulting,Employer,81726,NORTHWEST AUTOMATIC VENDING ASSN (BOSWELL CONSULTING*),22-Jan,2/27/2023,16699,NORTHWEST AUTOMATIC VENDING ASSN,200.0,0.0,200.0,0.0,0.0,0.0,0.0,0.0,0.0,0.0,200.0,81726,Subcontract,17398.0,BOSWELL CONSULTING*,View report (https://accesshub.pdc.wa.gov/node/88328),,,
67,90188-81726,90188,FE,81702,JH Consulting,Employer,81726,NORTHWEST AUTOMATIC VENDING ASSN (BOSWELL CONSULTING*),22-Feb,2/27/2023,16699,NORTHWEST AUTOMATIC VENDING ASSN,200.0,0.0,200.0,0.0,0.0,0.0,0.0,0.0,0.0,0.0,200.0,81726,Subcontract,17398.0,BOSWELL CONSULTING*,View report (https://accesshub.pdc.wa.gov/node/90188),,,
68,88328-81714,88328,FE,81702,JH Consulting,Employer,81714,NORTHWEST KIDNEY CENTERS (CHRISTOPHERSEN INC*),22-Jan,2/27/2023,16711,NORTHWEST KIDNEY CENTERS,229.16,0.0,229.16,0.0,0.0,0.0,0.0,0.0,0.0,0.0,229.16,81714,Subcontract,17348.0,CHRISTOPHERSEN INC*,View report (https://accesshub.pdc.wa.gov/node/88328),,,
69,90188-81714,90188,FE,81702,JH Consulting,Employer,81714,NORTHWEST KIDNEY CENTERS (CHRISTOPHERSEN INC*),22-Feb,2/27/2023,16711,NORTHWEST KIDNEY CENTERS,229.16,0.0,229.16,0.0,0.0,0.0,0.0,0.0,0.0,0.0,229.16,81714,Subcontract,17348.0,CHRISTOPHERSEN INC*,View report (https://accesshub.pdc.wa.gov/node/90188),,,
70,91152-18288,91152,FE,17398,BOSWELL CONSULTING*,Employer,18288,NUCOR STEEL SEATTLE INC,22-Mar,2/27/2023,16727,NUCOR STEEL SEATTLE INC,5000.0,-560.43,4439.57,0.0,0.0,0.0,0.0,0.0,0.0,0.0,4439.57,18288,Direct,,,View report (https://accesshub.pdc.wa.gov/node/91152),Business and consumer affairs,various,various
71,92153-18288,92153,FE,17398,BOSWELL CONSULTING*,Employer,18288,NUCOR STEEL SEATTLE INC,22-Apr,2/27/2023,16727,NUCOR STEEL SEATTLE INC,5000.0,-560.43,4439.57,0.0,0.0,0.0,0.0,0.0,0.0,0.0,4439.57,18288,Direct,,,View report (https://accesshub.pdc.wa.gov/node/92153),Business and consumer affairs,various,various
72,88328-81727,88328,FE,81702,JH Consulting,Employer,81727,NUCOR STEEL SEATTLE INC (BOSWELL CONSULTING*),22-Jan,2/27/2023,16727,NUCOR STEEL SEATTLE INC,200.0,0.0,200.0,0.0,0.0,0.0,0.0,0.0,0.0,0.0,200.0,81727,Subcontract,17398.0,BOSWELL CONSULTING*,View report (https://accesshub.pdc.wa.gov/node/88328),,,
73,90188-81727,90188,FE,81702,JH Consulting,Employer,81727,NUCOR STEEL SEATTLE INC (BOSWELL CONSULTING*),22-Feb,2/27/2023,16727,NUCOR STEEL SEATTLE INC,200.0,0.0,200.0,0.0,0.0,0.0,0.0,0.0,0.0,0.0,200.0,81727,Subcontract,17398.0,BOSWELL CONSULTING*,View report (https://accesshub.pdc.wa.gov/node/90188),,,
74,88328-81715,88328,FE,81702,JH Consulting,Employer,81715,Pediatrix Medical Group (CHRISTOPHERSEN INC*),22-Jan,2/27/2023,16769,Pediatrix Medical Group,229.16,0.0,229.16,0.0,0.0,0.0,0.0,0.0,0.0,0.0,229.16,81715,Subcontract,17348.0,CHRISTOPHERSEN INC*,View report (https://accesshub.pdc.wa.gov/node/88328),,,
75,90188-81715,90188,FE,81702,JH Consulting,Employer,81715,Pediatrix Medical Group (CHRISTOPHERSEN INC*),22-Feb,2/27/2023,16769,Pediatrix Medical Group,229.16,0.0,229.16,0.0,0.0,0.0,0.0,0.0,0.0,0.0,229.16,81715,Subcontract,17348.0,CHRISTOPHERSEN INC*,View report (https://accesshub.pdc.wa.gov/node/90188),,,
76,91152-18289,91152,FE,17398,BOSWELL CONSULTING*,Employer,18289,MC Construction,22-Mar,2/27/2023,16790,MC Construction,3000.0,-560.43,2439.57,0.0,0.0,0.0,0.0,0.0,0.0,0.0,2439.57,18289,Direct,,,View report (https://accesshub.pdc.wa.gov/node/91152),Business and consumer affairs,various,various
77,92153-18289,92153,FE,17398,BOSWELL CONSULTING*,Employer,18289,MC Construction,22-Apr,2/27/2023,16790,MC Construction,3000.0,-560.43,2439.57,0.0,0.0,0.0,0.0,0.0,0.0,0.0,2439.57,18289,Direct,,,View report (https://accesshub.pdc.wa.gov/node/92153),Business and consumer affairs,various,various
78,88328-81729,88328,FE,81702,JH Consulting,Employer,81729,MC Construction (BOSWELL CONSULTING*),22-Jan,2/27/2023,16790,MC Construction,200.0,0.0,200.0,0.0,0.0,0.0,0.0,0.0,0.0,0.0,200.0,81729,Subcontract,17398.0,BOSWELL CONSULTING*,View report (https://accesshub.pdc.wa.gov/node/88328),,,
79,90188-81729,90188,FE,81702,JH Consulting,Employer,81729,MC Construction (BOSWELL CONSULTING*),22-Feb,2/27/2023,16790,MC Construction,200.0,0.0,200.0,0.0,0.0,0.0,0.0,0.0,0.0,0.0,200.0,81729,Subcontract,17398.0,BOSWELL CONSULTING*,View report (https://accesshub.pdc.wa.gov/node/90188),,,
80,89456-67024,89456,FE,17543,H2 Government Relations,Employer,67024,PORT OF EVERETT,22-Feb,2/27/2023,16797,PORT OF EVERETT,3500.0,0.0,3500.0,0.0,0.0,0.0,0.0,0.0,0.0,0.0,3500.0,67024,Direct,,,View report (https://accesshub.pdc.wa.gov/node/89456),,,
81,91152-49202,91152,FE,17398,BOSWELL CONSULTING*,Employer,49202,PORT OF KALAMA,22-Mar,2/27/2023,16800,PORT OF KALAMA,2500.0,-560.43,1939.57,0.0,0.0,0.0,0.0,0.0,0.0,0.0,1939.57,49202,Direct,,,View report (https://accesshub.pdc.wa.gov/node/91152),Transportation,various,various
82,92153-49202,92153,FE,17398,BOSWELL CONSULTING*,Employer,49202,PORT OF KALAMA,22-Apr,2/27/2023,16800,PORT OF KALAMA,2500.0,-560.43,1939.57,0.0,0.0,0.0,0.0,0.0,0.0,0.0,1939.57,49202,Direct,,,View report (https://accesshub.pdc.wa.gov/node/92153),Transportation,various,various
83,88328-81736,88328,FE,81702,JH Consulting,Employer,81736,PORT OF KALAMA (BOSWELL CONSULTING*),22-Jan,2/27/2023,16800,PORT OF KALAMA,200.0,0.0,200.0,0.0,0.0,0.0,0.0,0.0,0.0,0.0,200.0,81736,Subcontract,17398.0,BOSWELL CONSULTING*,View report (https://accesshub.pdc.wa.gov/node/88328),,,
84,90188-81736,90188,FE,81702,JH Consulting,Employer,81736,PORT OF KALAMA (BOSWELL CONSULTING*),22-Feb,2/27/2023,16800,PORT OF KALAMA,200.0,0.0,200.0,0.0,0.0,0.0,0.0,0.0,0.0,0.0,200.0,81736,Subcontract,17398.0,BOSWELL CONSULTING*,View report (https://accesshub.pdc.wa.gov/node/90188),,,
85,95187-89470,95187,FE,18008,Eileen Sullivan,Employer,89470,PROLIANCE SURGEONS,22-Aug,2/27/2023,16817,PROLIANCE SURGEONS,5000.0,0.0,5000.0,0.0,0.0,0.0,0.0,0.0,0.0,0.0,5000.0,89470,Direct,,,View report (https://accesshub.pdc.wa.gov/node/95187),,,
86,91152-40845,91152,FE,17398,BOSWELL CONSULTING*,Employer,40845,PEACEHEALTH,22-Mar,2/27/2023,16934,PEACEHEALTH,10000.0,-560.51,9439.49,0.0,0.0,0.0,0.0,0.0,0.0,0.0,9439.49,40845,Direct,,,View report (https://accesshub.pdc.wa.gov/node/91152),Health Care,various,various
87,92153-40845,92153,FE,17398,BOSWELL CONSULTING*,Employer,40845,PEACEHEALTH,22-Apr,2/27/2023,16934,PEACEHEALTH,10000.0,-560.51,9439.49,0.0,0.0,0.0,0.0,0.0,0.0,0.0,9439.49,40845,Direct,,,View report (https://accesshub.pdc.wa.gov/node/92153),Health Care,various,various
88,88328-81728,88328,FE,81702,JH Consulting,Employer,81728,PEACEHEALTH (BOSWELL CONSULTING*),22-Jan,2/27/2023,16934,PEACEHEALTH,200.0,0.0,200.0,0.0,0.0,0.0,0.0,0.0,0.0,0.0,200.0,81728,Subcontract,17398.0,BOSWELL CONSULTING*,View report (https://accesshub.pdc.wa.gov/node/88328),,,
89,90188-81728,90188,FE,81702,JH Consulting,Employer,81728,PEACEHEALTH (BOSWELL CONSULTING*),22-Feb,2/27/2023,16934,PEACEHEALTH,200.0,0.0,200.0,0.0,0.0,0.0,0.0,0.0,0.0,0.0,200.0,81728,Subcontract,17398.0,BOSWELL CONSULTING*,View report (https://accesshub.pdc.wa.gov/node/90188),,,
90,89456-18716,89456,FE,17543,H2 Government Relations,Employer,18716,GREATER SPOKANE INC,22-Feb,2/27/2023,16938,GREATER SPOKANE INC,6000.0,0.0,6000.0,0.0,0.0,0.0,0.0,0.0,0.0,0.0,6000.0,18716,Direct,,,View report (https://accesshub.pdc.wa.gov/node/89456),Higher education,"Capital, Higher Education","H Cap, H Approps, H Finance, S W&M, H Higher Ed, S Higher Ed"
91,88328-81722,88328,FE,81702,JH Consulting,Employer,81722,"STAND FOR CHILDREN, INC. (CHRISTOPHERSEN INC*)",22-Jan,2/27/2023,16949,"STAND FOR CHILDREN, INC.",250.0,0.0,250.0,0.0,0.0,0.0,0.0,0.0,0.0,0.0,250.0,81722,Subcontract,17348.0,CHRISTOPHERSEN INC*,View report (https://accesshub.pdc.wa.gov/node/88328),,,
92,90188-81722,90188,FE,81702,JH Consulting,Employer,81722,"STAND FOR CHILDREN, INC. (CHRISTOPHERSEN INC*)",22-Feb,2/27/2023,16949,"STAND FOR CHILDREN, INC.",250.0,0.0,250.0,0.0,0.0,0.0,0.0,0.0,0.0,0.0,250.0,81722,Subcontract,17348.0,CHRISTOPHERSEN INC*,View report (https://accesshub.pdc.wa.gov/node/90188),,,
93,88576-19711,88576,FE,17996,STRATEGIES 360*,Employer,19711,TULALIP TRIBES OF WA,22-Jan,2/27/2023,16997,TULALIP TRIBES OF WA,7500.0,0.0,7500.0,0.0,0.0,0.0,0.0,0.0,0.0,0.0,7500.0,19711,Direct,,,View report (https://accesshub.pdc.wa.gov/node/88576),Environmental Affairs - natural resources - parks,HB 1753,Environment
94,90384-19711,90384,FE,17996,STRATEGIES 360*,Employer,19711,TULALIP TRIBES OF WA,22-Feb,2/27/2023,16997,TULALIP TRIBES OF WA,7500.0,0.0,7500.0,0.0,0.0,0.0,0.0,0.0,0.0,0.0,7500.0,19711,Direct,,,View report (https://accesshub.pdc.wa.gov/node/90384),Environmental Affairs - natural resources - parks,HB 1753,Environment
100,91152-18291,91152,FE,17398,BOSWELL CONSULTING*,Employer,18291,Uber Technologies Inc and Affiliates,22-Mar,2/27/2023,17001,Uber Technologies Inc and Affiliates,6750.0,-560.43,6189.57,0.0,0.0,0.0,0.0,0.0,0.0,0.0,6189.57,18291,Direct,,,View report (https://accesshub.pdc.wa.gov/node/91152),Transportation,various,various
101,92153-18291,92153,FE,17398,BOSWELL CONSULTING*,Employer,18291,Uber Technologies Inc and Affiliates,22-Apr,2/27/2023,17001,Uber Technologies Inc and Affiliates,6750.0,-560.43,6189.57,0.0,0.0,0.0,0.0,0.0,0.0,0.0,6189.57,18291,Direct,,,View report (https://accesshub.pdc.wa.gov/node/92153),Transportation,various,various
102,88328-81731,88328,FE,81702,JH Consulting,Employer,81731,Uber Technologies Inc and Affiliates (BOSWELL CONSULTING*),22-Jan,2/27/2023,17001,Uber Technologies Inc and Affiliates,200.0,0.0,200.0,0.0,0.0,0.0,0.0,0.0,0.0,0.0,200.0,81731,Subcontract,17398.0,BOSWELL CONSULTING*,View report (https://accesshub.pdc.wa.gov/node/88328),,,
103,90188-81731,90188,FE,81702,JH Consulting,Employer,81731,Uber Technologies Inc and Affiliates (BOSWELL CONSULTING*),22-Feb,2/27/2023,17001,Uber Technologies Inc and Affiliates,200.0,0.0,200.0,0.0,0.0,0.0,0.0,0.0,0.0,0.0,200.0,81731,Subcontract,17398.0,BOSWELL CONSULTING*,View report (https://accesshub.pdc.wa.gov/node/90188),,,
104,91152-28159,91152,FE,17398,BOSWELL CONSULTING*,Employer,28159,VALLEY MEDICAL CENTER,22-Mar,2/27/2023,17027,VALLEY MEDICAL CENTER,7000.0,-560.43,6439.57,0.0,0.0,0.0,0.0,0.0,0.0,0.0,6439.57,28159,Direct,,,View report (https://accesshub.pdc.wa.gov/node/91152),Health Care,various,various
105,92153-28159,92153,FE,17398,BOSWELL CONSULTING*,Employer,28159,VALLEY MEDICAL CENTER,22-Apr,2/27/2023,17027,VALLEY MEDICAL CENTER,7000.0,-560.43,6439.57,0.0,0.0,0.0,0.0,0.0,0.0,0.0,6439.57,28159,Direct,,,View report (https://accesshub.pdc.wa.gov/node/92153),Health Care,various,various
106,88328-81732,88328,FE,81702,JH Consulting,Employer,81732,VALLEY MEDICAL CENTER (BOSWELL CONSULTING*),22-Jan,2/27/2023,17027,VALLEY MEDICAL CENTER,200.0,0.0,200.0,0.0,0.0,0.0,0.0,0.0,0.0,0.0,200.0,81732,Subcontract,17398.0,BOSWELL CONSULTING*,View report (https://accesshub.pdc.wa.gov/node/88328),,,
107,90188-81732,90188,FE,81702,JH Consulting,Employer,81732,VALLEY MEDICAL CENTER (BOSWELL CONSULTING*),22-Feb,2/27/2023,17027,VALLEY MEDICAL CENTER,200.0,0.0,200.0,0.0,0.0,0.0,0.0,0.0,0.0,0.0,200.0,81732,Subcontract,17398.0,BOSWELL CONSULTING*,View report (https://accesshub.pdc.wa.gov/node/90188),,,
108,91152-18292,91152,FE,17398,BOSWELL CONSULTING*,Employer,18292,VIGOR INDUSTRIAL,22-Mar,2/27/2023,17035,VIGOR INDUSTRIAL,5500.0,-560.43,4939.57,0.0,0.0,0.0,0.0,0.0,0.0,0.0,4939.57,18292,Direct,,,View report (https://accesshub.pdc.wa.gov/node/91152),Business and consumer affairs,various,various
109,92153-18292,92153,FE,17398,BOSWELL CONSULTING*,Employer,18292,VIGOR INDUSTRIAL,22-Apr,2/27/2023,17035,VIGOR INDUSTRIAL,5500.0,-560.43,4939.57,0.0,0.0,0.0,0.0,0.0,0.0,0.0,4939.57,18292,Direct,,,View report (https://accesshub.pdc.wa.gov/node/92153),Business and consumer affairs,various,various
110,88328-81733,88328,FE,81702,JH Consulting,Employer,81733,VIGOR INDUSTRIAL (BOSWELL CONSULTING*),22-Jan,2/27/2023,17035,VIGOR INDUSTRIAL,200.0,0.0,200.0,0.0,0.0,0.0,0.0,0.0,0.0,0.0,200.0,81733,Subcontract,17398.0,BOSWELL CONSULTING*,View report (https://accesshub.pdc.wa.gov/node/88328),,,
111,90188-81733,90188,FE,81702,JH Consulting,Employer,81733,VIGOR INDUSTRIAL (BOSWELL CONSULTING*),22-Feb,2/27/2023,17035,VIGOR INDUSTRIAL,200.0,0.0,200.0,0.0,0.0,0.0,0.0,0.0,0.0,0.0,200.0,81733,Subcontract,17398.0,BOSWELL CONSULTING*,View report (https://accesshub.pdc.wa.gov/node/90188),,,
112,89456-85029,89456,FE,17543,H2 Government Relations,Employer,85029,VIRGINIA MASON FRANCISCAN HEALTH,22-Feb,2/27/2023,17037,VIRGINIA MASON FRANCISCAN HEALTH,3750.0,0.0,3750.0,0.0,0.0,0.0,0.0,0.0,0.0,0.0,3750.0,85029,Direct,,,View report (https://accesshub.pdc.wa.gov/node/89456),Health Care,Health Care,All House Senate Healthcare
113,89456-18717,89456,FE,17543,H2 Government Relations,Employer,18717,WALGREENS,22-Feb,2/27/2023,17040,WALGREENS,4750.0,0.0,4750.0,0.0,0.0,0.0,0.0,0.0,0.0,0.0,4750.0,18717,Direct,,,View report (https://accesshub.pdc.wa.gov/node/89456),Health Care,Health Care,"H Health Care, S Health Care"
114,88576-55581,88576,FE,17996,STRATEGIES 360*,Employer,55581,WA AMBULANCE ASSN,22-Jan,2/27/2023,17045,WA AMBULANCE ASSN,5000.0,0.0,5000.0,0.0,0.0,0.0,0.0,0.0,0.0,0.0,5000.0,55581,Direct,,,View report (https://accesshub.pdc.wa.gov/node/88576),Health Care,"HB 1688, SB 5900, HB 1735, HB 1893, HB 1868, HB 1703",Health Care
115,90384-55581,90384,FE,17996,STRATEGIES 360*,Employer,55581,WA AMBULANCE ASSN,22-Feb,2/27/2023,17045,WA AMBULANCE ASSN,5000.0,0.0,5000.0,0.0,0.0,0.0,0.0,0.0,0.0,0.0,5000.0,55581,Direct,,,View report (https://accesshub.pdc.wa.gov/node/90384),Health Care,"HB 1688, SB 5900, HB 1735, HB 1893, HB 1868, HB 1703",Health Care
121,88328-81717,88328,FE,81702,JH Consulting,Employer,81717,WA CANNABUSINESS ASSN (CHRISTOPHERSEN INC*),22-Jan,2/27/2023,17073,WA CANNABUSINESS ASSN,229.24,0.0,229.24,0.0,0.0,0.0,0.0,0.0,0.0,0.0,229.24,81717,Subcontract,17348.0,CHRISTOPHERSEN INC*,View report (https://accesshub.pdc.wa.gov/node/88328),,,
122,90188-81717,90188,FE,81702,JH Consulting,Employer,81717,WA CANNABUSINESS ASSN (CHRISTOPHERSEN INC*),22-Feb,2/27/2023,17073,WA CANNABUSINESS ASSN,229.24,0.0,229.24,0.0,0.0,0.0,0.0,0.0,0.0,0.0,229.24,81717,Subcontract,17348.0,CHRISTOPHERSEN INC*,View report (https://accesshub.pdc.wa.gov/node/90188),,,
123,91152-18293,91152,FE,17398,BOSWELL CONSULTING*,Employer,18293,CLEANTECH ALLIANCE,22-Mar,2/27/2023,17088,CLEANTECH ALLIANCE,4000.0,-560.43,3439.57,0.0,0.0,0.0,0.0,0.0,0.0,0.0,3439.57,18293,Direct,,,View report (https://accesshub.pdc.wa.gov/node/91152),Energy and utilities,various,various
124,92153-18293,92153,FE,17398,BOSWELL CONSULTING*,Employer,18293,CLEANTECH ALLIANCE,22-Apr,2/27/2023,17088,CLEANTECH ALLIANCE,4000.0,-560.43,3439.57,0.0,0.0,0.0,0.0,0.0,0.0,0.0,3439.57,18293,Direct,,,View report (https://accesshub.pdc.wa.gov/node/92153),Energy and utilities,various,various
125,88328-81724,88328,FE,81702,JH Consulting,Employer,81724,CLEANTECH ALLIANCE (BOSWELL CONSULTING*),22-Jan,2/27/2023,17088,CLEANTECH ALLIANCE,200.0,0.0,200.0,0.0,0.0,0.0,0.0,0.0,0.0,0.0,200.0,81724,Subcontract,17398.0,BOSWELL CONSULTING*,View report (https://accesshub.pdc.wa.gov/node/88328),,,
126,90188-81724,90188,FE,81702,JH Consulting,Employer,81724,CLEANTECH ALLIANCE (BOSWELL CONSULTING*),22-Feb,2/27/2023,17088,CLEANTECH ALLIANCE,200.0,0.0,200.0,0.0,0.0,0.0,0.0,0.0,0.0,0.0,200.0,81724,Subcontract,17398.0,BOSWELL CONSULTING*,View report (https://accesshub.pdc.wa.gov/node/90188),,,
128,102234-45495,102234,FE,44808,Taylor Consulting LLC,Employer,45495,WA ASSN FOR CAREER & TECHNICAL EDUCATION,23-Jan,2/27/2023,17089,WA ASSN FOR CAREER & TECHNICAL EDUCATION,2000.0,0.0,2000.0,0.0,0.0,0.0,0.0,0.0,0.0,0.0,2000.0,45495,Direct,,,View report (https://accesshub.pdc.wa.gov/node/102234),,,
129,89456-18718,89456,FE,17543,H2 Government Relations,Employer,18718,WA DISTILLERS GUILD,22-Feb,2/27/2023,17095,WA DISTILLERS GUILD,1500.0,0.0,1500.0,0.0,0.0,0.0,0.0,0.0,0.0,0.0,1500.0,18718,Direct,,,View report (https://accesshub.pdc.wa.gov/node/89456),Fiscal,Distilling,"House Commerce, Senate Ways & Means"
130,89456-18719,89456,FE,17543,H2 Government Relations,Employer,18719,Washington Multi Family Housing Association,22-Feb,2/27/2023,17149,Washington Multi Family Housing Association,8000.0,0.0,8000.0,0.0,0.0,0.0,0.0,0.0,0.0,0.0,8000.0,18719,Direct,,,View report (https://accesshub.pdc.wa.gov/node/89456),Business and consumer affairs,Landlord Tenant Act,"House Judiciary, House CTHTA, Senate FII, S Ways & Means"
131,88576-49599,88576,FE,17996,STRATEGIES 360*,Employer,49599,WA POISON CENTER,22-Jan,2/27/2023,17166,WA POISON CENTER,3000.0,0.0,3000.0,0.0,0.0,0.0,0.0,0.0,0.0,0.0,3000.0,49599,Direct,,,View report (https://accesshub.pdc.wa.gov/node/88576),Health Care,"Operating Budget, SB 5796",Health Care Committees and Fiscal
132,90384-49599,90384,FE,17996,STRATEGIES 360*,Employer,49599,WA POISON CENTER,22-Feb,2/27/2023,17166,WA POISON CENTER,3000.0,0.0,3000.0,0.0,0.0,0.0,0.0,0.0,0.0,0.0,3000.0,49599,Direct,,,View report (https://accesshub.pdc.wa.gov/node/90384),Health Care,"Operating Budget, SB 5796",Health Care Committees and Fiscal
138,88328-81720,88328,FE,81702,JH Consulting,Employer,81720,WA REFUSE & RECYCLING ASSN (CHRISTOPHERSEN INC*),22-Jan,2/27/2023,17185,WA REFUSE & RECYCLING ASSN,229.16,0.0,229.16,0.0,0.0,0.0,0.0,0.0,0.0,0.0,229.16,81720,Subcontract,17348.0,CHRISTOPHERSEN INC*,View report (https://accesshub.pdc.wa.gov/node/88328),,,
139,90188-81720,90188,FE,81702,JH Consulting,Employer,81720,WA REFUSE & RECYCLING ASSN (CHRISTOPHERSEN INC*),22-Feb,2/27/2023,17185,WA REFUSE & RECYCLING ASSN,229.16,0.0,229.16,0.0,0.0,0.0,0.0,0.0,0.0,0.0,229.16,81720,Subcontract,17348.0,CHRISTOPHERSEN INC*,View report (https://accesshub.pdc.wa.gov/node/90188),,,
140,91152-18294,91152,FE,17398,BOSWELL CONSULTING*,Employer,18294,WA BEVERAGE ASSN,22-Mar,2/27/2023,17190,WA BEVERAGE ASSN,5750.0,-200.0,5550.0,260.48,526.57,0.0,0.0,0.0,3000.0,3787.05,9337.05,18294,Direct,,,View report (https://accesshub.pdc.wa.gov/node/91152),Business and consumer affairs,various,various
141,92153-18294,92153,FE,17398,BOSWELL CONSULTING*,Employer,18294,WA BEVERAGE ASSN,22-Apr,2/27/2023,17190,WA BEVERAGE ASSN,5750.0,-200.0,5550.0,0.0,43.6,0.0,0.0,0.0,3000.0,3043.6,8593.6,18294,Direct,,,View report (https://accesshub.pdc.wa.gov/node/92153),Business and consumer affairs,various,various
142,88328-81735,88328,FE,81702,JH Consulting,Employer,81735,WA BEVERAGE ASSN (BOSWELL CONSULTING*),22-Jan,2/27/2023,17190,WA BEVERAGE ASSN,200.0,0.0,200.0,0.0,0.0,0.0,0.0,0.0,0.0,0.0,200.0,81735,Subcontract,17398.0,BOSWELL CONSULTING*,View report (https://accesshub.pdc.wa.gov/node/88328),,,
143,90188-81735,90188,FE,81702,JH Consulting,Employer,81735,WA BEVERAGE ASSN (BOSWELL CONSULTING*),22-Feb,2/27/2023,17190,WA BEVERAGE ASSN,200.0,0.0,200.0,0.0,0.0,0.0,0.0,0.0,0.0,0.0,200.0,81735,Subcontract,17398.0,BOSWELL CONSULTING*,View report (https://accesshub.pdc.wa.gov/node/90188),,,
144,102234-98153,102234,FE,44808,Taylor Consulting LLC,Employer,98153,WA ST GRANGE,23-Jan,2/27/2023,17251,WA ST GRANGE,3500.0,0.0,3500.0,0.0,0.0,0.0,0.0,0.0,0.0,0.0,3500.0,98153,Direct,,,View report (https://accesshub.pdc.wa.gov/node/102234),,,
145,91152-28160,91152,FE,17398,BOSWELL CONSULTING*,Employer,28160,"WASTE MANAGEMENT OF WASHINGTON, INC.",22-Mar,2/27/2023,17260,"WASTE MANAGEMENT OF WASHINGTON, INC.",5265.0,-2060.43,3204.57,0.0,0.0,0.0,0.0,0.0,0.0,0.0,3204.57,28160,Direct,,,View report (https://accesshub.pdc.wa.gov/node/91152),Energy and utilities,various,various
146,92153-28160,92153,FE,17398,BOSWELL CONSULTING*,Employer,28160,"WASTE MANAGEMENT OF WASHINGTON, INC.",22-Apr,2/27/2023,17260,"WASTE MANAGEMENT OF WASHINGTON, INC.",5265.0,-2060.43,3204.57,0.0,0.0,0.0,0.0,0.0,0.0,0.0,3204.57,28160,Direct,,,View report (https://accesshub.pdc.wa.gov/node/92153),Energy and utilities,various,various
147,88328-81734,88328,FE,81702,JH Consulting,Employer,81734,"WASTE MANAGEMENT OF WASHINGTON, INC. (BOSWELL CONSULTING*)",22-Jan,2/27/2023,17260,"WASTE MANAGEMENT OF WASHINGTON, INC.",200.0,0.0,200.0,0.0,0.0,0.0,0.0,0.0,0.0,0.0,200.0,81734,Subcontract,17398.0,BOSWELL CONSULTING*,View report (https://accesshub.pdc.wa.gov/node/88328),,,
148,90188-81734,90188,FE,81702,JH Consulting,Employer,81734,"WASTE MANAGEMENT OF WASHINGTON, INC. (BOSWELL CONSULTING*)",22-Feb,2/27/2023,17260,"WASTE MANAGEMENT OF WASHINGTON, INC.",200.0,0.0,200.0,0.0,0.0,0.0,0.0,0.0,0.0,0.0,200.0,81734,Subcontract,17398.0,BOSWELL CONSULTING*,View report (https://accesshub.pdc.wa.gov/node/90188),,,
151,102234-98157,102234,FE,44808,Taylor Consulting LLC,Employer,98157,WA ST NURSERY & LANDSCAPE ASSN,23-Jan,2/27/2023,17266,WA ST NURSERY & LANDSCAPE ASSN,1500.0,0.0,1500.0,0.0,0.0,0.0,0.0,0.0,0.0,0.0,1500.0,98157,Direct,,,View report (https://accesshub.pdc.wa.gov/node/102234),,,
152,89456-28144,89456,FE,17543,H2 Government Relations,Employer,28144,WA ST RADIOLOGICAL SOCIETY,22-Feb,2/27/2023,17281,WA ST RADIOLOGICAL SOCIETY,4000.0,0.0,4000.0,0.0,0.0,0.0,0.0,0.0,0.0,0.0,4000.0,28144,Direct,,,View report (https://accesshub.pdc.wa.gov/node/89456),Health Care,Health Care,"H Health Care, S Health Care"
153,88328-81712,88328,FE,81702,JH Consulting,Employer,81712,Internet Association (CHRISTOPHERSEN INC*),22-Jan,2/27/2023,31991,Internet Association,229.16,0.0,229.16,0.0,0.0,0.0,0.0,0.0,0.0,0.0,229.16,81712,Subcontract,17348.0,CHRISTOPHERSEN INC*,View report (https://accesshub.pdc.wa.gov/node/88328),,,
154,90188-81712,90188,FE,81702,JH Consulting,Employer,81712,Internet Association (CHRISTOPHERSEN INC*),22-Feb,2/27/2023,31991,Internet Association,229.16,0.0,229.16,0.0,0.0,0.0,0.0,0.0,0.0,0.0,229.16,81712,Subcontract,17348.0,CHRISTOPHERSEN INC*,View report (https://accesshub.pdc.wa.gov/node/90188),,,
155,91152-36740,91152,FE,17398,BOSWELL CONSULTING*,Employer,36740,Port of Hood River,22-Mar,2/27/2023,36737,Port of Hood River,5500.0,-560.43,4939.57,0.0,0.0,0.0,0.0,0.0,0.0,0.0,4939.57,36740,Direct,,,View report (https://accesshub.pdc.wa.gov/node/91152),Transportation,various,various
156,92153-36740,92153,FE,17398,BOSWELL CONSULTING*,Employer,36740,Port of Hood River,22-Apr,2/27/2023,36737,Port of Hood River,5500.0,-560.43,4939.57,0.0,0.0,0.0,0.0,0.0,0.0,0.0,4939.57,36740,Direct,,,View report (https://accesshub.pdc.wa.gov/node/92153),Transportation,various,various
157,88328-81730,88328,FE,81702,JH Consulting,Employer,81730,Port of Hood River (BOSWELL CONSULTING*),22-Jan,2/27/2023,36737,Port of Hood River,200.0,0.0,200.0,0.0,0.0,0.0,0.0,0.0,0.0,0.0,200.0,81730,Subcontract,17398.0,BOSWELL CONSULTING*,View report (https://accesshub.pdc.wa.gov/node/88328),,,
158,90188-81730,90188,FE,81702,JH Consulting,Employer,81730,Port of Hood River (BOSWELL CONSULTING*),22-Feb,2/27/2023,36737,Port of Hood River,200.0,0.0,200.0,0.0,0.0,0.0,0.0,0.0,0.0,0.0,200.0,81730,Subcontract,17398.0,BOSWELL CONSULTING*,View report (https://accesshub.pdc.wa.gov/node/90188),,,
159,95187-77692,95187,FE,18008,Eileen Sullivan,Employer,77692,ChargePoint Inc,22-Aug,2/27/2023,37392,ChargePoint Inc,5000.0,0.0,5000.0,0.0,0.0,0.0,0.0,0.0,0.0,0.0,5000.0,77692,Direct,,,View report (https://accesshub.pdc.wa.gov/node/95187),Transportation,Transportation,S & H Transportation
160,97196-40452,97196,FE,40449,Mark Rose,Employer,40452,"The Partners Group, Ltd.",22-Oct,2/27/2023,40451,"The Partners Group, Ltd.",2500.0,0.0,2500.0,0.0,0.0,0.0,0.0,0.0,0.0,0.0,2500.0,40452,Direct,,,View report (https://accesshub.pdc.wa.gov/node/97196),Health Care,"WA Cares, WAPFML, SEBB","HCA, OIC, SEBB"
161,102199-40452,102199,FE,40449,Mark Rose,Employer,40452,"The Partners Group, Ltd.",22-Nov,2/27/2023,40451,"The Partners Group, Ltd.",2500.0,0.0,2500.0,0.0,0.0,0.0,0.0,0.0,0.0,0.0,2500.0,40452,Direct,,,View report (https://accesshub.pdc.wa.gov/node/102199),Health Care,HCA/SEBB,HCA
162,102201-40452,102201,FE,40449,Mark Rose,Employer,40452,"The Partners Group, Ltd.",22-Dec,2/27/2023,40451,"The Partners Group, Ltd.",2500.0,0.0,2500.0,0.0,0.0,0.0,0.0,0.0,0.0,0.0,2500.0,40452,Direct,,,View report (https://accesshub.pdc.wa.gov/node/102201),Health Care,Washington Cares,WA Cares
163,88328-81711,88328,FE,81702,JH Consulting,Employer,81711,"Assurant, Inc. (CHRISTOPHERSEN INC*)",22-Jan,2/27/2023,44206,"Assurant, Inc.",229.16,0.0,229.16,0.0,0.0,0.0,0.0,0.0,0.0,0.0,229.16,81711,Subcontract,17348.0,CHRISTOPHERSEN INC*,View report (https://accesshub.pdc.wa.gov/node/88328),,,
164,90188-81711,90188,FE,81702,JH Consulting,Employer,81711,"Assurant, Inc. (CHRISTOPHERSEN INC*)",22-Feb,2/27/2023,44206,"Assurant, Inc.",229.16,0.0,229.16,0.0,0.0,0.0,0.0,0.0,0.0,0.0,229.16,81711,Subcontract,17348.0,CHRISTOPHERSEN INC*,View report (https://accesshub.pdc.wa.gov/node/90188),,,
165,91152-84278,91152,FE,17398,BOSWELL CONSULTING*,Employer,84278,"Kenmore Air Harbor, LLC",22-Mar,2/27/2023,47833,"Kenmore Air Harbor, LLC",5000.0,0.0,5000.0,0.0,0.0,0.0,0.0,0.0,0.0,0.0,5000.0,84278,Direct,,,View report (https://accesshub.pdc.wa.gov/node/91152),Transportation,various,various
166,92153-84278,92153,FE,17398,BOSWELL CONSULTING*,Employer,84278,"Kenmore Air Harbor, LLC",22-Apr,2/27/2023,47833,"Kenmore Air Harbor, LLC",5000.0,0.0,5000.0,0.0,0.0,0.0,0.0,0.0,0.0,0.0,5000.0,84278,Direct,,,View report (https://accesshub.pdc.wa.gov/node/92153),Transportation,various,various
168,102234-47884,102234,FE,44808,Taylor Consulting LLC,Employer,47884,Pacific Northwest Farmers Cooperative Inc,23-Jan,2/27/2023,47862,Pacific Northwest Farmers Cooperative Inc,4500.0,0.0,4500.0,0.0,0.0,0.0,0.0,0.0,0.0,0.0,4500.0,47884,Direct,,,View report (https://accesshub.pdc.wa.gov/node/102234),Transportation,rail banking - Pullman,"Senator Schoesler, Senator King, Rep. Dye, Rep. Schmick"
169,88576-47893,88576,FE,17996,STRATEGIES 360*,Employer,47893,"North Pacific Paper Company, LLC",22-Jan,2/27/2023,47891,"North Pacific Paper Company, LLC",3000.0,0.0,3000.0,0.0,0.0,0.0,0.0,0.0,0.0,0.0,3000.0,47893,Direct,,,View report (https://accesshub.pdc.wa.gov/node/88576),State government,HB 1518,State Government
170,90384-47893,90384,FE,17996,STRATEGIES 360*,Employer,47893,"North Pacific Paper Company, LLC",22-Feb,2/27/2023,47891,"North Pacific Paper Company, LLC",3000.0,0.0,3000.0,0.0,0.0,0.0,0.0,0.0,0.0,0.0,3000.0,47893,Direct,,,View report (https://accesshub.pdc.wa.gov/node/90384),State government,HB 1518,State Government
176,88576-51460,88576,FE,17996,STRATEGIES 360*,Employer,51460,PacificSource Health Plans,22-Jan,2/27/2023,51438,PacificSource Health Plans,4500.0,0.0,4500.0,0.0,0.0,0.0,0.0,0.0,0.0,0.0,4500.0,51460,Direct,,,View report (https://accesshub.pdc.wa.gov/node/88576),Health Care,"HB 1160, HB 1197, HB 1141",Health Care
177,90384-51460,90384,FE,17996,STRATEGIES 360*,Employer,51460,PacificSource Health Plans,22-Feb,2/27/2023,51438,PacificSource Health Plans,4500.0,0.0,4500.0,0.0,0.0,0.0,0.0,0.0,0.0,0.0,4500.0,51460,Direct,,,View report (https://accesshub.pdc.wa.gov/node/90384),Health Care,"HB 1160, HB 1197, HB 1141",Health Care
183,88328-86173,88328,FE,81702,JH Consulting,Employer,86173,Maverick Gaming LLC (Coaxis Public Affairs ),22-Jan,2/27/2023,58487,Maverick Gaming LLC,2000.0,0.0,2000.0,0.0,0.0,0.0,0.0,0.0,0.0,0.0,2000.0,86173,Subcontract,58479.0,Coaxis Public Affairs,View report (https://accesshub.pdc.wa.gov/node/88328),,,
184,90188-86173,90188,FE,81702,JH Consulting,Employer,86173,Maverick Gaming LLC (Coaxis Public Affairs ),22-Feb,2/27/2023,58487,Maverick Gaming LLC,2000.0,0.0,2000.0,0.0,0.0,0.0,0.0,0.0,0.0,0.0,2000.0,86173,Subcontract,58479.0,Coaxis Public Affairs,View report (https://accesshub.pdc.wa.gov/node/90188),,,
185,88328-81721,88328,FE,81702,JH Consulting,Employer,81721,Justice Action Network (CHRISTOPHERSEN INC*),22-Jan,2/27/2023,62015,Justice Action Network,229.16,0.0,229.16,0.0,0.0,0.0,0.0,0.0,0.0,0.0,229.16,81721,Subcontract,17348.0,CHRISTOPHERSEN INC*,View report (https://accesshub.pdc.wa.gov/node/88328),,,
186,90188-81721,90188,FE,81702,JH Consulting,Employer,81721,Justice Action Network (CHRISTOPHERSEN INC*),22-Feb,2/27/2023,62015,Justice Action Network,229.16,0.0,229.16,0.0,0.0,0.0,0.0,0.0,0.0,0.0,229.16,81721,Subcontract,17348.0,CHRISTOPHERSEN INC*,View report (https://accesshub.pdc.wa.gov/node/90188),,,
187,88576-69496,88576,FE,17996,STRATEGIES 360*,Employer,69496,MAPLEBEAR INC. D/B/A INSTACART,22-Jan,2/27/2023,66576,MAPLEBEAR INC. D/B/A INSTACART,7500.0,0.0,7500.0,0.0,0.0,0.0,0.0,0.0,0.0,0.0,7500.0,69496,Direct,,,View report (https://accesshub.pdc.wa.gov/node/88576),Technology,"HB 2076, SB 5813",Technology
188,90384-69496,90384,FE,17996,STRATEGIES 360*,Employer,69496,MAPLEBEAR INC. D/B/A INSTACART,22-Feb,2/27/2023,66576,MAPLEBEAR INC. D/B/A INSTACART,7500.0,0.0,7500.0,0.0,0.0,0.0,0.0,0.0,0.0,0.0,7500.0,69496,Direct,,,View report (https://accesshub.pdc.wa.gov/node/90384),Technology,"HB 2076, SB 5813",Technology
192,91152-67947,91152,FE,17398,BOSWELL CONSULTING*,Employer,67947,Seattle Arena Company,22-Mar,2/27/2023,67923,Seattle Arena Company,6000.0,-560.43,5439.57,0.0,0.0,0.0,0.0,0.0,0.0,0.0,5439.57,67947,Direct,,,View report (https://accesshub.pdc.wa.gov/node/91152),Business and consumer affairs,various,various
193,92153-67947,92153,FE,17398,BOSWELL CONSULTING*,Employer,67947,Seattle Arena Company,22-Apr,2/27/2023,67923,Seattle Arena Company,6000.0,-560.43,5439.57,0.0,0.0,0.0,0.0,0.0,0.0,0.0,5439.57,67947,Direct,,,View report (https://accesshub.pdc.wa.gov/node/92153),Business and consumer affairs,various,various
194,88328-81737,88328,FE,81702,JH Consulting,Employer,81737,Seattle Arena Company (BOSWELL CONSULTING*),22-Jan,2/27/2023,67923,Seattle Arena Company,200.0,0.0,200.0,0.0,0.0,0.0,0.0,0.0,0.0,0.0,200.0,81737,Subcontract,17398.0,BOSWELL CONSULTING*,View report (https://accesshub.pdc.wa.gov/node/88328),,,
195,90188-81737,90188,FE,81702,JH Consulting,Employer,81737,Seattle Arena Company (BOSWELL CONSULTING*),22-Feb,2/27/2023,67923,Seattle Arena Company,200.0,0.0,200.0,0.0,0.0,0.0,0.0,0.0,0.0,0.0,200.0,81737,Subcontract,17398.0,BOSWELL CONSULTING*,View report (https://accesshub.pdc.wa.gov/node/90188),,,
201,95187-72792,95187,FE,18008,Eileen Sullivan,Employer,72792,"Dropbox, Inc.",22-Aug,2/27/2023,72789,"Dropbox, Inc.",3500.0,0.0,3500.0,0.0,0.0,0.0,0.0,0.0,0.0,0.0,3500.0,72792,Direct,,,View report (https://accesshub.pdc.wa.gov/node/95187),,,
202,95187-73021,95187,FE,18008,Eileen Sullivan,Employer,73021,"Fiserv, Inc.",22-Aug,2/27/2023,73020,"Fiserv, Inc.",5000.0,0.0,5000.0,0.0,0.0,0.0,0.0,0.0,0.0,0.0,5000.0,73021,Direct,,,View report (https://accesshub.pdc.wa.gov/node/95187),Technology,Privacy,"H Innovation, Technology & Economic Development, S Environment, Energy & Technology"
203,88576-74258,88576,FE,17996,STRATEGIES 360*,Employer,74258,Southport Real Estate,22-Jan,2/27/2023,74051,Southport Real Estate,2500.0,0.0,2500.0,0.0,0.0,0.0,0.0,0.0,0.0,0.0,2500.0,74258,Direct,,,View report (https://accesshub.pdc.wa.gov/node/88576),,,
204,90384-74258,90384,FE,17996,STRATEGIES 360*,Employer,74258,Southport Real Estate,22-Feb,2/27/2023,74051,Southport Real Estate,2500.0,0.0,2500.0,0.0,0.0,0.0,0.0,0.0,0.0,0.0,2500.0,74258,Direct,,,View report (https://accesshub.pdc.wa.gov/node/90384),,,
210,89456-80911,89456,FE,17543,H2 Government Relations,Employer,80911,The Home Depot,22-Feb,2/27/2023,77275,The Home Depot,3500.0,0.0,3500.0,0.0,0.0,0.0,0.0,0.0,0.0,0.0,3500.0,80911,Direct,,,View report (https://accesshub.pdc.wa.gov/node/89456),Law and justice,Retail Theft,All House All Senate
211,95187-84184,95187,FE,18008,Eileen Sullivan,Employer,84184,UHV Manager LLC,22-Aug,2/27/2023,84181,UHV Manager LLC,6000.0,0.0,6000.0,0.0,0.0,0.0,0.0,0.0,0.0,0.0,6000.0,84184,Direct,,,View report (https://accesshub.pdc.wa.gov/node/95187),,,
212,88576-85403,88576,FE,17996,STRATEGIES 360*,Employer,85403,Fourfront Contributor,22-Jan,2/27/2023,85074,Fourfront Contributor,6000.0,0.0,6000.0,0.0,0.0,0.0,0.0,0.0,0.0,0.0,6000.0,85403,Direct,,,View report (https://accesshub.pdc.wa.gov/node/88576),Health Care,"HB 1735, HB 2053, HB 1865",Behavioral Health
213,90384-85403,90384,FE,17996,STRATEGIES 360*,Employer,85403,Fourfront Contributor,22-Feb,2/27/2023,85074,Fourfront Contributor,6000.0,0.0,6000.0,0.0,0.0,0.0,0.0,0.0,0.0,0.0,6000.0,85403,Direct,,,View report (https://accesshub.pdc.wa.gov/node/90384),Health Care,"HB 1735, HB 2053, HB 1865",Behavioral Health
219,88576-87888,88576,FE,17996,STRATEGIES 360*,Employer,87888,Epic Asset Management,22-Jan,2/27/2023,86072,Epic Asset Management,5000.0,0.0,5000.0,0.0,0.0,0.0,0.0,0.0,0.0,0.0,5000.0,87888,Direct,,,View report (https://accesshub.pdc.wa.gov/node/88576),,,
220,90384-87888,90384,FE,17996,STRATEGIES 360*,Employer,87888,Epic Asset Management,22-Feb,2/27/2023,86072,Epic Asset Management,5000.0,0.0,5000.0,0.0,0.0,0.0,0.0,0.0,0.0,0.0,5000.0,87888,Direct,,,View report (https://accesshub.pdc.wa.gov/node/90384),,,
226,88328-88143,88328,FE,81702,JH Consulting,Employer,88143,Northwest Center (CHRISTOPHERSEN INC*),22-Jan,2/27/2023,86117,Northwest Center,229.16,0.0,229.16,0.0,0.0,0.0,0.0,0.0,0.0,0.0,229.16,88143,Subcontract,17348.0,CHRISTOPHERSEN INC*,View report (https://accesshub.pdc.wa.gov/node/88328),,,
227,90188-88143,90188,FE,81702,JH Consulting,Employer,88143,Northwest Center (CHRISTOPHERSEN INC*),22-Feb,2/27/2023,86117,Northwest Center,229.16,0.0,229.16,0.0,0.0,0.0,0.0,0.0,0.0,0.0,229.16,88143,Subcontract,17348.0,CHRISTOPHERSEN INC*,View report (https://accesshub.pdc.wa.gov/node/90188),,,
228,88576-87901,88576,FE,17996,STRATEGIES 360*,Employer,87901,IO Management Company LLC,22-Jan,2/27/2023,87179,IO Management Company LLC,5000.0,0.0,5000.0,0.0,0.0,0.0,0.0,0.0,0.0,0.0,5000.0,87901,Direct,,,View report (https://accesshub.pdc.wa.gov/node/88576),,,
229,90384-87901,90384,FE,17996,STRATEGIES 360*,Employer,87901,IO Management Company LLC,22-Feb,2/27/2023,87179,IO Management Company LLC,5000.0,0.0,5000.0,0.0,0.0,0.0,0.0,0.0,0.0,0.0,5000.0,87901,Direct,,,View report (https://accesshub.pdc.wa.gov/node/90384),,,
235,88576-87920,88576,FE,17996,STRATEGIES 360*,Employer,87920,Goodman Real Estate,22-Jan,2/27/2023,87918,Goodman Real Estate,20000.0,0.0,20000.0,0.0,0.0,0.0,0.0,0.0,0.0,0.0,20000.0,87920,Direct,,,View report (https://accesshub.pdc.wa.gov/node/88576),,,
241,88576-88046,88576,FE,17996,STRATEGIES 360*,Employer,88046,Comprehensive Healthcare,22-Jan,2/27/2023,88038,Comprehensive Healthcare,5000.0,0.0,5000.0,0.0,0.0,0.0,0.0,0.0,0.0,0.0,5000.0,88046,Direct,,,View report (https://accesshub.pdc.wa.gov/node/88576),Health Care,"HB 1735, HB 2053",Behavioral Health
242,90384-88046,90384,FE,17996,STRATEGIES 360*,Employer,88046,Comprehensive Healthcare,22-Feb,2/27/2023,88038,Comprehensive Healthcare,5000.0,0.0,5000.0,0.0,0.0,0.0,0.0,0.0,0.0,0.0,5000.0,88046,Direct,,,View report (https://accesshub.pdc.wa.gov/node/90384),Health Care,"HB 1735, HB 2053",Behavioral Health
248,91152-88536,91152,FE,17398,BOSWELL CONSULTING*,Employer,88536,U.S. Oil & Refining Company,22-Mar,2/27/2023,88533,U.S. Oil & Refining Company,10000.0,0.0,10000.0,0.0,0.0,0.0,0.0,0.0,0.0,0.0,10000.0,88536,Direct,,,View report (https://accesshub.pdc.wa.gov/node/91152),Energy and utilities,various,various
249,92153-88536,92153,FE,17398,BOSWELL CONSULTING*,Employer,88536,U.S. Oil & Refining Company,22-Apr,2/27/2023,88533,U.S. Oil & Refining Company,5000.0,0.0,5000.0,0.0,0.0,0.0,0.0,0.0,0.0,0.0,5000.0,88536,Direct,,,View report (https://accesshub.pdc.wa.gov/node/92153),Energy and utilities,various,various
250,95187-88636,95187,FE,18008,Eileen Sullivan,Employer,88636,"MED-Project WA, LLC",22-Aug,2/27/2023,88603,"MED-Project WA, LLC",5000.0,0.0,5000.0,0.0,0.0,0.0,0.0,0.0,0.0,0.0,5000.0,88636,Direct,,,View report (https://accesshub.pdc.wa.gov/node/95187),Health Care,Health Care,All House Senate
251,90384-91130,90384,FE,17996,STRATEGIES 360*,Employer,91130,"Block, Inc.",22-Feb,2/27/2023,89711,"Block, Inc.",4000.0,0.0,4000.0,0.0,0.0,0.0,0.0,0.0,0.0,0.0,4000.0,91130,Direct,,,View report (https://accesshub.pdc.wa.gov/node/90384),,,
254,98774-19765,98774,FE,18027,ROWLAND THOMPSON,Employer,19765,ALLIED DAILY NEWSPAPERS OF WA,22-Dec,2/28/2023,16082,ALLIED DAILY NEWSPAPERS OF WA,4000.0,0.0,4000.0,98.7,116.84,0.0,0.0,0.0,0.0,215.54,4215.54,19765,Direct,,,View report (https://accesshub.pdc.wa.gov/node/98774),State government,Open Government,Legislative committees
255,90734-36168,90734,FE,17401,Brynn Brady,Employer,36168,AMAZON.COM SERVICES LLC,22-Mar,2/28/2023,16088,AMAZON.COM SERVICES LLC,4500.0,0.0,4500.0,0.0,0.0,0.0,0.0,0.0,0.0,0.0,4500.0,36168,Direct,,,View report (https://accesshub.pdc.wa.gov/node/90734),Technology,"Matters concerning web services, transportation, healthcare, STEM investments","Technology, Transportation, Healthcare and Higher Ed committees. WaTech, DOT, higher education institutions."
257,99185-36168,99185,FE,17401,Brynn Brady,Employer,36168,AMAZON.COM SERVICES LLC,22-Dec,2/28/2023,16088,AMAZON.COM SERVICES LLC,4500.0,0.0,4500.0,0.0,0.0,0.0,0.0,0.0,0.0,0.0,4500.0,36168,Direct,,,View report (https://accesshub.pdc.wa.gov/node/99185),Technology,Technology,All Legislative Committees
264,98774-19943,98774,FE,18027,ROWLAND THOMPSON,Employer,19943,AMERICAN TRAFFIC SOLUTIONS INC (STAUFFACHER COMMUNICATIONS*),22-Dec,2/28/2023,16124,AMERICAN TRAFFIC SOLUTIONS INC,3000.0,0.0,3000.0,0.0,0.0,0.0,0.0,0.0,0.0,0.0,3000.0,19943,Subcontract,17983.0,STAUFFACHER COMMUNICATIONS*,View report (https://accesshub.pdc.wa.gov/node/98774),,,
265,98239-18890,98239,FE,17597,PIERCE CONSULTING SVCS LLC*,Employer,18890,BRISTOL-MYERS SQUIBB CO,22-Nov,2/28/2023,16208,BRISTOL-MYERS SQUIBB CO,2500.0,-412.96,2087.04,0.0,0.0,0.0,0.0,0.0,0.0,0.0,2087.04,18890,Direct,,,View report (https://accesshub.pdc.wa.gov/node/98239),Health Care,various,various
266,102254-37638,102254,FE,17709,DAVE KNUTSON,Employer,37638,COMMUNITY HEALTH NETWORK OF WA,23-Jan,2/28/2023,16348,COMMUNITY HEALTH NETWORK OF WA,5000.0,0.0,5000.0,0.0,0.0,0.0,0.0,0.0,0.0,0.0,5000.0,37638,Direct,,,View report (https://accesshub.pdc.wa.gov/node/102254),Health Care,health care,Legislative Health Care Committee
267,98239-59743,98239,FE,17597,PIERCE CONSULTING SVCS LLC*,Employer,59743,DELOITTE CONSULTING LLP,22-Nov,2/28/2023,16384,DELOITTE CONSULTING LLP,3750.0,0.0,3750.0,0.0,0.0,500.0,0.0,0.0,0.0,500.0,4250.0,59743,Direct,,,View report (https://accesshub.pdc.wa.gov/node/98239),Fiscal,various,various
274,102256-38874,102256,FE,38873,Aaron Czyzewski,Employer,38874,FOOD LIFELINE,23-Feb,2/28/2023,16448,FOOD LIFELINE,6575.0,0.0,6575.0,0.0,0.0,0.0,0.0,0.0,0.0,0.0,6575.0,38874,Direct,,,View report (https://accesshub.pdc.wa.gov/node/102256),Human services,"SB 5187, HB 1045, SB 5200, SB 5256, SB 5566, HB 1559, HB 1784","Ways & Means, Appropriations"
275,98239-18893,98239,FE,17597,PIERCE CONSULTING SVCS LLC*,Employer,18893,RUSSELL INVESTMENT GROUP,22-Nov,2/28/2023,16456,RUSSELL INVESTMENT GROUP,3000.0,-495.55,2504.45,0.0,42.14,0.0,0.0,0.0,0.0,42.14,2546.59,18893,Direct,,,View report (https://accesshub.pdc.wa.gov/node/98239),Financial institutions and insurance,various,various
276,102270-97719,102270,FE,97717,Joel Anderson,Employer,97719,GRADUATE & PROF STUDENT SENATE/U OF W,23-Feb,2/28/2023,16477,GRADUATE & PROF STUDENT SENATE/U OF W,2586.0,0.0,2586.0,0.0,0.0,0.0,0.0,0.0,0.0,0.0,2586.0,97719,Direct,,,View report (https://accesshub.pdc.wa.gov/node/102270),Higher education,SB5703,"Senate Higher Education & Workforce Development Committee, Senate Ways & Means Committee"
279,98239-83326,98239,FE,17597,PIERCE CONSULTING SVCS LLC*,Employer,83326,HEALTHCARE DISTRIBUTION ALLIANCE c/o MultiState Associates Inc,22-Nov,2/28/2023,16496,HEALTHCARE DISTRIBUTION ALLIANCE c/o MultiState Associates Inc,2750.0,-454.26,2295.74,0.0,0.0,0.0,0.0,0.0,0.0,0.0,2295.74,83326,Direct,,,View report (https://accesshub.pdc.wa.gov/node/98239),Health Care,various,various
280,98239-18894,98239,FE,17597,PIERCE CONSULTING SVCS LLC*,Employer,18894,MICROSOFT CORP,22-Nov,2/28/2023,16636,MICROSOFT CORP,8190.0,0.0,8190.0,200.74,0.0,0.0,0.0,0.0,0.0,200.74,8390.74,18894,Direct,,,View report (https://accesshub.pdc.wa.gov/node/98239),Technology,various,various
287,99468-96793,99468,FE,60449,Desimone Consulting Group,Employer,96793,LIFELONG,22-Dec,2/28/2023,16697,LIFELONG,4000.0,0.0,4000.0,0.0,0.0,0.0,0.0,0.0,0.0,0.0,4000.0,96793,Direct,,,View report (https://accesshub.pdc.wa.gov/node/99468),Health Care,Community Project Funding Request - Capital Budget,Rep. Joe Fitzgiboon
288,101989-38041,101989,FE,17422,CARL E BURKE,Employer,38041,NORTHWEST MARINE TRADE ASSN,23-Feb,2/28/2023,16714,NORTHWEST MARINE TRADE ASSN,2500.0,0.0,2500.0,0.0,0.0,0.0,0.0,0.0,0.0,0.0,2500.0,38041,Direct,,,View report (https://accesshub.pdc.wa.gov/node/101989),Environmental Affairs - natural resources - parks,SB 5297,Senate Natural Resources
289,102254-19083,102254,FE,17709,DAVE KNUTSON,Employer,19083,PACIFIC NORTHWEST UNIVERSITY OF HEALTH SCIENCES,23-Jan,2/28/2023,16755,PACIFIC NORTHWEST UNIVERSITY OF HEALTH SCIENCES,5000.0,0.0,5000.0,0.0,0.0,0.0,0.0,0.0,0.0,0.0,5000.0,19083,Direct,,,View report (https://accesshub.pdc.wa.gov/node/102254),,,
290,99468-96591,99468,FE,60449,Desimone Consulting Group,Employer,96591,PORT OF BREMERTON,22-Dec,2/28/2023,16793,PORT OF BREMERTON,3000.0,0.0,3000.0,0.0,0.0,0.0,0.0,0.0,0.0,0.0,3000.0,96591,Direct,,,View report (https://accesshub.pdc.wa.gov/node/99468),Transportation,Port Orchard Marina,Rep. Tharinger
291,101198-95028,101198,FE,95027,Blair Englebrecht,Employer,95028,PUGET SOUND KEEPER ALLIANCE,22-Feb,2/28/2023,16829,PUGET SOUND KEEPER ALLIANCE,883.53,0.0,883.53,0.0,0.0,0.0,0.0,0.0,0.0,0.0,883.53,95028,Direct,,,View report (https://accesshub.pdc.wa.gov/node/101198),Environmental Affairs - natural resources - parks,SB 5882,"Rep Slatter, Rep Walden, Rep Pollet, Rep Orwall, Senator Wellman, Senator Frockt, Senator Nguyen, Senator Saldana, Senator Carlyle, Senator Pederson"
292,101210-95028,101210,FE,95027,Blair Englebrecht,Employer,95028,PUGET SOUND KEEPER ALLIANCE,22-Aug,2/28/2023,16829,PUGET SOUND KEEPER ALLIANCE,704.15,0.0,704.15,0.0,0.0,0.0,0.0,0.0,0.0,0.0,704.15,95028,Direct,,,View report (https://accesshub.pdc.wa.gov/node/101210),Environmental Affairs - natural resources - parks,Pumpout Expansion,State Parks
293,101215-95028,101215,FE,95027,Blair Englebrecht,Employer,95028,PUGET SOUND KEEPER ALLIANCE,22-Nov,2/28/2023,16829,PUGET SOUND KEEPER ALLIANCE,333.31,0.0,333.31,0.0,0.0,0.0,0.0,0.0,0.0,0.0,333.31,95028,Direct,,,View report (https://accesshub.pdc.wa.gov/node/101215),Environmental Affairs - natural resources - parks,Pumpout Expansion,"State Parks, Department of Ecology, Steve Tharinger"
294,101217-95028,101217,FE,95027,Blair Englebrecht,Employer,95028,PUGET SOUND KEEPER ALLIANCE,22-Jan,2/28/2023,16829,PUGET SOUND KEEPER ALLIANCE,946.04,0.0,946.04,0.0,0.0,0.0,0.0,0.0,0.0,0.0,946.04,95028,Direct,,,View report (https://accesshub.pdc.wa.gov/node/101217),Environmental Affairs - natural resources - parks,SB 5619,"Rep Berry, Senator Kaiser"
295,90734-27587,90734,FE,17401,Brynn Brady,Employer,27587,REGIONAL FISHERIES ENHANCEMENT GROUP COALITION,22-Mar,2/28/2023,16850,REGIONAL FISHERIES ENHANCEMENT GROUP COALITION,2200.0,0.0,2200.0,0.0,0.0,0.0,0.0,0.0,0.0,0.0,2200.0,27587,Direct,,,View report (https://accesshub.pdc.wa.gov/node/90734),Environmental Affairs - natural resources - parks,"Matters concerning salmon recovery, conservation and natural resource education","Natural Resource, budget and Environment Committees, WDFW, RCO"
297,99185-27587,99185,FE,17401,Brynn Brady,Employer,27587,REGIONAL FISHERIES ENHANCEMENT GROUP COALITION,22-Dec,2/28/2023,16850,REGIONAL FISHERIES ENHANCEMENT GROUP COALITION,2400.0,0.0,2400.0,0.0,0.0,0.0,0.0,0.0,0.0,0.0,2400.0,27587,Direct,,,View report (https://accesshub.pdc.wa.gov/node/99185),Environmental Affairs - natural resources - parks,Environment,Environment Committees
298,102311-96357,102311,FE,96356,Kaylee Galloway,Employer,96357,REGIONAL FISHERIES ENHANCEMENT GROUP COALITION,23-Feb,2/28/2023,16850,REGIONAL FISHERIES ENHANCEMENT GROUP COALITION,450.0,0.0,450.0,0.0,0.0,0.0,0.0,0.0,0.0,0.0,450.0,96357,Direct,,,View report (https://accesshub.pdc.wa.gov/node/102311),Environmental Affairs - natural resources - parks,"Salmon recovery, funding for RFEGs, and HB 1775/SB 5693",40th and 42nd LD Legislators
299,90734-60956,90734,FE,17401,Brynn Brady,Employer,60956,SPECIAL OLYMPICS WA,22-Mar,2/28/2023,16937,SPECIAL OLYMPICS WA,2000.0,0.0,2000.0,0.0,0.0,0.0,0.0,0.0,0.0,0.0,2000.0,60956,Direct,,,View report (https://accesshub.pdc.wa.gov/node/90734),Human services,Human Services,H and S Committees
301,99185-60956,99185,FE,17401,Brynn Brady,Employer,60956,SPECIAL OLYMPICS WA,22-Dec,2/28/2023,16937,SPECIAL OLYMPICS WA,3000.0,0.0,3000.0,0.0,0.0,0.0,0.0,0.0,0.0,0.0,3000.0,60956,Direct,,,View report (https://accesshub.pdc.wa.gov/node/99185),Human services,Human Services,All House Senate
308,102340-95916,102340,FE,18007,JOHN STUHLMILLER,Employer,95916,SYNGENTA,23-Feb,2/28/2023,16964,SYNGENTA,2000.0,0.0,2000.0,0.0,0.0,0.0,0.0,0.0,0.0,0.0,2000.0,95916,Direct,,,View report (https://accesshub.pdc.wa.gov/node/102340),Environmental Affairs - natural resources - parks,Regulatory and environmental issues,"Various agencies including Ecology, Agriculture, and Health"
309,90734-18299,90734,FE,17401,Brynn Brady,Employer,18299,TACOMA-PIERCE CO HEALTH DEPT,22-Mar,2/28/2023,16967,TACOMA-PIERCE CO HEALTH DEPT,3000.0,0.0,3000.0,0.0,0.0,0.0,0.0,0.0,0.0,0.0,3000.0,18299,Direct,,,View report (https://accesshub.pdc.wa.gov/node/90734),Health Care,"Matters concerning health care delivery, public health, environmental health, foundational public health services, family wellness","Healthcare, Environment and budget Committees, DOH, HCA, ECY, DSHS, DCYF"
311,99185-18299,99185,FE,17401,Brynn Brady,Employer,18299,TACOMA-PIERCE CO HEALTH DEPT,22-Dec,2/28/2023,16967,TACOMA-PIERCE CO HEALTH DEPT,1250.0,0.0,1250.0,0.0,0.0,0.0,0.0,0.0,0.0,0.0,1250.0,18299,Direct,,,View report (https://accesshub.pdc.wa.gov/node/99185),Health Care,Health Care,All Health Senate House
315,98488-18962,98488,FE,17634,DEBORAH HERRON,Employer,18962,WALMART INC.,22-Nov,2/28/2023,17042,WALMART INC.,372.6,0.0,372.6,0.0,0.0,500.0,0.0,0.0,0.0,500.0,872.6,18962,Direct,,,View report (https://accesshub.pdc.wa.gov/node/98488),Business and consumer affairs,Ecommerce,Legislature
316,99636-18962,99636,FE,17634,DEBORAH HERRON,Employer,18962,WALMART INC.,22-Dec,2/28/2023,17042,WALMART INC.,633.41,0.0,633.41,0.0,0.0,1502.5,0.0,0.0,0.0,1502.5,2135.91,18962,Direct,,,View report (https://accesshub.pdc.wa.gov/node/99636),Business and consumer affairs,Ecommerce,Legislature
317,102307-97089,102307,FE,97088,Daniel Olson,Employer,97089,WA BREWERS GUILD,23-Feb,2/28/2023,17065,WA BREWERS GUILD,1500.0,0.0,1500.0,0.0,0.0,0.0,0.0,0.0,0.0,0.0,1500.0,97089,Direct,,,View report (https://accesshub.pdc.wa.gov/node/102307),Business and consumer affairs,Liquor legislation,Members of the Legislature
318,98239-29242,98239,FE,17597,PIERCE CONSULTING SVCS LLC*,Employer,29242,WA CHARTERS ACTION,22-Nov,2/28/2023,17071,WA CHARTERS ACTION,3750.0,0.0,3750.0,0.0,42.14,0.0,0.0,0.0,0.0,42.14,3792.14,29242,Direct,,,View report (https://accesshub.pdc.wa.gov/node/98239),Education,various,various
320,99185-87454,99185,FE,17401,Brynn Brady,Employer,87454,WA ASSN OF CONSERVATION DISTRICTS,22-Dec,2/28/2023,17076,WA ASSN OF CONSERVATION DISTRICTS,3200.0,0.0,3200.0,0.0,0.0,0.0,0.0,0.0,0.0,0.0,3200.0,87454,Direct,,,View report (https://accesshub.pdc.wa.gov/node/99185),Environmental Affairs - natural resources - parks,Environment,Environment Committees
321,90734-87454,90734,FE,17401,Brynn Brady,Employer,87454,WA ASSN OF CONSERVATION DISTRICTS,22-Mar,2/28/2023,17076,WA ASSN OF CONSERVATION DISTRICTS,3000.0,0.0,3000.0,0.0,0.0,0.0,0.0,0.0,0.0,0.0,3000.0,87454,Direct,,,View report (https://accesshub.pdc.wa.gov/node/90734),,,
323,102309-18274,102309,FE,17394,JERROLD B BONAGOFSKY,Employer,18274,WA CONTRACT LOGGERS ASSN INC,23-Feb,2/28/2023,17082,WA CONTRACT LOGGERS ASSN INC,500.0,0.0,500.0,0.0,0.0,0.0,0.0,0.0,0.0,0.0,500.0,18274,Direct,,,View report (https://accesshub.pdc.wa.gov/node/102309),Environmental Affairs - natural resources - parks,HB 1460,House Capital Budget
324,98239-18897,98239,FE,17597,PIERCE CONSULTING SVCS LLC*,Employer,18897,Delta Dental of WA,22-Nov,2/28/2023,17096,Delta Dental of WA,3000.0,-495.55,2504.45,0.0,42.14,0.0,0.0,0.0,0.0,42.14,2546.59,18897,Direct,,,View report (https://accesshub.pdc.wa.gov/node/98239),Health Care,various,various
325,98239-18899,98239,FE,17597,PIERCE CONSULTING SVCS LLC*,Employer,18899,WA FOREST PROTECTION ASSN,22-Nov,2/28/2023,17120,WA FOREST PROTECTION ASSN,2000.0,-330.37,1669.63,0.0,0.0,0.0,0.0,0.0,0.0,0.0,1669.63,18899,Direct,,,View report (https://accesshub.pdc.wa.gov/node/98239),Environmental Affairs - natural resources - parks,various,various
332,102254-19086,102254,FE,17709,DAVE KNUTSON,Employer,19086,WA OSTEOPATHIC MEDICAL ASSN,23-Jan,2/28/2023,17158,WA OSTEOPATHIC MEDICAL ASSN,2000.0,0.0,2000.0,0.0,0.0,0.0,0.0,0.0,0.0,0.0,2000.0,19086,Direct,,,View report (https://accesshub.pdc.wa.gov/node/102254),,,
333,102340-98557,102340,FE,18007,JOHN STUHLMILLER,Employer,98557,Washington Public Ports Association,23-Feb,2/28/2023,17174,Washington Public Ports Association,5000.0,0.0,5000.0,0.0,0.0,0.0,0.0,0.0,0.0,0.0,5000.0,98557,Direct,,,View report (https://accesshub.pdc.wa.gov/node/102340),Environmental Affairs - natural resources - parks,various environmental issues,"Various legislative committees and agencies, including Ecology"
334,98239-18901,98239,FE,17597,PIERCE CONSULTING SVCS LLC*,Employer,18901,WA ROUNDTABLE,22-Nov,2/28/2023,17178,WA ROUNDTABLE,2175.0,-359.28,1815.72,0.0,111.55,0.0,0.0,0.0,0.0,111.55,1927.27,18901,Direct,,,View report (https://accesshub.pdc.wa.gov/node/98239),Business and consumer affairs,various,various
335,90734-32040,90734,FE,17401,Brynn Brady,Employer,32040,WA STATE ASSN OF COUNTIES (WSAC),22-Mar,2/28/2023,17215,WA STATE ASSN OF COUNTIES (WSAC),2500.0,0.0,2500.0,0.0,0.0,0.0,0.0,0.0,0.0,0.0,2500.0,32040,Direct,,,View report (https://accesshub.pdc.wa.gov/node/90734),Local government,Local Government,"H Local Government, S Local Government"
337,99185-32040,99185,FE,17401,Brynn Brady,Employer,32040,WA STATE ASSN OF COUNTIES (WSAC),22-Dec,2/28/2023,17215,WA STATE ASSN OF COUNTIES (WSAC),2500.0,0.0,2500.0,0.0,0.0,0.0,0.0,0.0,0.0,0.0,2500.0,32040,Direct,,,View report (https://accesshub.pdc.wa.gov/node/99185),Local government,Local Government,Local Government
338,90734-60770,90734,FE,17401,Brynn Brady,Employer,60770,Audubon Washington,22-Mar,2/28/2023,17217,Audubon Washington,1250.0,0.0,1250.0,0.0,0.0,0.0,0.0,0.0,0.0,0.0,1250.0,60770,Direct,,,View report (https://accesshub.pdc.wa.gov/node/90734),,,
340,99185-60770,99185,FE,17401,Brynn Brady,Employer,60770,Audubon Washington,22-Dec,2/28/2023,17217,Audubon Washington,1375.0,0.0,1375.0,0.0,0.0,0.0,0.0,0.0,0.0,0.0,1375.0,60770,Direct,,,View report (https://accesshub.pdc.wa.gov/node/99185),Environmental Affairs - natural resources - parks,Environment,Environment Committees
341,98774-87542,98774,FE,18027,ROWLAND THOMPSON,Employer,87542,WA ST ASSN OF BROADCASTERS,22-Dec,2/28/2023,17219,WA ST ASSN OF BROADCASTERS,2083.33,0.0,2083.33,0.0,0.0,0.0,0.0,0.0,0.0,0.0,2083.33,87542,Direct,,,View report (https://accesshub.pdc.wa.gov/node/98774),State government,Open Government,Legislative committees
358,102340-95915,102340,FE,18007,JOHN STUHLMILLER,Employer,95915,WA ST WATER RESOURCES ASSN,23-Feb,2/28/2023,17292,WA ST WATER RESOURCES ASSN,1000.0,0.0,1000.0,0.0,0.0,0.0,0.0,0.0,0.0,0.0,1000.0,95915,Direct,,,View report (https://accesshub.pdc.wa.gov/node/102340),Agriculture,Various water resource issues,"Various state agencies including Ecology, Fish and Wildlife, and Agriculture"
359,98774-19766,98774,FE,18027,ROWLAND THOMPSON,Employer,19766,WINE INSTITUTE,22-Dec,2/28/2023,17312,WINE INSTITUTE,1625.0,0.0,1625.0,0.0,0.0,0.0,0.0,0.0,0.0,0.0,1625.0,19766,Direct,,,View report (https://accesshub.pdc.wa.gov/node/98774),Business and consumer affairs,Wine regulation,Liquor and Cannabis Board and Commerce committees
360,90734-29611,90734,FE,17401,Brynn Brady,Employer,29611,City of Woodinville,22-Mar,2/28/2023,29610,City of Woodinville,3560.0,0.0,3560.0,0.0,0.0,0.0,0.0,0.0,0.0,0.0,3560.0,29611,Direct,,,View report (https://accesshub.pdc.wa.gov/node/90734),Local government,Local Government,H S Local Government Committees
362,99185-29611,99185,FE,17401,Brynn Brady,Employer,29611,City of Woodinville,22-Dec,2/28/2023,29610,City of Woodinville,1020.0,0.0,1020.0,0.0,0.0,0.0,0.0,0.0,0.0,0.0,1020.0,29611,Direct,,,View report (https://accesshub.pdc.wa.gov/node/99185),Local government,Local Government,All House Senate Local Government
363,98239-30933,98239,FE,17597,PIERCE CONSULTING SVCS LLC*,Employer,30933,Washington State Opportunity Scholarship,22-Nov,2/28/2023,30931,Washington State Opportunity Scholarship,2000.0,-330.37,1669.63,0.0,0.0,0.0,0.0,0.0,0.0,0.0,1669.63,30933,Direct,,,View report (https://accesshub.pdc.wa.gov/node/98239),Higher education,various,various
364,90734-41082,90734,FE,17401,Brynn Brady,Employer,41082,Sunovion Pharmaceuticals Inc. (Martin Flynn Public Affairs Inc),22-Mar,2/28/2023,33133,Sunovion Pharmaceuticals Inc.,3500.0,0.0,3500.0,0.0,0.0,0.0,0.0,0.0,0.0,0.0,3500.0,41082,Subcontract,17407.0,Martin Flynn Public Affairs Inc,View report (https://accesshub.pdc.wa.gov/node/90734),,,
366,99185-41082,99185,FE,17401,Brynn Brady,Employer,41082,Sunovion Pharmaceuticals Inc. (Martin Flynn Public Affairs Inc),22-Dec,2/28/2023,33133,Sunovion Pharmaceuticals Inc.,3666.66,0.0,3666.66,0.0,0.0,0.0,0.0,0.0,0.0,0.0,3666.66,41082,Subcontract,17407.0,Martin Flynn Public Affairs Inc,View report (https://accesshub.pdc.wa.gov/node/99185),,,
373,90734-49790,90734,FE,17401,Brynn Brady,Employer,49790,Detente Management (Martin Flynn Public Affairs Inc),22-Mar,2/28/2023,46391,Detente Management,3000.0,0.0,3000.0,0.0,0.0,0.0,0.0,0.0,0.0,0.0,3000.0,49790,Subcontract,17407.0,Martin Flynn Public Affairs Inc,View report (https://accesshub.pdc.wa.gov/node/90734),,,
375,99185-49790,99185,FE,17401,Brynn Brady,Employer,49790,Detente Management (Martin Flynn Public Affairs Inc),22-Dec,2/28/2023,46391,Detente Management,3000.0,0.0,3000.0,0.0,0.0,0.0,0.0,0.0,0.0,0.0,3000.0,49790,Subcontract,17407.0,Martin Flynn Public Affairs Inc,View report (https://accesshub.pdc.wa.gov/node/99185),,,
376,102317-48640,102317,FE,48547,Jason Gauthier,Employer,48640,TPC Habitat for Humanity,22-Jan,2/28/2023,48605,TPC Habitat for Humanity,7459.0,0.0,7459.0,0.0,0.0,0.0,0.0,0.0,0.0,0.0,7459.0,48640,Direct,,,View report (https://accesshub.pdc.wa.gov/node/102317),Human services,capital budget / direct appropriation,"Rep Leavitt, Rep Bronoske, Sen Nobles - ways & means and capital budget"
377,102318-48640,102318,FE,48547,Jason Gauthier,Employer,48640,TPC Habitat for Humanity,22-Feb,2/28/2023,48605,TPC Habitat for Humanity,7459.0,0.0,7459.0,0.0,0.0,0.0,0.0,0.0,0.0,0.0,7459.0,48640,Direct,,,View report (https://accesshub.pdc.wa.gov/node/102318),Human services,capital budget / direct appropriation,"Rep Leavitt, Rep Bronoske, Sen Nobles - ways & means and capital budget"
378,102319-48640,102319,FE,48547,Jason Gauthier,Employer,48640,TPC Habitat for Humanity,22-Mar,2/28/2023,48605,TPC Habitat for Humanity,7459.0,0.0,7459.0,0.0,0.0,0.0,0.0,0.0,0.0,0.0,7459.0,48640,Direct,,,View report (https://accesshub.pdc.wa.gov/node/102319),Human services,capital budget / direct appropriation,"Rep Leavitt, Rep Bronoske, Sen Nobles - ways & means and capital budget"
379,90734-85946,90734,FE,17401,Brynn Brady,Employer,85946,First 5 FUNdamentals,22-Mar,2/28/2023,50664,First 5 FUNdamentals,2000.0,0.0,2000.0,0.0,0.0,0.0,0.0,0.0,0.0,0.0,2000.0,85946,Direct,,,View report (https://accesshub.pdc.wa.gov/node/90734),,,
381,99185-85946,99185,FE,17401,Brynn Brady,Employer,85946,First 5 FUNdamentals,22-Dec,2/28/2023,50664,First 5 FUNdamentals,2000.0,0.0,2000.0,0.0,0.0,0.0,0.0,0.0,0.0,0.0,2000.0,85946,Direct,,,View report (https://accesshub.pdc.wa.gov/node/99185),,,
382,99468-98048,99468,FE,60449,Desimone Consulting Group,Employer,98048,First 5 FUNdamentals,22-Dec,2/28/2023,50664,First 5 FUNdamentals,4000.0,0.0,4000.0,0.0,0.0,0.0,0.0,0.0,0.0,0.0,4000.0,98048,Direct,,,View report (https://accesshub.pdc.wa.gov/node/99468),,,
390,98239-71254,98239,FE,17597,PIERCE CONSULTING SVCS LLC*,Employer,71254,Mary's Place,22-Nov,2/28/2023,71253,Mary's Place,1250.0,-1250.0,0.0,0.0,0.0,0.0,0.0,0.0,0.0,0.0,0.0,71254,Direct,,,View report (https://accesshub.pdc.wa.gov/node/98239),Human services,various,various
395,90734-85098,90734,FE,17401,Brynn Brady,Employer,85098,Washington Association of Land Trusts,22-Mar,2/28/2023,78674,Washington Association of Land Trusts,3200.0,0.0,3200.0,0.0,0.0,0.0,0.0,0.0,0.0,0.0,3200.0,85098,Direct,,,View report (https://accesshub.pdc.wa.gov/node/90734),,,
397,99185-85098,99185,FE,17401,Brynn Brady,Employer,85098,Washington Association of Land Trusts,22-Dec,2/28/2023,78674,Washington Association of Land Trusts,3200.0,0.0,3200.0,0.0,0.0,0.0,0.0,0.0,0.0,0.0,3200.0,85098,Direct,,,View report (https://accesshub.pdc.wa.gov/node/99185),Environmental Affairs - natural resources - parks,Environment,Environment Committees
404,98239-82451,98239,FE,17597,PIERCE CONSULTING SVCS LLC*,Employer,82451,Football Northwest LLC,22-Nov,2/28/2023,82450,Football Northwest LLC,2250.0,-371.66,1878.34,0.0,0.0,0.0,0.0,0.0,0.0,0.0,1878.34,82451,Direct,,,View report (https://accesshub.pdc.wa.gov/node/98239),Business and consumer affairs,various,various
425,102268-96953,102268,FE,90488,Michael Cockrill,Employer,96953,"Slalom, LLC (Lodestar Strategic LLC)",22-Nov,2/28/2023,91569,"Slalom, LLC",3500.0,0.0,3500.0,0.0,0.0,0.0,0.0,0.0,0.0,0.0,3500.0,96953,Subcontract,51590.0,Lodestar Strategic LLC,View report (https://accesshub.pdc.wa.gov/node/102268),,,
426,102269-96953,102269,FE,90488,Michael Cockrill,Employer,96953,"Slalom, LLC (Lodestar Strategic LLC)",22-Dec,2/28/2023,91569,"Slalom, LLC",3500.0,0.0,3500.0,0.0,0.0,0.0,0.0,0.0,0.0,0.0,3500.0,96953,Subcontract,51590.0,Lodestar Strategic LLC,View report (https://accesshub.pdc.wa.gov/node/102269),,,
427,99468-97527,99468,FE,60449,Desimone Consulting Group,Employer,97527,Northwest Mothers Milk Bank,22-Dec,2/28/2023,96803,Northwest Mothers Milk Bank,5000.0,0.0,5000.0,0.0,0.0,0.0,0.0,0.0,0.0,0.0,5000.0,97527,Direct,,,View report (https://accesshub.pdc.wa.gov/node/99468),,,
433,102411-71048,102411,FE,39032,Brad Forbes,Employer,71048,ALZHEIMERS ASSN WA ST CHAPTER,23-Feb,3/1/2023,16086,ALZHEIMERS ASSN WA ST CHAPTER,278.85,0.0,278.85,0.0,0.0,0.0,0.0,0.0,0.0,0.0,278.85,71048,Direct,,,View report (https://accesshub.pdc.wa.gov/node/102411),Health Care,"Senate Health Care, Senate Rules",Legislature
434,102418-84585,102418,FE,84584,Lauren Adler,Employer,84585,"Elevance Health, and its Affiliates",23-Feb,3/1/2023,16107,"Elevance Health, and its Affiliates",2000.0,0.0,2000.0,0.0,0.0,0.0,0.0,0.0,0.0,0.0,2000.0,84585,Direct,,,View report (https://accesshub.pdc.wa.gov/node/102418),Health Care,General Health Care Issues,Health Care Authority
440,102360-19783,102360,FE,18036,SUSAN S TRACY,Employer,19783,CARING FOR WASHINGTON,23-Feb,3/1/2023,16230,CARING FOR WASHINGTON,3000.0,0.0,3000.0,0.0,0.0,0.0,0.0,0.0,0.0,0.0,3000.0,19783,Direct,,,View report (https://accesshub.pdc.wa.gov/node/102360),Health Care,family medicine residency,"health care, fiscal, education"
457,102390-50912,102390,FE,50911,Leah Missik,Employer,50912,CLIMATE SOLUTIONS,23-Feb,3/1/2023,16327,CLIMATE SOLUTIONS,997.5,0.0,997.5,86.54,0.0,0.0,0.0,0.0,0.0,86.54,1084.04,50912,Direct,,,View report (https://accesshub.pdc.wa.gov/node/102390),Transportation,Sustainable Aviation Fuel,Energy & Environment Committees
463,91837-26719,91837,FE,17771,MARIE SULLIVAN PUBLIC AFFAIRS CORP.,Employer,26719,CONFEDERATED TRIBES OF THE UMATILLA INDIAN RESERVATION,22-Apr,3/1/2023,16356,CONFEDERATED TRIBES OF THE UMATILLA INDIAN RESERVATION,5000.0,0.0,5000.0,0.0,0.0,0.0,0.0,0.0,0.0,0.0,5000.0,26719,Direct,,,View report (https://accesshub.pdc.wa.gov/node/91837),Environmental Affairs - natural resources - parks,"MMIW, GMA, tribal consultation, natural resource issues","Governor's office, AGO, 16th district, natural resources legislators"
469,91837-19186,91837,FE,17771,MARIE SULLIVAN PUBLIC AFFAIRS CORP.,Employer,19186,EASTERN WA QUALITY SCHOOLS COALITION,22-Apr,3/1/2023,16400,EASTERN WA QUALITY SCHOOLS COALITION,5640.0,0.0,5640.0,0.0,0.0,0.0,0.0,0.0,0.0,0.0,5640.0,19186,Direct,,,View report (https://accesshub.pdc.wa.gov/node/91837),Education,"shortages in education system, coping with COVID, enrollment stabilization, school staffing, transportation funding, retire/rehire, pause on policy","House and Senate budget, education committees, coalition member legislative district legislators"
470,102370-18236,102370,FE,17379,ERICA D HALLOCK,Employer,18236,EMPIRE HEALTH FOUNDATION,23-Feb,3/1/2023,16413,EMPIRE HEALTH FOUNDATION,500.0,0.0,500.0,0.0,0.0,0.0,0.0,0.0,0.0,0.0,500.0,18236,Direct,,,View report (https://accesshub.pdc.wa.gov/node/102370),Human services,Housing,"OFM, Senate Ways and Means, House Appropriations"
471,102360-19784,102360,FE,18036,SUSAN S TRACY,Employer,19784,EVERGREEN TREATMENT SERVICES,23-Feb,3/1/2023,16424,EVERGREEN TREATMENT SERVICES,1200.0,0.0,1200.0,0.0,0.0,0.0,0.0,0.0,0.0,0.0,1200.0,19784,Direct,,,View report (https://accesshub.pdc.wa.gov/node/102360),Health Care,drug treatment,"health care, fiscal, behavioral health"
472,102414-98899,102414,FE,94830,Dr. Avanti Bergquist,Employer,98899,GENENTECH (KATHRYN KOLAN),23-Feb,3/1/2023,16467,GENENTECH,1500.0,0.0,1500.0,0.0,0.0,0.0,0.0,0.0,0.0,0.0,1500.0,98899,Subcontract,17712.0,KATHRYN KOLAN,View report (https://accesshub.pdc.wa.gov/node/102414),,,
478,102381-19076,102381,FE,17704,JAMES L KING JR,Employer,19076,INDEPENDENT BUSINESS ASSN,23-Feb,3/1/2023,16523,INDEPENDENT BUSINESS ASSN,2000.0,0.0,2000.0,0.0,0.0,0.0,0.0,0.0,0.0,0.0,2000.0,19076,Direct,,,View report (https://accesshub.pdc.wa.gov/node/102381),Environmental Affairs - natural resources - parks,SB 5144,S Ways Means
479,97562-18662,97562,FE,17522,ENGAGE STRATEGIES SPC*,Employer,18662,ISLANDWOOD,22-Oct,3/1/2023,16549,ISLANDWOOD,2000.0,0.0,2000.0,0.0,0.0,0.0,0.0,0.0,0.0,0.0,2000.0,18662,Direct,,,View report (https://accesshub.pdc.wa.gov/node/97562),Education,Environmental education--Outdoor school,"Ofm, ospi; H Ed; H Approps; Sen Ed; Sen W&M"
485,97562-55709,97562,FE,17522,ENGAGE STRATEGIES SPC*,Employer,55709,KALISPEL TRIBE,22-Oct,3/1/2023,16570,KALISPEL TRIBE,4000.0,0.0,4000.0,0.0,0.0,0.0,0.0,0.0,0.0,0.0,4000.0,55709,Direct,,,View report (https://accesshub.pdc.wa.gov/node/97562),,,
494,100179-82555,100179,FE,82554,Terique Scott,Employer,82555,LEAGUE OF EDUCATION VOTERS,22-Nov,3/1/2023,16589,LEAGUE OF EDUCATION VOTERS,1186.16,0.0,1186.16,0.0,0.0,0.0,0.0,0.0,0.0,0.0,1186.16,82555,Direct,,,View report (https://accesshub.pdc.wa.gov/node/100179),,,
495,100180-82555,100180,FE,82554,Terique Scott,Employer,82555,LEAGUE OF EDUCATION VOTERS,22-Dec,3/1/2023,16589,LEAGUE OF EDUCATION VOTERS,2400.54,0.0,2400.54,0.0,0.0,0.0,0.0,0.0,0.0,0.0,2400.54,82555,Direct,,,View report (https://accesshub.pdc.wa.gov/node/100180),,,
496,97562-18663,97562,FE,17522,ENGAGE STRATEGIES SPC*,Employer,18663,LUMMI TRIBE,22-Oct,3/1/2023,16610,LUMMI TRIBE,4300.0,0.0,4300.0,0.0,0.0,0.0,0.0,0.0,0.0,0.0,4300.0,18663,Direct,,,View report (https://accesshub.pdc.wa.gov/node/97562),Environmental Affairs - natural resources - parks,Salmon Recovery; Water; Natural Resource funding,OFM; WDFW; RDAN; Ag & NR; H Approps; S Ways and Means
497,97562-23615,97562,FE,17522,ENGAGE STRATEGIES SPC*,Employer,23615,NORTHWEST ENERGY COALITION,22-Oct,3/1/2023,16700,NORTHWEST ENERGY COALITION,1667.0,0.0,1667.0,0.0,0.0,0.0,0.0,0.0,0.0,0.0,1667.0,23615,Direct,,,View report (https://accesshub.pdc.wa.gov/node/97562),Energy and utilities,Energy Policy; Efficiency funding,"Ofm, Commerce, Env and Energy; EET"
498,91837-19187,91837,FE,17771,MARIE SULLIVAN PUBLIC AFFAIRS CORP.,Employer,19187,PASCO SCHOOL DIST,22-Apr,3/1/2023,16766,PASCO SCHOOL DIST,3000.0,0.0,3000.0,0.0,0.0,0.0,0.0,0.0,0.0,0.0,3000.0,19187,Direct,,,View report (https://accesshub.pdc.wa.gov/node/91837),Education,K-12 funding and policy issues,"education, 16th district legislators"
499,91837-19188,91837,FE,17771,MARIE SULLIVAN PUBLIC AFFAIRS CORP.,Employer,19188,QUINAULT INDIAN NATION,22-Apr,3/1/2023,16837,QUINAULT INDIAN NATION,9500.0,0.0,9500.0,0.0,0.0,0.0,0.0,0.0,0.0,0.0,9500.0,19188,Direct,,,View report (https://accesshub.pdc.wa.gov/node/91837),Fiscal,"natural resources, education, budget implementation","Governor's office, WSDOT, transportation committee, capital budget,"
500,102387-19740,102387,FE,18019,MICHAEL TEMPLE,Employer,19740,SPOKANE TRIBE OF INDIANS,23-Feb,3/1/2023,16944,SPOKANE TRIBE OF INDIANS,5000.0,-2500.0,2500.0,0.0,0.0,0.0,0.0,0.0,0.0,0.0,2500.0,19740,Direct,,,View report (https://accesshub.pdc.wa.gov/node/102387),Environmental Affairs - natural resources - parks,Tribal Issues,"Legislature,Governor,AG,DNR,WSGC,WSLCB"
510,102360-19786,102360,FE,18036,SUSAN S TRACY,Employer,19786,WA ACADEMY OF EYE PHYSICIANS & SURGEONS,23-Feb,3/1/2023,17051,WA ACADEMY OF EYE PHYSICIANS & SURGEONS,6500.0,0.0,6500.0,0.0,305.0,0.0,0.0,0.0,0.0,305.0,6805.0,19786,Direct,,,View report (https://accesshub.pdc.wa.gov/node/102360),Health Care,vision care,health care
511,102360-19787,102360,FE,18036,SUSAN S TRACY,Employer,19787,WA AIRPORT MANAGEMENT ASSN,23-Feb,3/1/2023,17056,WA AIRPORT MANAGEMENT ASSN,2500.0,0.0,2500.0,0.0,0.0,0.0,0.0,0.0,0.0,0.0,2500.0,19787,Direct,,,View report (https://accesshub.pdc.wa.gov/node/102360),Transportation,airport management,"Transportation, Environment"
512,102360-19789,102360,FE,18036,SUSAN S TRACY,Employer,19789,"WA Chapter, ACEP",23-Feb,3/1/2023,17069,"WA Chapter, ACEP",2000.0,0.0,2000.0,0.0,200.0,0.0,0.0,0.0,0.0,200.0,2200.0,19789,Direct,,,View report (https://accesshub.pdc.wa.gov/node/102360),Health Care,emergency medicine,"Health Care, Fiscal, Behavioral Health"
513,102391-29092,102391,FE,17542,JACK FIELD,Employer,29092,WA CATTLE FEEDERS ASSN,23-Feb,3/1/2023,17078,WA CATTLE FEEDERS ASSN,1500.0,0.0,1500.0,0.0,0.0,0.0,0.0,0.0,0.0,0.0,1500.0,29092,Direct,,,View report (https://accesshub.pdc.wa.gov/node/102391),Agriculture,5150 beef checkoff and land use issues and labor issues,House and Senate Ag Committies / WSDA / Senate Commerce
519,102388-39844,102388,FE,39843,Cindy Black,Employer,39844,FIX DEMOCRACY FIRST,23-Feb,3/1/2023,17167,FIX DEMOCRACY FIRST,600.0,0.0,600.0,0.0,0.0,0.0,0.0,0.0,0.0,0.0,600.0,39844,Direct,,,View report (https://accesshub.pdc.wa.gov/node/102388),State government,"Elections, Voting, Campaign Finance","State Government, Ways & Means, Appropriations & Rules Committees"
520,102400-19018,102400,FE,17670,ANDREA IMLER,Employer,19018,Washington Trails Association,23-Feb,3/1/2023,17200,Washington Trails Association,2600.0,0.0,2600.0,0.0,0.0,0.0,0.0,0.0,0.0,0.0,2600.0,19018,Direct,,,View report (https://accesshub.pdc.wa.gov/node/102400),Transportation,SB 5314,Senate Transportation
521,102413-19724,102413,FE,18009,AXEL SWANSON,Employer,19724,WA STATE ASSN OF COUNTIES (WSAC),23-Feb,3/1/2023,17215,WA STATE ASSN OF COUNTIES (WSAC),2604.42,0.0,2604.42,0.0,0.0,0.0,0.0,0.0,0.0,0.0,2604.42,19724,Direct,,,View report (https://accesshub.pdc.wa.gov/node/102413),Transportation,Various,Various
522,102415-24517,102415,FE,24516,Juliana Roe,Employer,24517,WA STATE ASSN OF COUNTIES (WSAC),23-Feb,3/1/2023,17215,WA STATE ASSN OF COUNTIES (WSAC),719.2,0.0,719.2,0.0,0.0,0.0,0.0,0.0,0.0,0.0,719.2,24517,Direct,,,View report (https://accesshub.pdc.wa.gov/node/102415),Law and justice,Various,Various
523,102416-45168,102416,FE,45167,Paul Jewell,Employer,45168,WA STATE ASSN OF COUNTIES (WSAC),23-Feb,3/1/2023,17215,WA STATE ASSN OF COUNTIES (WSAC),3739.84,0.0,3739.84,0.0,0.0,0.0,0.0,0.0,0.0,0.0,3739.84,45168,Direct,,,View report (https://accesshub.pdc.wa.gov/node/102416),Environmental Affairs - natural resources - parks,Various,Various
524,102386-49473,102386,FE,46364,Mike Hoover Public Affairs,Employer,49473,WA STATE ASSN OF COUNTIES (WSAC),23-Feb,3/1/2023,17215,WA STATE ASSN OF COUNTIES (WSAC),10000.0,0.0,10000.0,0.0,0.0,0.0,0.0,0.0,0.0,0.0,10000.0,49473,Direct,,,View report (https://accesshub.pdc.wa.gov/node/102386),Local government,Various budget and local government issues,Various legislators and staff
525,102417-98678,102417,FE,98677,Travis Dutton,Employer,98678,WA STATE ASSN OF COUNTIES (WSAC),23-Feb,3/1/2023,17215,WA STATE ASSN OF COUNTIES (WSAC),1523.2,0.0,1523.2,0.0,0.0,0.0,0.0,0.0,0.0,0.0,1523.2,98678,Direct,,,View report (https://accesshub.pdc.wa.gov/node/102417),Local government,Various,Various
526,97562-44980,97562,FE,17522,ENGAGE STRATEGIES SPC*,Employer,44980,WA State Community Action Partnership,22-Oct,3/1/2023,17226,WA State Community Action Partnership,3000.0,0.0,3000.0,0.0,0.0,0.0,0.0,0.0,0.0,0.0,3000.0,44980,Direct,,,View report (https://accesshub.pdc.wa.gov/node/97562),Human services,Budget,OFM; Commerce; DSHS; H Approps; S Ways and Means
527,102414-96093,102414,FE,94830,Dr. Avanti Bergquist,Employer,96093,WA ST HOSPITAL ASSN (KATHRYN KOLAN),23-Feb,3/1/2023,17252,WA ST HOSPITAL ASSN,3250.0,0.0,3250.0,0.0,0.0,0.0,0.0,0.0,0.0,0.0,3250.0,96093,Subcontract,17712.0,KATHRYN KOLAN,View report (https://accesshub.pdc.wa.gov/node/102414),,,
528,102370-86140,102370,FE,17379,ERICA D HALLOCK,Employer,86140,WA ST NURSES ASSN,23-Feb,3/1/2023,17265,WA ST NURSES ASSN,1000.0,0.0,1000.0,0.0,0.0,0.0,0.0,0.0,0.0,0.0,1000.0,86140,Direct,,,View report (https://accesshub.pdc.wa.gov/node/102370),Health Care,"school nurses, HB 1479, nursing issues","House Appropriations, Senate Ways and Means, House Education"
529,102414-96090,102414,FE,94830,Dr. Avanti Bergquist,Employer,96090,WA ST PSYCHIATRIC ASSN (KATHRYN KOLAN),23-Feb,3/1/2023,17270,WA ST PSYCHIATRIC ASSN,1312.5,0.0,1312.5,0.0,0.0,0.0,0.0,0.0,0.0,0.0,1312.5,96090,Subcontract,17712.0,KATHRYN KOLAN,View report (https://accesshub.pdc.wa.gov/node/102414),,,
530,91837-19190,91837,FE,17771,MARIE SULLIVAN PUBLIC AFFAIRS CORP.,Employer,19190,WA ST PTA,22-Apr,3/1/2023,17277,WA ST PTA,6000.0,0.0,6000.0,0.0,0.0,0.0,0.0,0.0,0.0,0.0,6000.0,19190,Direct,,,View report (https://accesshub.pdc.wa.gov/node/91837),Education,"debriefing 2022 session, looking ahead to interim and education","OSPI, education and budget legislators"
531,102360-19793,102360,FE,18036,SUSAN S TRACY,Employer,19793,WA ST SOC OF ORAL/MAXILLOFACIAL SURGERY,23-Feb,3/1/2023,17285,WA ST SOC OF ORAL/MAXILLOFACIAL SURGERY,3000.0,0.0,3000.0,0.0,0.0,0.0,0.0,0.0,0.0,0.0,3000.0,19793,Direct,,,View report (https://accesshub.pdc.wa.gov/node/102360),Health Care,Dental Care,Health Care
532,91837-83316,91837,FE,17771,MARIE SULLIVAN PUBLIC AFFAIRS CORP.,Employer,83316,Public Works  Board,22-Apr,3/1/2023,25309,Public Works  Board,4600.0,0.0,4600.0,0.0,0.0,0.0,0.0,0.0,0.0,0.0,4600.0,83316,Direct,,,View report (https://accesshub.pdc.wa.gov/node/91837),,,
533,102386-92332,102386,FE,46364,Mike Hoover Public Affairs,Employer,92332,Washington State School Directors Association,23-Feb,3/1/2023,31150,Washington State School Directors Association,2500.0,0.0,2500.0,0.0,0.0,0.0,0.0,0.0,0.0,0.0,2500.0,92332,Direct,,,View report (https://accesshub.pdc.wa.gov/node/102386),Education,Various education and funding issues,Various legislators and staff
534,97562-49833,97562,FE,17522,ENGAGE STRATEGIES SPC*,Employer,49833,Sightline Institute,22-Oct,3/1/2023,37788,Sightline Institute,2500.0,0.0,2500.0,0.0,0.0,0.0,0.0,0.0,0.0,0.0,2500.0,49833,Direct,,,View report (https://accesshub.pdc.wa.gov/node/97562),Local government,"Zoning, ADU's; Missing middle","Ofm; Local Government, Housing and Local Government"
535,102392-50339,102392,FE,50337,Dan Bertolet,Employer,50339,Sightline Institute,23-Jan,3/1/2023,37788,Sightline Institute,2996.01,0.0,2996.01,0.0,0.0,0.0,0.0,0.0,0.0,0.0,2996.01,50339,Direct,,,View report (https://accesshub.pdc.wa.gov/node/102392),Environmental Affairs - natural resources - parks,"HB 1110, SB 5190, HB 1351, SB 5456, HB 1337, HB 1245, SB 5364, SB 5466, HB 1042, HB 1026","Reps Barkis, Bateman, Fitzgibbon, Reed, Peterson, Gregerson, Walen, Pollet, Duerr; Sens Liias, Salomon, Frame, Shewmake, Trudeau; Lt.Gov. Heck; Flanagan and Mahgoub (Inslee staffers), Anderson and Tovar (Commerce)"
536,102393-50339,102393,FE,50337,Dan Bertolet,Employer,50339,Sightline Institute,23-Feb,3/1/2023,37788,Sightline Institute,2364.89,0.0,2364.89,0.0,0.0,0.0,0.0,0.0,0.0,0.0,2364.89,50339,Direct,,,View report (https://accesshub.pdc.wa.gov/node/102393),Environmental Affairs - natural resources - parks,"HB 1110, SB 5190, HB 1351, SB 5456, HB 1337, HB 1245, SB 5364, SB 5466, HB 1042, HB 1026, HB 1167, SB 5491, HB 1517","Reps Barkis, Bateman, Fitzgibbon, Reed, Peterson, Gregerson, Walen, Pollet, Duerr, Ormsby; Sens Liias, Salomon, Frame, Shewmake, Trudeau, Billig; Lt.Gov. Heck; Flanagan and Mahgoub (Inslee staffers), Andersen (Commerce)"
537,91837-46250,91837,FE,17771,MARIE SULLIVAN PUBLIC AFFAIRS CORP.,Employer,46250,Walla Walla School District 140,22-Apr,3/1/2023,46249,Walla Walla School District 140,3950.0,0.0,3950.0,0.0,0.0,0.0,0.0,0.0,0.0,0.0,3950.0,46250,Direct,,,View report (https://accesshub.pdc.wa.gov/node/91837),Education,"K12 funding, stabilization, school staffing, skill cneters","education and budget legislators, 16th district"
538,102380-51699,102380,FE,45903,"Doug Mah & Associates, LLC",Employer,51699,Thurston County Chamber of Commerce,23-Feb,3/1/2023,47800,Thurston County Chamber of Commerce,1500.0,0.0,1500.0,0.0,0.0,0.0,0.0,0.0,0.0,0.0,1500.0,51699,Direct,,,View report (https://accesshub.pdc.wa.gov/node/102380),Fiscal,"transportation, CACC, SB5096, HB1743, and capital budget","Representatives and Senators from 2, 20, 22, 35 LDs, House and Senate Transportation Committees, SB 5096- Braun; HB 1743-Couture & Ormsby"
544,102370-49952,102370,FE,17379,ERICA D HALLOCK,Employer,49952,Spokane Guilds' School & Neuromuscular Center DBA Joya,23-Feb,3/1/2023,49902,Spokane Guilds' School & Neuromuscular Center DBA Joya,1000.0,0.0,1000.0,0.0,0.0,0.0,0.0,0.0,0.0,0.0,1000.0,49952,Direct,,,View report (https://accesshub.pdc.wa.gov/node/102370),Human services,"HB 1676, Early Support for Infants and Toddlers","House Human Services, Youth and Early Learning, House Appropriations"
550,91837-60459,91837,FE,17771,MARIE SULLIVAN PUBLIC AFFAIRS CORP.,Employer,60459,Washington MESA,22-Apr,3/1/2023,60420,Washington MESA,3500.0,0.0,3500.0,0.0,0.0,0.0,0.0,0.0,0.0,0.0,3500.0,60459,Direct,,,View report (https://accesshub.pdc.wa.gov/node/91837),Education,introducing WA MESA to legislators,House and Senate education legislators
551,102414-96089,102414,FE,94830,Dr. Avanti Bergquist,Employer,96089,Washington State Medical Oncology Society (KATHRYN KOLAN),23-Feb,3/1/2023,61193,Washington State Medical Oncology Society,1500.0,0.0,1500.0,0.0,0.0,0.0,0.0,0.0,0.0,0.0,1500.0,96089,Subcontract,17712.0,KATHRYN KOLAN,View report (https://accesshub.pdc.wa.gov/node/102414),,,
552,102370-61436,102370,FE,17379,ERICA D HALLOCK,Employer,61436,Start Early,23-Feb,3/1/2023,61435,Start Early,2000.0,0.0,2000.0,0.0,0.0,0.0,0.0,0.0,0.0,0.0,2000.0,61436,Direct,,,View report (https://accesshub.pdc.wa.gov/node/102370),Human services,"early learning, home visiting","House Appropriations, Senate Ways and Means, DCYF, House Human Services, Youth and Early Learning"
553,102402-62545,102402,FE,17958,Erin Shea McCann,Employer,62545,Legal Counsel for Youth and Children,23-Feb,3/1/2023,62542,Legal Counsel for Youth and Children,377.4,0.0,377.4,0.0,0.0,0.0,0.0,0.0,0.0,0.0,377.4,62545,Direct,,,View report (https://accesshub.pdc.wa.gov/node/102402),Human services,OCLA Budget; 1205; 5230,budget leaders; Rep. Taylor; Senate W&M
554,97562-65305,97562,FE,17522,ENGAGE STRATEGIES SPC*,Employer,65305,Washington Outdoor School Consortium on behalf Wa School Principals Education Foundation,22-Oct,3/1/2023,65012,Washington Outdoor School Consortium on behalf Wa School Principals Education Foundation,1000.0,0.0,1000.0,0.0,0.0,0.0,0.0,0.0,0.0,0.0,1000.0,65305,Direct,,,View report (https://accesshub.pdc.wa.gov/node/97562),Education,Budget,Ofm; OSPI; House Ed; House Approps; Sen Ed; Sen W&M
557,91837-70757,91837,FE,17771,MARIE SULLIVAN PUBLIC AFFAIRS CORP.,Employer,70757,Professional Educator Standards Board,22-Apr,3/1/2023,70724,Professional Educator Standards Board,2500.0,0.0,2500.0,0.0,0.0,0.0,0.0,0.0,0.0,0.0,2500.0,70757,Direct,,,View report (https://accesshub.pdc.wa.gov/node/91837),Education,introducing Interim ED to legislators,"education, higher education and budget committee members"
568,102366-76462,102366,FE,72202,Cascade AIDS Project,Employer,76462,Cascade AIDS Project,23-Feb,3/1/2023,76460,Cascade AIDS Project,3432.0,0.0,3432.0,0.0,0.0,0.0,0.0,0.0,0.0,0.0,3432.0,76462,Direct,,,View report (https://accesshub.pdc.wa.gov/node/102366),Health Care,"SB 5142/HB 1408, HB 1269",Senate & House health committees
569,102399-76632,102399,FE,75849,Christopher Carney,Employer,76632,"Carney Gillespie PLLP, on behalf of plaintiffs in Trueblood v. DSHS, 14-CV-1178MJP WD-WA",23-Jan,3/1/2023,76470,"Carney Gillespie PLLP, on behalf of plaintiffs in Trueblood v. DSHS, 14-CV-1178MJP WD-WA",930.0,0.0,930.0,0.0,0.0,0.0,0.0,0.0,0.0,0.0,930.0,76632,Direct,,,View report (https://accesshub.pdc.wa.gov/node/102399),Law and justice,5440,"Governor's office, Senate Law and Justice Committee"
570,102414-95992,102414,FE,94830,Dr. Avanti Bergquist,Employer,95992,AIDS Healthcare Foundation (KATHRYN KOLAN),23-Feb,3/1/2023,80051,AIDS Healthcare Foundation,2000.0,0.0,2000.0,0.0,0.0,0.0,0.0,0.0,0.0,0.0,2000.0,95992,Subcontract,17712.0,KATHRYN KOLAN,View report (https://accesshub.pdc.wa.gov/node/102414),,,
575,102414-96092,102414,FE,94830,Dr. Avanti Bergquist,Employer,96092,AWC Employee Benefit Trust (KATHRYN KOLAN),23-Feb,3/1/2023,85236,AWC Employee Benefit Trust,750.0,0.0,750.0,0.0,0.0,0.0,0.0,0.0,0.0,0.0,750.0,96092,Subcontract,17712.0,KATHRYN KOLAN,View report (https://accesshub.pdc.wa.gov/node/102414),,,
576,102370-86047,102370,FE,17379,ERICA D HALLOCK,Employer,86047,Better Health Togehter,23-Feb,3/1/2023,86046,Better Health Togehter,1500.0,0.0,1500.0,0.0,0.0,0.0,0.0,0.0,0.0,0.0,1500.0,86047,Direct,,,View report (https://accesshub.pdc.wa.gov/node/102370),Human services,"HB 1812, Accountable Communities of Health","House Finance Committee, House Appropriations Committee, Senate Ways and Means"
581,102414-96091,102414,FE,94830,Dr. Avanti Bergquist,Employer,96091,Unite USA dba Unite Us (KATHRYN KOLAN),23-Feb,3/1/2023,86634,Unite USA dba Unite Us,1250.0,0.0,1250.0,0.0,0.0,0.0,0.0,0.0,0.0,0.0,1250.0,96091,Subcontract,17712.0,KATHRYN KOLAN,View report (https://accesshub.pdc.wa.gov/node/102414),,,
594,102370-97053,102370,FE,17379,ERICA D HALLOCK,Employer,97053,Family Impact Network,23-Feb,3/1/2023,97048,Family Impact Network,1000.0,0.0,1000.0,0.0,0.0,0.0,0.0,0.0,0.0,0.0,1000.0,97053,Direct,,,View report (https://accesshub.pdc.wa.gov/node/102370),Human services,"child welfare, Family Time","House Appropriations, Senate Ways and Means, DCYF"
595,102385-100289,102385,FE,100143,Kelly Edwards,Employer,100289,Room One,23-Feb,3/1/2023,100288,Room One,863.2,0.0,863.2,0.0,0.0,0.0,0.0,0.0,0.0,0.0,863.2,100289,Direct,,,View report (https://accesshub.pdc.wa.gov/node/102385),Health Care,HB1095/SB5109,"Rep Kretz and Maycomber, Sen. Short"
596,101167-58824,101167,FE,17712,KATHRYN KOLAN,Employer,58824,AMERICAN INTERNATIONAL GROUP INC  (JEAN M LEONARD*),23-Jan,3/2/2023,16112,AMERICAN INTERNATIONAL GROUP INC,1050.0,0.0,1050.0,0.0,0.0,0.0,0.0,0.0,0.0,0.0,1050.0,58824,Subcontract,17741.0,JEAN M LEONARD*,View report (https://accesshub.pdc.wa.gov/node/101167),,,
597,102447-96542,102447,FE,96360,Deanna Dawson,Employer,96542,ASSN OF WA CITIES,23-Feb,3/2/2023,16168,ASSN OF WA CITIES,289.02,0.0,289.02,0.0,0.0,0.0,0.0,0.0,0.0,0.0,289.02,96542,Direct,,,View report (https://accesshub.pdc.wa.gov/node/102447),Local government,City legislative issues,Various legislators
598,102443-73925,102443,FE,17496,DOTY & ASSOC INC*,Employer,73925,CENTURYLINK,23-Feb,3/2/2023,16244,CENTURYLINK,6500.0,-3000.0,3500.0,0.0,0.0,0.0,0.0,0.0,0.0,0.0,3500.0,73925,Direct,,,View report (https://accesshub.pdc.wa.gov/node/102443),State government,,
599,102445-73930,102445,FE,26001,BMcConsulting,Employer,73930,CENTURYLINK (DOTY & ASSOC INC*),23-Feb,3/2/2023,16244,CENTURYLINK,3000.0,0.0,3000.0,0.0,0.0,0.0,0.0,0.0,0.0,0.0,3000.0,73930,Subcontract,17496.0,DOTY & ASSOC INC*,View report (https://accesshub.pdc.wa.gov/node/102445),,,
600,102423-72741,102423,FE,72740,Child Care Resources,Employer,72741,CHILDHAVEN,23-Feb,3/2/2023,16257,CHILDHAVEN,1000.0,0.0,1000.0,0.0,0.0,0.0,0.0,0.0,0.0,0.0,1000.0,72741,Direct,,,View report (https://accesshub.pdc.wa.gov/node/102423),Constitutions and elections,"ECLIPSE, early learning","HCYF, SK12&EL, Appropriations, Ways & Means"
601,102453-37347,102453,FE,25302,Northwest Solutions,Employer,37347,CITY OF WALLA WALLA,23-Jan,3/2/2023,16271,CITY OF WALLA WALLA,1750.0,0.0,1750.0,0.0,0.0,0.0,0.0,0.0,0.0,0.0,1750.0,37347,Direct,,,View report (https://accesshub.pdc.wa.gov/node/102453),State government,HB 1523,various
602,102425-48529,102425,FE,17828,"Debora Munguia, Capitol Consulting",Employer,48529,CITY OF CHENEY,23-Jan,3/2/2023,16277,CITY OF CHENEY,3000.0,0.0,3000.0,0.0,0.0,0.0,0.0,0.0,0.0,0.0,3000.0,48529,Direct,,,View report (https://accesshub.pdc.wa.gov/node/102425),Local government,local government,legislators
603,102427-48529,102427,FE,17828,"Debora Munguia, Capitol Consulting",Employer,48529,CITY OF CHENEY,23-Feb,3/2/2023,16277,CITY OF CHENEY,3000.0,0.0,3000.0,0.0,0.0,0.0,0.0,0.0,0.0,0.0,3000.0,48529,Direct,,,View report (https://accesshub.pdc.wa.gov/node/102427),Local government,local government,legislators
604,102425-60467,102425,FE,17828,"Debora Munguia, Capitol Consulting",Employer,60467,CITY OF EDMONDS,23-Jan,3/2/2023,16280,CITY OF EDMONDS,3900.0,0.0,3900.0,0.0,0.0,0.0,0.0,0.0,0.0,0.0,3900.0,60467,Direct,,,View report (https://accesshub.pdc.wa.gov/node/102425),Local government,local government,legislators
605,102427-60467,102427,FE,17828,"Debora Munguia, Capitol Consulting",Employer,60467,CITY OF EDMONDS,23-Feb,3/2/2023,16280,CITY OF EDMONDS,3900.0,0.0,3900.0,0.0,0.0,0.0,0.0,0.0,0.0,0.0,3900.0,60467,Direct,,,View report (https://accesshub.pdc.wa.gov/node/102427),Local government,local government,legislators
606,102445-96846,102445,FE,26001,BMcConsulting,Employer,96846,CITY OF KIRKLAND,23-Feb,3/2/2023,16289,CITY OF KIRKLAND,6000.0,-3000.0,3000.0,0.0,0.0,0.0,0.0,0.0,0.0,0.0,3000.0,96846,Direct,,,View report (https://accesshub.pdc.wa.gov/node/102445),State government,,
607,102453-80882,102453,FE,25302,Northwest Solutions,Employer,80882,CITY OF OMAK,23-Jan,3/2/2023,16301,CITY OF OMAK,1750.0,0.0,1750.0,0.0,0.0,0.0,0.0,0.0,0.0,0.0,1750.0,80882,Direct,,,View report (https://accesshub.pdc.wa.gov/node/102453),,,
608,102425-60219,102425,FE,17828,"Debora Munguia, Capitol Consulting",Employer,60219,CITY OF SHORELINE,23-Jan,3/2/2023,16313,CITY OF SHORELINE,4363.6,0.0,4363.6,0.0,0.0,0.0,0.0,0.0,0.0,0.0,4363.6,60219,Direct,,,View report (https://accesshub.pdc.wa.gov/node/102425),Local government,local government,legislators
609,102427-60219,102427,FE,17828,"Debora Munguia, Capitol Consulting",Employer,60219,CITY OF SHORELINE,23-Feb,3/2/2023,16313,CITY OF SHORELINE,4363.6,0.0,4363.6,0.0,0.0,0.0,0.0,0.0,0.0,0.0,4363.6,60219,Direct,,,View report (https://accesshub.pdc.wa.gov/node/102427),Local government,local government,legislators
610,102443-39336,102443,FE,17496,DOTY & ASSOC INC*,Employer,39336,LAMAR ADVERTISING,23-Feb,3/2/2023,16325,LAMAR ADVERTISING,3500.0,0.0,3500.0,0.0,0.0,0.0,0.0,0.0,0.0,0.0,3500.0,39336,Direct,,,View report (https://accesshub.pdc.wa.gov/node/102443),State government,,
611,102443-18566,102443,FE,17496,DOTY & ASSOC INC*,Employer,18566,ENTERPRISE HOLDINGS LLC,23-Feb,3/2/2023,16396,ENTERPRISE HOLDINGS LLC,2500.0,0.0,2500.0,0.0,0.0,0.0,0.0,0.0,0.0,0.0,2500.0,18566,Direct,,,View report (https://accesshub.pdc.wa.gov/node/102443),State government,,
612,101167-58828,101167,FE,17712,KATHRYN KOLAN,Employer,58828,ENTERTAINMENT SOFTWARE ASSN (JEAN M LEONARD*),23-Jan,3/2/2023,16416,ENTERTAINMENT SOFTWARE ASSN,5416.67,0.0,5416.67,0.0,0.0,0.0,0.0,0.0,0.0,0.0,5416.67,58828,Subcontract,17741.0,JEAN M LEONARD*,View report (https://accesshub.pdc.wa.gov/node/101167),,,
613,102443-18567,102443,FE,17496,DOTY & ASSOC INC*,Employer,18567,FIRE SPRINKLER ADVISORY BD OF PUGET SOUND,23-Feb,3/2/2023,16444,FIRE SPRINKLER ADVISORY BD OF PUGET SOUND,2500.0,-1050.0,1450.0,35.0,0.0,0.0,0.0,0.0,0.0,35.0,1485.0,18567,Direct,,,View report (https://accesshub.pdc.wa.gov/node/102443),State government,,
614,102445-26108,102445,FE,26001,BMcConsulting,Employer,26108,FIRE SPRINKLER ADVISORY BD OF PUGET SOUND (DOTY & ASSOC INC*),23-Feb,3/2/2023,16444,FIRE SPRINKLER ADVISORY BD OF PUGET SOUND,1050.0,0.0,1050.0,0.0,0.0,0.0,0.0,0.0,0.0,0.0,1050.0,26108,Subcontract,17496.0,DOTY & ASSOC INC*,View report (https://accesshub.pdc.wa.gov/node/102445),,,
615,101167-98747,101167,FE,17712,KATHRYN KOLAN,Employer,98747,GENENTECH,23-Jan,3/2/2023,16467,GENENTECH,3000.0,-1500.0,1500.0,0.0,0.0,0.0,0.0,0.0,0.0,0.0,1500.0,98747,Direct,,,View report (https://accesshub.pdc.wa.gov/node/101167),Health Care,Health Care,Legislative Committees
616,101167-95260,101167,FE,17712,KATHRYN KOLAN,Employer,95260,Greater Seattle Business Assn,23-Jan,3/2/2023,16485,Greater Seattle Business Assn,3000.0,-1500.0,1500.0,0.0,0.0,0.0,0.0,0.0,0.0,0.0,1500.0,95260,Direct,,,View report (https://accesshub.pdc.wa.gov/node/101167),Business and consumer affairs,"Business, LGBTQ+",Legislative Committees
617,102443-18568,102443,FE,17496,DOTY & ASSOC INC*,Employer,18568,KITSAP TRANSIT,23-Feb,3/2/2023,16581,KITSAP TRANSIT,5450.0,0.0,5450.0,35.0,0.0,0.0,0.0,0.0,0.0,35.0,5485.0,18568,Direct,,,View report (https://accesshub.pdc.wa.gov/node/102443),State government,,
618,102425-82456,102425,FE,17828,"Debora Munguia, Capitol Consulting",Employer,82456,MASON CO,23-Jan,3/2/2023,16620,MASON CO,4000.0,0.0,4000.0,0.0,0.0,0.0,0.0,0.0,0.0,0.0,4000.0,82456,Direct,,,View report (https://accesshub.pdc.wa.gov/node/102425),Local government,local government,legislators
619,102427-82456,102427,FE,17828,"Debora Munguia, Capitol Consulting",Employer,82456,MASON CO,23-Feb,3/2/2023,16620,MASON CO,4000.0,0.0,4000.0,0.0,0.0,0.0,0.0,0.0,0.0,0.0,4000.0,82456,Direct,,,View report (https://accesshub.pdc.wa.gov/node/102427),Local government,local government,legislators
620,102443-18569,102443,FE,17496,DOTY & ASSOC INC*,Employer,18569,MUCKLESHOOT INDIAN TRIBE,23-Feb,3/2/2023,16650,MUCKLESHOOT INDIAN TRIBE,9782.5,0.0,9782.5,0.0,0.0,0.0,0.0,0.0,0.0,0.0,9782.5,18569,Direct,,,View report (https://accesshub.pdc.wa.gov/node/102443),State government,,
621,101167-58829,101167,FE,17712,KATHRYN KOLAN,Employer,58829,NATIONWIDE INSURANCE (JEAN M LEONARD*),23-Jan,3/2/2023,16676,NATIONWIDE INSURANCE,1500.0,0.0,1500.0,0.0,0.0,0.0,0.0,0.0,0.0,0.0,1500.0,58829,Subcontract,17741.0,JEAN M LEONARD*,View report (https://accesshub.pdc.wa.gov/node/101167),,,
622,102453-60682,102453,FE,25302,Northwest Solutions,Employer,60682,NoaNet,23-Jan,3/2/2023,16690,NoaNet,6500.0,0.0,6500.0,0.0,0.0,0.0,0.0,0.0,0.0,0.0,6500.0,60682,Direct,,,View report (https://accesshub.pdc.wa.gov/node/102453),,,
623,102443-18571,102443,FE,17496,DOTY & ASSOC INC*,Employer,18571,PARATRANSIT SERVICES,23-Feb,3/2/2023,16762,PARATRANSIT SERVICES,3000.0,0.0,3000.0,35.0,0.0,0.0,0.0,0.0,0.0,35.0,3035.0,18571,Direct,,,View report (https://accesshub.pdc.wa.gov/node/102443),State government,,
624,102431-101877,102431,FE,101865,Fahren Johnson,Employer,101877,SCHOOLS OUT WA,23-Feb,3/2/2023,16883,SCHOOLS OUT WA,912.0,0.0,912.0,8.0,0.0,0.0,0.0,0.0,0.0,8.0,920.0,101877,Direct,,,View report (https://accesshub.pdc.wa.gov/node/102431),Human services,HB1386 SB5601,"House Human Services, Youth, and Early Committee; House Appropriations Committee, Senate Human Services Committee; Senate Ways & Means Committee; DCYF"
625,102440-37661,102440,FE,37660,Tim Strickland,Employer,37661,PEACEHEALTH,23-Feb,3/2/2023,16934,PEACEHEALTH,8000.0,0.0,8000.0,0.0,0.0,0.0,0.0,0.0,0.0,0.0,8000.0,37661,Direct,,,View report (https://accesshub.pdc.wa.gov/node/102440),Health Care,"Healthcare workforce shortage, timeliness of DSHS patient functional assessments; DDA post-acute placements; 5103; 5241; 5393; 1417; 1508; 1593; 1643; 5103; 5120; 5236; 5499","Cleveland, Muzzall, Schmick, Barnard, Harris, Padden, Robinson, Holy, Tharinger, Thai, Graham, Rule, Stonier, Wylie, L. Wilson, J. Wilson, Hutchins, Timmons, McClintock, Rivers, Waters, Low, Shewmake, Wagoner, DDA staff"
626,102443-80005,102443,FE,17496,DOTY & ASSOC INC*,Employer,80005,"GB AUCTIONS, INC",23-Feb,3/2/2023,16940,"GB AUCTIONS, INC",2500.0,0.0,2500.0,35.0,0.0,0.0,0.0,0.0,0.0,35.0,2535.0,80005,Direct,,,View report (https://accesshub.pdc.wa.gov/node/102443),State government,,
627,101167-58831,101167,FE,17712,KATHRYN KOLAN,Employer,58831,STATE FARM INSURANCE COMPANIES (JEAN M LEONARD*),23-Jan,3/2/2023,16951,STATE FARM INSURANCE COMPANIES,2700.0,0.0,2700.0,0.0,0.0,0.0,0.0,0.0,0.0,0.0,2700.0,58831,Subcontract,17741.0,JEAN M LEONARD*,View report (https://accesshub.pdc.wa.gov/node/101167),,,
628,101167-58832,101167,FE,17712,KATHRYN KOLAN,Employer,58832,WA INSURERS (JEAN M LEONARD*),23-Jan,3/2/2023,17130,WA INSURERS,2550.0,0.0,2550.0,0.0,0.0,0.0,0.0,0.0,0.0,0.0,2550.0,58832,Subcontract,17741.0,JEAN M LEONARD*,View report (https://accesshub.pdc.wa.gov/node/101167),,,
629,102443-18574,102443,FE,17496,DOTY & ASSOC INC*,Employer,18574,WA REFLEXOLOGY ASSN,23-Feb,3/2/2023,17177,WA REFLEXOLOGY ASSN,250.0,-125.0,125.0,0.0,0.0,0.0,0.0,0.0,0.0,0.0,125.0,18574,Direct,,,View report (https://accesshub.pdc.wa.gov/node/102443),State government,,
