,id,report_number,origin,filer_id,filer_name,type,funding_source_id,funding_source_name,filing_period,receipt_date,employer_id,employer_name,compensation,sub_lobbyist_compensation,net_compensation,personal_expenses,entertainment,contributions,advertising,political_ads,other,total_expenses,net_total,employment_registration_id,employment_type,contractor_id,contractor_name,url,legislation_subject_matter,issue_bill_number,committee_lobbied
55000,57716-46250,57716,FE,17771,MARIE SULLIVAN PUBLIC AFFAIRS CORP.,Employer,46250,Walla Walla School District 140,19-Jul,8/12/2019,46249.0,Walla Walla School District 140,3000.0,0.0,3000.0,0.0,0.0,0.0,0.0,0.0,0.0,0.0,3000.0,46250.0,Direct,,,View report (https://accesshub.pdc.wa.gov/node/57716),,,
55003,57681-53261,57681,FE,17437,Scott Cave,Employer,53261,King County Juvenile Detention Guild,19-Jun,8/12/2019,53259.0,King County Juvenile Detention Guild,2500.0,0.0,2500.0,0.0,0.0,0.0,0.0,0.0,0.0,0.0,2500.0,53261.0,Direct,,,View report (https://accesshub.pdc.wa.gov/node/57681),Labor,PSERS and PERS 2 isses for retirement,Select Committee on Pension Policy and stakeholders
55004,57659-53976,57659,FE,17666,ALEX HUR,Employer,53976,Postmates,19-Jul,8/12/2019,53975.0,Postmates,5000.0,0.0,5000.0,0.0,0.0,0.0,0.0,0.0,0.0,0.0,5000.0,53976.0,Direct,,,View report (https://accesshub.pdc.wa.gov/node/57659),Technology,"Data privacy, independent contractors","Innovation/Tech, Tech, Labor"
55006,57778-18649,57778,FE,17520,Emerick & Bloom,Employer,18649,Washington Acupuncture and Eastern Medicine Association,19-Jul,8/13/2019,16067.0,Washington Acupuncture and Eastern Medicine Association,3500.0,0.0,3500.0,0.0,0.0,0.0,0.0,0.0,0.0,0.0,3500.0,18649.0,Direct,,,View report (https://accesshub.pdc.wa.gov/node/57778),Higher education,Acupuncture & Eastern Medicine,DOH
55007,56039-18283,56039,FE,17398,BOSWELL CONSULTING*,Employer,18283,AMERICAN INSTITUTE OF ARCHITECTS WA COUNCIL,19-May,8/13/2019,16076.0,AMERICAN INSTITUTE OF ARCHITECTS WA COUNCIL,1750.0,-399.0,1351.0,0.0,0.0,0.0,0.0,0.0,0.0,0.0,1351.0,18283.0,Direct,,,View report (https://accesshub.pdc.wa.gov/node/56039),Business and consumer affairs,various,various
55008,57379-24862,57379,FE,18045,Amber Ulvenes,Employer,24862,ALZHEIMERS ASSN WA ST CHAPTER,19-Jul,8/13/2019,16086.0,ALZHEIMERS ASSN WA ST CHAPTER,1000.0,0.0,1000.0,0.0,0.0,0.0,0.0,0.0,0.0,0.0,1000.0,24862.0,Direct,,,View report (https://accesshub.pdc.wa.gov/node/57379),Health Care,FTE funding to support DAC,"Health Care & Appropriations Committees, Jt Selected Comm on Aging & Disability"
55009,57402-19723,57402,FE,18008,Eileen Sullivan,Employer,19723,AMAZON.COM SERVICES LLC,19-Jul,8/13/2019,16088.0,AMAZON.COM SERVICES LLC,230.7,0.0,230.7,0.0,7502.87,10000.0,0.0,0.0,0.0,17502.87,17733.57,19723.0,Direct,,,View report (https://accesshub.pdc.wa.gov/node/57402),Technology,Privacy legislation,Legislature
55010,57740-53843,57740,FE,53842,Jennifer Thibodeau,Employer,53843,AMAZON.COM SERVICES LLC,19-Jul,8/13/2019,16088.0,AMAZON.COM SERVICES LLC,4600.0,0.0,4600.0,0.0,0.0,0.0,0.0,0.0,0.0,0.0,4600.0,53843.0,Direct,,,View report (https://accesshub.pdc.wa.gov/node/57740),Technology,Cloud First,Legislature; Washington Technology Solutions
55011,57379-35034,57379,FE,18045,Amber Ulvenes,Employer,35034,AMERICAN ACADEMY OF PEDIATRICS-WA CHAPTER,19-Jul,8/13/2019,16090.0,AMERICAN ACADEMY OF PEDIATRICS-WA CHAPTER,2916.67,0.0,2916.67,0.0,0.0,0.0,0.0,0.0,0.0,0.0,2916.67,35034.0,Direct,,,View report (https://accesshub.pdc.wa.gov/node/57379),Health Care,"Medicaid reimbursement, children's mental health","HCA, Health Care Committees, appropriation committees"
55012,57775-19656,57775,FE,17983,STAUFFACHER COMMUNICATIONS*,Employer,19656,AMERICAN TRAFFIC SOLUTIONS INC,19-Jul,8/13/2019,16124.0,AMERICAN TRAFFIC SOLUTIONS INC,4500.0,-2250.0,2250.0,0.0,0.0,0.0,0.0,0.0,0.0,0.0,2250.0,19656.0,Direct,,,View report (https://accesshub.pdc.wa.gov/node/57775),Transportation,Traffic safety cameras,House & Senate Transportation Cmtes.
55013,57775-52462,57775,FE,17983,STAUFFACHER COMMUNICATIONS*,Employer,52462,APPLE INC,19-Jul,8/13/2019,16131.0,APPLE INC,5000.0,0.0,5000.0,0.0,0.0,0.0,0.0,0.0,0.0,0.0,5000.0,52462.0,Direct,,,View report (https://accesshub.pdc.wa.gov/node/57775),,,
55015,57775-19658,57775,FE,17983,STAUFFACHER COMMUNICATIONS*,Employer,19658,BUILDING INDUSTRY ASSN OF WA,19-Jul,8/13/2019,16215.0,BUILDING INDUSTRY ASSN OF WA,6000.0,0.0,6000.0,0.0,0.0,0.0,0.0,0.0,0.0,0.0,6000.0,19658.0,Direct,,,View report (https://accesshub.pdc.wa.gov/node/57775),Local government,Schools and GMA,House Env and Sen Local Gov Committees.
55016,57775-19659,57775,FE,17983,STAUFFACHER COMMUNICATIONS*,Employer,19659,BURLINGTON NORTHERN SANTA FE RAILROAD,19-Jul,8/13/2019,16217.0,BURLINGTON NORTHERN SANTA FE RAILROAD,6250.0,0.0,6250.0,0.0,21.82,0.0,0.0,0.0,0.0,21.82,6271.82,19659.0,Direct,,,View report (https://accesshub.pdc.wa.gov/node/57775),Energy and utilities,Oil and coal export facilities,Senate EET Cmte; House TED Cmte.
55017,55962-49849,55962,FE,17448,"DONNA CHRISTENSEN, PACIFIC GOVERNMENT AFFAIRS",Employer,49849,Catholic Community Services of Western WA,19-May,8/13/2019,16239.0,Catholic Community Services of Western WA,5000.0,0.0,5000.0,0.0,0.0,0.0,0.0,0.0,0.0,0.0,5000.0,49849.0,Direct,,,View report (https://accesshub.pdc.wa.gov/node/55962),Human services,poverty,"Human services, budget committees, Commerce, DSHS, DCYF"
55018,57067-49849,57067,FE,17448,"DONNA CHRISTENSEN, PACIFIC GOVERNMENT AFFAIRS",Employer,49849,Catholic Community Services of Western WA,19-Jun,8/13/2019,16239.0,Catholic Community Services of Western WA,5000.0,0.0,5000.0,0.0,0.0,0.0,0.0,0.0,0.0,0.0,5000.0,49849.0,Direct,,,View report (https://accesshub.pdc.wa.gov/node/57067),Human services,poverty,"Human services, budget committees, Commerce, DSHS, DCYF"
55019,57763-49849,57763,FE,17448,"DONNA CHRISTENSEN, PACIFIC GOVERNMENT AFFAIRS",Employer,49849,Catholic Community Services of Western WA,19-Jul,8/13/2019,16239.0,Catholic Community Services of Western WA,5000.0,0.0,5000.0,0.0,0.0,0.0,0.0,0.0,0.0,0.0,5000.0,49849.0,Direct,,,View report (https://accesshub.pdc.wa.gov/node/57763),Human services,poverty,"Human services, budget committees, Commerce, DSHS, DCYF"
55022,57748-18678,57748,FE,17530,LORI EVANS,Employer,18678,TECK AMERICAN/TECK WA,19-Jul,8/13/2019,16345.0,TECK AMERICAN/TECK WA,3000.0,0.0,3000.0,0.0,0.0,0.0,0.0,0.0,0.0,0.0,3000.0,18678.0,Direct,,,View report (https://accesshub.pdc.wa.gov/node/57748),Environmental Affairs - natural resources - parks,lead rule,L and I
55023,57775-19661,57775,FE,17983,STAUFFACHER COMMUNICATIONS*,Employer,19661,Centene Corporation on behalf of its affiliates and subsidiaries,19-Jul,8/13/2019,16367.0,Centene Corporation on behalf of its affiliates and subsidiaries,10000.0,0.0,10000.0,0.0,0.0,0.0,0.0,0.0,0.0,0.0,10000.0,19661.0,Direct,,,View report (https://accesshub.pdc.wa.gov/node/57775),Health Care,Medicaid rates; health insurer regulations and proposed legislation; HCA budget proposals.,House and Senate Health Care Cmtes; House Appropriations Cmte; Senate Ways & Means Cmte; HCA; OIC; OFM; Office of the Governor.
55024,57775-19662,57775,FE,17983,STAUFFACHER COMMUNICATIONS*,Employer,19662,DISH Network Corporation,19-Jul,8/13/2019,16390.0,DISH Network Corporation,6000.0,0.0,6000.0,0.0,0.0,0.0,0.0,0.0,0.0,0.0,6000.0,19662.0,Direct,,,View report (https://accesshub.pdc.wa.gov/node/57775),Fiscal,Taxation,House Finance Cmte; Senate Ways & Means Cmte; OFM; DOR.
55025,56039-54851,56039,FE,17398,BOSWELL CONSULTING*,Employer,54851,EAZE,19-May,8/13/2019,16401.0,EAZE,6000.0,0.0,6000.0,0.0,0.0,0.0,0.0,0.0,0.0,0.0,6000.0,54851.0,Direct,,,View report (https://accesshub.pdc.wa.gov/node/56039),Business and consumer affairs,various,various
55026,57493-19432,57493,FE,17879,THOMAS M PARKER,Employer,19432,GONZAGA UNIVERSITY,19-Jul,8/13/2019,16474.0,GONZAGA UNIVERSITY,2500.0,0.0,2500.0,0.0,0.0,0.0,0.0,0.0,0.0,0.0,2500.0,19432.0,Direct,,,View report (https://accesshub.pdc.wa.gov/node/57493),Higher education,HIGHER ED,FISCAL HIGHER ED
55027,56039-18285,56039,FE,17398,BOSWELL CONSULTING*,Employer,18285,GREATER SEATTLE CHAMBER OF COMMERCE,19-May,8/13/2019,16483.0,GREATER SEATTLE CHAMBER OF COMMERCE,6250.0,-399.0,5851.0,0.0,0.0,0.0,0.0,0.0,0.0,0.0,5851.0,18285.0,Direct,,,View report (https://accesshub.pdc.wa.gov/node/56039),Local government,various,various
55028,57778-18651,57778,FE,17520,Emerick & Bloom,Employer,18651,HOME CARE ASSN OF WA,19-Jul,8/13/2019,16509.0,HOME CARE ASSN OF WA,3700.0,0.0,3700.0,0.0,0.0,0.0,0.0,0.0,0.0,0.0,3700.0,18651.0,Direct,,,View report (https://accesshub.pdc.wa.gov/node/57778),Health Care,In-Home Services,"DOH, HCA"
55029,57775-19664,57775,FE,17983,STAUFFACHER COMMUNICATIONS*,Employer,19664,INDEPENDENT INS AGENTS & BROKERS OF WA,19-Jul,8/13/2019,16525.0,INDEPENDENT INS AGENTS & BROKERS OF WA,3650.0,0.0,3650.0,0.0,0.0,0.0,0.0,0.0,0.0,0.0,3650.0,19664.0,Direct,,,View report (https://accesshub.pdc.wa.gov/node/57775),Financial institutions and insurance,Property/Casualty insurance regulation; rebating and inducement issues,House Business & Financial Services Cmte; Senate Financial Institutions & Insurance Cmte; OIC.
55030,57766-18662,57766,FE,17522,ENGAGE STRATEGIES SPC*,Employer,18662,ISLANDWOOD,19-Jun,8/13/2019,16549.0,ISLANDWOOD,2500.0,0.0,2500.0,0.0,0.0,0.0,0.0,0.0,0.0,0.0,2500.0,18662.0,Direct,,,View report (https://accesshub.pdc.wa.gov/node/57766),Education,Outdoore ed and rec funding; env education funding,Sen Ways and Means; House Approps; Cap budget; OFM; RCO; OSPI
55031,57768-18662,57768,FE,17522,ENGAGE STRATEGIES SPC*,Employer,18662,ISLANDWOOD,19-Jul,8/13/2019,16549.0,ISLANDWOOD,2500.0,0.0,2500.0,0.0,0.0,0.0,0.0,0.0,0.0,0.0,2500.0,18662.0,Direct,,,View report (https://accesshub.pdc.wa.gov/node/57768),Education,Outdoore ed and rec funding; env education funding,Sen Ways and Means; House Approps; Cap budget; OFM; RCO; OSPI
55032,57379-28555,57379,FE,18045,Amber Ulvenes,Employer,28555,Kaiser Foundation Health Plan of the Northwest,19-Jul,8/13/2019,16569.0,Kaiser Foundation Health Plan of the Northwest,1350.0,0.0,1350.0,0.0,0.0,0.0,0.0,0.0,0.0,0.0,1350.0,28555.0,Direct,,,View report (https://accesshub.pdc.wa.gov/node/57379),Health Care,Various health care issues,"Health Care Committees, HCA, OFM"
55033,57766-55709,57766,FE,17522,ENGAGE STRATEGIES SPC*,Employer,55709,KALISPEL TRIBE,19-Jun,8/13/2019,16570.0,KALISPEL TRIBE,4000.0,0.0,4000.0,0.0,0.0,0.0,0.0,0.0,0.0,0.0,4000.0,55709.0,Direct,,,View report (https://accesshub.pdc.wa.gov/node/57766),Environmental Affairs - natural resources - parks,Air quality,Governor's Office; Commerce; Dept of Ecology; House Env
55034,57768-55709,57768,FE,17522,ENGAGE STRATEGIES SPC*,Employer,55709,KALISPEL TRIBE,19-Jul,8/13/2019,16570.0,KALISPEL TRIBE,4000.0,0.0,4000.0,0.0,0.0,0.0,0.0,0.0,0.0,0.0,4000.0,55709.0,Direct,,,View report (https://accesshub.pdc.wa.gov/node/57768),Environmental Affairs - natural resources - parks,Air quality; Proposed Newport Smelter,Governor's Office; Commerce; Dept of Ecology; House Env
55035,57775-19665,57775,FE,17983,STAUFFACHER COMMUNICATIONS*,Employer,19665,LEGACY HEALTH SYSTEM,19-Jul,8/13/2019,16592.0,LEGACY HEALTH SYSTEM,5000.0,0.0,5000.0,0.0,0.0,0.0,0.0,0.0,0.0,0.0,5000.0,19665.0,Direct,,,View report (https://accesshub.pdc.wa.gov/node/57775),Health Care,Health care budget proposals; state-federal waiver funding agreement.,House and Senate Health Care Cmtes; House Appropriations Cmte; Senate Ways & Means Cmte; HCA; OIC; OFM; Office of the Governor.
55036,57766-18663,57766,FE,17522,ENGAGE STRATEGIES SPC*,Employer,18663,LUMMI TRIBE,19-Jun,8/13/2019,16610.0,LUMMI TRIBE,4300.0,0.0,4300.0,0.0,0.0,0.0,0.0,0.0,0.0,0.0,4300.0,18663.0,Direct,,,View report (https://accesshub.pdc.wa.gov/node/57766),Environmental Affairs - natural resources - parks,Water; natural resources; taxes; transportation; human services; education,House AGNR; Sen AG; Sen Natural Res. OFM; RCO; WDFW
55037,57768-18663,57768,FE,17522,ENGAGE STRATEGIES SPC*,Employer,18663,LUMMI TRIBE,19-Jul,8/13/2019,16610.0,LUMMI TRIBE,4300.0,0.0,4300.0,0.0,0.0,0.0,0.0,0.0,0.0,0.0,4300.0,18663.0,Direct,,,View report (https://accesshub.pdc.wa.gov/node/57768),Environmental Affairs - natural resources - parks,Water; natural resources; taxes; transportation; human services; education,House AGNR; Sen AG; Sen Natural Res. OFM; RCO; WDFW
55038,57379-19818,57379,FE,18045,Amber Ulvenes,Employer,19818,MIDWIVES ASSOCIATION OF WA STATE,19-Jul,8/13/2019,16637.0,MIDWIVES ASSOCIATION OF WA STATE,1500.0,0.0,1500.0,0.0,0.0,0.0,0.0,0.0,0.0,0.0,1500.0,19818.0,Direct,,,View report (https://accesshub.pdc.wa.gov/node/57379),Health Care,"licensing fees, doula reimbursement","dept of health, HCA"
55039,57493-19434,57493,FE,17879,THOMAS M PARKER,Employer,19434,MT SPOKANE 2000,19-Jul,8/13/2019,16649.0,MT SPOKANE 2000,3000.0,0.0,3000.0,0.0,0.0,0.0,0.0,0.0,0.0,0.0,3000.0,19434.0,Direct,,,View report (https://accesshub.pdc.wa.gov/node/57493),Environmental Affairs - natural resources - parks,FISCAL,SEN HOUSE FISCAL COMMITTEES
55040,56039-18287,56039,FE,17398,BOSWELL CONSULTING*,Employer,18287,NORTHWEST AUTOMATIC VENDING ASSN,19-May,8/13/2019,16699.0,NORTHWEST AUTOMATIC VENDING ASSN,1500.0,-399.0,1101.0,0.0,0.0,0.0,0.0,0.0,0.0,0.0,1101.0,18287.0,Direct,,,View report (https://accesshub.pdc.wa.gov/node/56039),Business and consumer affairs,various,various
55041,57766-23615,57766,FE,17522,ENGAGE STRATEGIES SPC*,Employer,23615,NORTHWEST ENERGY COALITION,19-Jun,8/13/2019,16700.0,NORTHWEST ENERGY COALITION,1667.0,0.0,1667.0,0.0,0.0,0.0,0.0,0.0,0.0,0.0,1667.0,23615.0,Direct,,,View report (https://accesshub.pdc.wa.gov/node/57766),Environmental Affairs - natural resources - parks,Environmental Justice and health disparities,"House Approps, Sen Ways and Menas"
55042,57768-23615,57768,FE,17522,ENGAGE STRATEGIES SPC*,Employer,23615,NORTHWEST ENERGY COALITION,19-Jul,8/13/2019,16700.0,NORTHWEST ENERGY COALITION,1667.0,0.0,1667.0,0.0,0.0,0.0,0.0,0.0,0.0,0.0,1667.0,23615.0,Direct,,,View report (https://accesshub.pdc.wa.gov/node/57768),Environmental Affairs - natural resources - parks,Environmental Justice and health disparities,"House Approps, Sen Ways and Menas"
55043,57775-19667,57775,FE,17983,STAUFFACHER COMMUNICATIONS*,Employer,19667,Northwest Pulp & Paper Association,19-Jul,8/13/2019,16717.0,Northwest Pulp & Paper Association,3000.0,0.0,3000.0,0.0,0.0,0.0,0.0,0.0,0.0,0.0,3000.0,19667.0,Direct,,,View report (https://accesshub.pdc.wa.gov/node/57775),Energy and utilities,Carbon reduction proposals,House Environment Cmte; Senate EET Cmte; House TED Cmte; legislators with pulp & paper mills in their districts.
55044,56039-18288,56039,FE,17398,BOSWELL CONSULTING*,Employer,18288,NUCOR STEEL SEATTLE INC,19-May,8/13/2019,16727.0,NUCOR STEEL SEATTLE INC,4500.0,-399.0,4101.0,0.0,0.0,0.0,0.0,0.0,0.0,0.0,4101.0,18288.0,Direct,,,View report (https://accesshub.pdc.wa.gov/node/56039),Business and consumer affairs,various,various
55045,57775-19668,57775,FE,17983,STAUFFACHER COMMUNICATIONS*,Employer,19668,PACIFIC PRINTING INDUSTRIES ASSN,19-Jul,8/13/2019,16756.0,PACIFIC PRINTING INDUSTRIES ASSN,1500.0,0.0,1500.0,0.0,0.0,0.0,0.0,0.0,0.0,0.0,1500.0,19668.0,Direct,,,View report (https://accesshub.pdc.wa.gov/node/57775),Fiscal,Taxation,House Finance Cmte; Senate Ways & Means Cmte; OFM; DOR; DES.
55047,56039-18289,56039,FE,17398,BOSWELL CONSULTING*,Employer,18289,MC Construction,19-May,8/13/2019,16790.0,MC Construction,3000.0,-399.0,2601.0,0.0,0.0,0.0,0.0,0.0,0.0,0.0,2601.0,18289.0,Direct,,,View report (https://accesshub.pdc.wa.gov/node/56039),Business and consumer affairs,various,various
55048,57748-18679,57748,FE,17530,LORI EVANS,Employer,18679,POPE RESOURCES/OLYMPIC PROP GROUP/OLYMPIC RESOURCE MGMT INC,19-Jul,8/13/2019,16791.0,POPE RESOURCES/OLYMPIC PROP GROUP/OLYMPIC RESOURCE MGMT INC,2250.0,0.0,2250.0,0.0,0.0,0.0,0.0,0.0,0.0,0.0,2250.0,18679.0,Direct,,,View report (https://accesshub.pdc.wa.gov/node/57748),Environmental Affairs - natural resources - parks,herbicide,DNR and Dept of Ag
55049,56039-49202,56039,FE,17398,BOSWELL CONSULTING*,Employer,49202,PORT OF KALAMA,19-May,8/13/2019,16800.0,PORT OF KALAMA,2500.0,0.0,2500.0,0.0,0.0,0.0,0.0,0.0,0.0,0.0,2500.0,49202.0,Direct,,,View report (https://accesshub.pdc.wa.gov/node/56039),Transportation,various,various
55050,57777-19451,57777,FE,17887,SVEN PETERSON,Employer,19451,PREMERA BLUE CROSS,19-Jul,8/13/2019,16812.0,PREMERA BLUE CROSS,299.04,0.0,299.04,0.0,0.0,0.0,0.0,0.0,0.0,0.0,299.04,19451.0,Direct,,,View report (https://accesshub.pdc.wa.gov/node/57777),Health Care,Misc Regulatory Issues,Office of the Insurance Commissioner
55051,57783-45767,57783,FE,17998,GARY STRANNIGAN,Employer,45767,PREMERA BLUE CROSS,19-Jul,8/13/2019,16812.0,PREMERA BLUE CROSS,327.0,0.0,327.0,13.45,216.75,0.0,0.0,0.0,0.0,230.2,557.2,45767.0,Direct,,,View report (https://accesshub.pdc.wa.gov/node/57783),Health Care,Legislative and Party Campaigns,WA State Legislators
55052,57774-47305,57774,FE,47294,MEGAN HOWELL,Employer,47305,PREMERA BLUE CROSS,19-Jul,8/13/2019,16812.0,PREMERA BLUE CROSS,309.0,0.0,309.0,0.0,0.0,0.0,0.0,0.0,0.0,0.0,309.0,47305.0,Direct,,,View report (https://accesshub.pdc.wa.gov/node/57774),Health Care,Misc. Regulatory Items,Office of the Insurance Commissioner
55053,57765-19377,57765,FE,17857,NINA ODELL,Employer,19377,PUGET SOUND ENERGY INC,19-Jul,8/13/2019,16828.0,PUGET SOUND ENERGY INC,3247.0,0.0,3247.0,0.0,0.0,0.0,0.0,0.0,0.0,0.0,3247.0,19377.0,Direct,,,View report (https://accesshub.pdc.wa.gov/node/57765),Energy and utilities,Energy,"Legislature, Governor's Office"
55054,57801-28338,57801,FE,17653,BRANDON HOUSKEEPER,Employer,28338,PUGET SOUND ENERGY INC,19-Jul,8/13/2019,16828.0,PUGET SOUND ENERGY INC,8500.0,0.0,8500.0,1206.7,0.0,18500.0,0.0,0.0,0.0,19706.7,28206.7,28338.0,Direct,,,View report (https://accesshub.pdc.wa.gov/node/57801),Energy and utilities,Clean Electricity Implementation,"UTC, Commerce, Legisalture"
55055,57761-19901,57761,FE,18096,BRUCE WISHART,Employer,19901,PUGET SOUND KEEPER ALLIANCE,19-Jul,8/13/2019,16829.0,PUGET SOUND KEEPER ALLIANCE,1800.0,0.0,1800.0,0.0,0.0,0.0,0.0,0.0,0.0,0.0,1800.0,19901.0,Direct,,,View report (https://accesshub.pdc.wa.gov/node/57761),Environmental Affairs - natural resources - parks,water quality issues,"Department of Ecology, Department of Health"
55056,57775-19669,57775,FE,17983,STAUFFACHER COMMUNICATIONS*,Employer,19669,Rayonier,19-Jul,8/13/2019,16841.0,Rayonier,3000.0,0.0,3000.0,0.0,0.0,0.0,0.0,0.0,0.0,0.0,3000.0,19669.0,Direct,,,View report (https://accesshub.pdc.wa.gov/node/57775),Fiscal,Taxation,House Finance Committee; Senate Ways & Means Committee
55057,57379-19820,57379,FE,18045,Amber Ulvenes,Employer,19820,RESOLUTION WA,19-Jul,8/13/2019,16856.0,RESOLUTION WA,750.0,0.0,750.0,0.0,0.0,0.0,0.0,0.0,0.0,0.0,750.0,19820.0,Direct,,,View report (https://accesshub.pdc.wa.gov/node/57379),Law and justice,DRC funding,"Dept of Commerce, Law & Justice and Judiciary Committees, OFM"
55058,57761-19902,57761,FE,18096,BRUCE WISHART,Employer,19902,Sierra Club,19-Jul,8/13/2019,16915.0,Sierra Club,1400.0,0.0,1400.0,0.0,0.0,0.0,0.0,0.0,0.0,0.0,1400.0,19902.0,Direct,,,View report (https://accesshub.pdc.wa.gov/node/57761),Environmental Affairs - natural resources - parks,"Climate, water resources, environmental issues","Department of Ecology, House Environment Committee, Senate Energy and Environment Committee"
55059,57493-42422,57493,FE,17879,THOMAS M PARKER,Employer,42422,SIGNATURE HEALTHCARE SERVICES LLC (LUKE ESSER),19-Jul,8/13/2019,16917.0,SIGNATURE HEALTHCARE SERVICES LLC,2000.0,0.0,2000.0,0.0,0.0,0.0,0.0,0.0,0.0,0.0,2000.0,42422.0,Subcontract,17528.0,LUKE ESSER,View report (https://accesshub.pdc.wa.gov/node/57493),,,
55060,56039-18290,56039,FE,17398,BOSWELL CONSULTING*,Employer,18290,Washington Solar Energy Industries Association,19-May,8/13/2019,16929.0,Washington Solar Energy Industries Association,5500.0,-399.0,5101.0,0.0,0.0,0.0,0.0,0.0,0.0,0.0,5101.0,18290.0,Direct,,,View report (https://accesshub.pdc.wa.gov/node/56039),Energy and utilities,various,various
55061,56039-40845,56039,FE,17398,BOSWELL CONSULTING*,Employer,40845,PEACEHEALTH,19-May,8/13/2019,16934.0,PEACEHEALTH,10000.0,-2399.0,7601.0,196.04,0.0,0.0,0.0,0.0,0.0,196.04,7797.04,40845.0,Direct,,,View report (https://accesshub.pdc.wa.gov/node/56039),Health Care,various,various
55062,57493-19437,57493,FE,17879,THOMAS M PARKER,Employer,19437,SPOKANE PUBLIC FACILITIES DIST,19-Jul,8/13/2019,16942.0,SPOKANE PUBLIC FACILITIES DIST,2000.0,0.0,2000.0,0.0,0.0,0.0,0.0,0.0,0.0,0.0,2000.0,19437.0,Direct,,,View report (https://accesshub.pdc.wa.gov/node/57493),Local government,LOCAL GOVT,FISCAL SEN HOUSE LOCAL GOVT
55063,57493-19438,57493,FE,17879,THOMAS M PARKER,Employer,19438,Superior Court Judges Association,19-Jul,8/13/2019,16960.0,Superior Court Judges Association,8750.0,0.0,8750.0,0.0,0.0,0.0,0.0,0.0,0.0,0.0,8750.0,19438.0,Direct,,,View report (https://accesshub.pdc.wa.gov/node/57493),Law and justice,JUDICIAL,ADMIN SEN HOUSE FISCAL JUDICIAL CHILD
55064,57493-19439,57493,FE,17879,THOMAS M PARKER,Employer,19439,SURPLUS LINE ASSN OF WA,19-Jul,8/13/2019,16962.0,SURPLUS LINE ASSN OF WA,6500.0,0.0,6500.0,0.0,0.0,0.0,0.0,0.0,0.0,0.0,6500.0,19439.0,Direct,,,View report (https://accesshub.pdc.wa.gov/node/57493),Financial institutions and insurance,INSURANCE,FIN INST INS
55065,57775-19671,57775,FE,17983,STAUFFACHER COMMUNICATIONS*,Employer,19671,TRUE BLUE INC,19-Jul,8/13/2019,16996.0,TRUE BLUE INC,1500.0,0.0,1500.0,0.0,0.0,0.0,0.0,0.0,0.0,0.0,1500.0,19671.0,Direct,,,View report (https://accesshub.pdc.wa.gov/node/57775),Labor,Minimum wage,"House Labor & Workforce Training Cmte; Senate Commerce, Labor and Sports Cmte."
55066,56039-18291,56039,FE,17398,BOSWELL CONSULTING*,Employer,18291,Uber Technologies Inc and Affiliates,19-May,8/13/2019,17001.0,Uber Technologies Inc and Affiliates,5000.0,-399.0,4601.0,0.0,0.0,0.0,0.0,0.0,0.0,0.0,4601.0,18291.0,Direct,,,View report (https://accesshub.pdc.wa.gov/node/56039),Transportation,various,various
55067,57493-19440,57493,FE,17879,THOMAS M PARKER,Employer,19440,UNION PACIFIC RAILROAD CO,19-Jul,8/13/2019,17004.0,UNION PACIFIC RAILROAD CO,4666.0,0.0,4666.0,0.0,0.0,0.0,0.0,0.0,0.0,0.0,4666.0,19440.0,Direct,,,View report (https://accesshub.pdc.wa.gov/node/57493),Transportation,TRANSPORTATION,TRANS FISCAL ENV
55068,57628-40257,57628,FE,18014,SHEELA TALLMAN,Employer,40257,UNITED HEALTHCARE SERVICES INC,19-Jul,8/13/2019,17009.0,UNITED HEALTHCARE SERVICES INC,201.51,0.0,201.51,0.0,0.0,500.0,0.0,0.0,0.0,500.0,701.51,40257.0,Direct,,,View report (https://accesshub.pdc.wa.gov/node/57628),Health Care,Health Care,Office of the Insurance Commissioner
55069,56039-28159,56039,FE,17398,BOSWELL CONSULTING*,Employer,28159,VALLEY MEDICAL CENTER,19-May,8/13/2019,17027.0,VALLEY MEDICAL CENTER,7000.0,-1799.0,5201.0,0.0,0.0,0.0,0.0,0.0,0.0,0.0,5201.0,28159.0,Direct,,,View report (https://accesshub.pdc.wa.gov/node/56039),Health Care,various,various
55070,56039-18292,56039,FE,17398,BOSWELL CONSULTING*,Employer,18292,VIGOR INDUSTRIAL,19-May,8/13/2019,17035.0,VIGOR INDUSTRIAL,5000.0,-399.0,4601.0,71.92,0.0,0.0,0.0,0.0,0.0,71.92,4672.92,18292.0,Direct,,,View report (https://accesshub.pdc.wa.gov/node/56039),Business and consumer affairs,various,various
55071,57726-19251,57726,FE,17794,JEANETTE MCKAGUE,Employer,19251,WA ASSN OF REALTORS,19-Aug,8/13/2019,17059.0,WA ASSN OF REALTORS,4500.0,0.0,4500.0,0.0,0.0,0.0,0.0,0.0,0.0,0.0,4500.0,19251.0,Direct,,,View report (https://accesshub.pdc.wa.gov/node/57726),Local government,GMA,House Local Government
55072,57775-20020,57775,FE,17983,STAUFFACHER COMMUNICATIONS*,Employer,20020,WA BEER & WINE DISTRIBUTORS ASSN (CIVIC GROUP*),19-Jul,8/13/2019,17067.0,WA BEER & WINE DISTRIBUTORS ASSN,5000.0,0.0,5000.0,0.0,0.0,0.0,0.0,0.0,0.0,0.0,5000.0,20020.0,Subcontract,17450.0,CIVIC GROUP*,View report (https://accesshub.pdc.wa.gov/node/57775),,,
55073,55962-18438,55962,FE,17448,"DONNA CHRISTENSEN, PACIFIC GOVERNMENT AFFAIRS",Employer,18438,WA COALITION FOR GIFTED EDUCATION,19-May,8/13/2019,17079.0,WA COALITION FOR GIFTED EDUCATION,850.0,0.0,850.0,0.0,0.0,0.0,0.0,0.0,0.0,0.0,850.0,18438.0,Direct,,,View report (https://accesshub.pdc.wa.gov/node/55962),Education,HCP,"Education,Early Learning & K-12, Appropriations, Ways & Means, OSPI"
55074,57067-18438,57067,FE,17448,"DONNA CHRISTENSEN, PACIFIC GOVERNMENT AFFAIRS",Employer,18438,WA COALITION FOR GIFTED EDUCATION,19-Jun,8/13/2019,17079.0,WA COALITION FOR GIFTED EDUCATION,850.0,0.0,850.0,0.0,0.0,0.0,0.0,0.0,0.0,0.0,850.0,18438.0,Direct,,,View report (https://accesshub.pdc.wa.gov/node/57067),Education,HCP,"Education,Early Learning & K-12, Appropriations, Ways & Means, OSPI"
55075,57763-18438,57763,FE,17448,"DONNA CHRISTENSEN, PACIFIC GOVERNMENT AFFAIRS",Employer,18438,WA COALITION FOR GIFTED EDUCATION,19-Jul,8/13/2019,17079.0,WA COALITION FOR GIFTED EDUCATION,850.0,0.0,850.0,0.0,0.0,0.0,0.0,0.0,0.0,0.0,850.0,18438.0,Direct,,,View report (https://accesshub.pdc.wa.gov/node/57763),Education,HCP,"Education,Early Learning & K-12, Appropriations, Ways & Means, OSPI"
55076,56039-18293,56039,FE,17398,BOSWELL CONSULTING*,Employer,18293,CLEANTECH ALLIANCE,19-May,8/13/2019,17088.0,CLEANTECH ALLIANCE,4000.0,-399.0,3601.0,0.0,0.0,0.0,0.0,0.0,0.0,0.0,3601.0,18293.0,Direct,,,View report (https://accesshub.pdc.wa.gov/node/56039),Energy and utilities,various,various
55077,57778-18652,57778,FE,17520,Emerick & Bloom,Employer,18652,Home Care Association of America,19-Jul,8/13/2019,17168.0,Home Care Association of America,2000.0,0.0,2000.0,0.0,0.0,0.0,0.0,0.0,0.0,0.0,2000.0,18652.0,Direct,,,View report (https://accesshub.pdc.wa.gov/node/57778),Health Care,Home Care,"DOH, DSHS"
55078,57769-19326,57769,FE,17827,STEPHEN F MULLIN,Employer,19326,WA ROUNDTABLE,19-Jul,8/13/2019,17178.0,WA ROUNDTABLE,1287.5,0.0,1287.5,0.0,0.0,0.0,0.0,0.0,0.0,0.0,1287.5,19326.0,Direct,,,View report (https://accesshub.pdc.wa.gov/node/57769),Education,Various,Various
55079,57767-19716,57767,FE,18000,NEIL STREGE,Employer,19716,WA ROUNDTABLE,19-Jul,8/13/2019,17178.0,WA ROUNDTABLE,2652.25,0.0,2652.25,0.0,0.0,0.0,0.0,0.0,0.0,0.0,2652.25,19716.0,Direct,,,View report (https://accesshub.pdc.wa.gov/node/57767),Education,Various,Various
55082,56039-18294,56039,FE,17398,BOSWELL CONSULTING*,Employer,18294,WA BEVERAGE ASSN,19-May,8/13/2019,17190.0,WA BEVERAGE ASSN,5250.0,-414.0,4836.0,25.81,0.0,0.0,0.0,0.0,0.0,25.81,4861.81,18294.0,Direct,,,View report (https://accesshub.pdc.wa.gov/node/56039),Business and consumer affairs,various,various
55083,57766-44980,57766,FE,17522,ENGAGE STRATEGIES SPC*,Employer,44980,WA State Community Action Partnership,19-Jun,8/13/2019,17226.0,WA State Community Action Partnership,3000.0,0.0,3000.0,0.0,0.0,0.0,0.0,0.0,0.0,0.0,3000.0,44980.0,Direct,,,View report (https://accesshub.pdc.wa.gov/node/57766),Human services,"Affordable housing, intergenerational poverty","Commerce; DSHS, OFM, Ways and Means, Appropriations"
55084,57768-44980,57768,FE,17522,ENGAGE STRATEGIES SPC*,Employer,44980,WA State Community Action Partnership,19-Jul,8/13/2019,17226.0,WA State Community Action Partnership,3000.0,0.0,3000.0,0.0,0.0,0.0,0.0,0.0,0.0,0.0,3000.0,44980.0,Direct,,,View report (https://accesshub.pdc.wa.gov/node/57768),Human services,"Affordable housing, intergenerational poverty","Commerce; DSHS, OFM, Ways and Means, Appropriations"
55085,55962-18439,55962,FE,17448,"DONNA CHRISTENSEN, PACIFIC GOVERNMENT AFFAIRS",Employer,18439,WA ST CATHOLIC CONFERENCE,19-May,8/13/2019,17228.0,WA ST CATHOLIC CONFERENCE,2000.0,0.0,2000.0,0.0,0.0,0.0,0.0,0.0,0.0,0.0,2000.0,18439.0,Direct,,,View report (https://accesshub.pdc.wa.gov/node/55962),Human services,Budget,"Budget committees, Human Services and Early Learning, Commerce, DSHS, DCYF"
55086,57067-18439,57067,FE,17448,"DONNA CHRISTENSEN, PACIFIC GOVERNMENT AFFAIRS",Employer,18439,WA ST CATHOLIC CONFERENCE,19-Jun,8/13/2019,17228.0,WA ST CATHOLIC CONFERENCE,2000.0,0.0,2000.0,0.0,0.0,0.0,0.0,0.0,0.0,0.0,2000.0,18439.0,Direct,,,View report (https://accesshub.pdc.wa.gov/node/57067),Human services,Budget,"Budget committees, Human Services and Early Learning, Commerce, DSHS, DCYF"
55087,57763-18439,57763,FE,17448,"DONNA CHRISTENSEN, PACIFIC GOVERNMENT AFFAIRS",Employer,18439,WA ST CATHOLIC CONFERENCE,19-Jul,8/13/2019,17228.0,WA ST CATHOLIC CONFERENCE,2000.0,0.0,2000.0,0.0,0.0,0.0,0.0,0.0,0.0,0.0,2000.0,18439.0,Direct,,,View report (https://accesshub.pdc.wa.gov/node/57763),Human services,Budget,"Budget committees, Human Services and Early Learning, Commerce, DSHS, DCYF"
55088,57776-39387,57776,FE,39386,Teresa Taylor,Employer,39387,WA ST COUNCIL OF POLICE & SHERIFFS,19-Jul,8/13/2019,17236.0,WA ST COUNCIL OF POLICE & SHERIFFS,2500.0,0.0,2500.0,0.0,0.0,0.0,0.0,0.0,0.0,0.0,2500.0,39387.0,Direct,,,View report (https://accesshub.pdc.wa.gov/node/57776),Law and justice,Law and Justice,Senate Law & Justice Committee; House Public Safety Committee
55089,57778-18653,57778,FE,17520,Emerick & Bloom,Employer,18653,WA ST HOSPICE & PALLIATIVE CARE ORG,19-Jul,8/13/2019,17255.0,WA ST HOSPICE & PALLIATIVE CARE ORG,4000.0,0.0,4000.0,61.58,0.0,0.0,0.0,0.0,0.0,61.58,4061.58,18653.0,Direct,,,View report (https://accesshub.pdc.wa.gov/node/57778),Health Care,Hospice & Palliative Care,"DOH, HCA, DSHS"
55092,56039-28160,56039,FE,17398,BOSWELL CONSULTING*,Employer,28160,"WASTE MANAGEMENT OF WASHINGTON, INC.",19-May,8/13/2019,17260.0,"WASTE MANAGEMENT OF WASHINGTON, INC.",5265.0,-1569.0,3696.0,0.0,0.0,0.0,0.0,0.0,0.0,0.0,3696.0,28160.0,Direct,,,View report (https://accesshub.pdc.wa.gov/node/56039),Energy and utilities,various,various
55093,57778-18654,57778,FE,17520,Emerick & Bloom,Employer,18654,WA ST PSYCHOLOGICAL ASSN,19-Jul,8/13/2019,17269.0,WA ST PSYCHOLOGICAL ASSN,570.0,0.0,570.0,0.0,0.0,0.0,0.0,0.0,0.0,0.0,570.0,18654.0,Direct,,,View report (https://accesshub.pdc.wa.gov/node/57778),Health Care,Mental Heatlh,DOH
55094,57493-19442,57493,FE,17879,THOMAS M PARKER,Employer,19442,WHATCOM CO COUNCIL OF GOVERNMENTS,19-Jul,8/13/2019,17308.0,WHATCOM CO COUNCIL OF GOVERNMENTS,3590.0,0.0,3590.0,0.0,0.0,0.0,0.0,0.0,0.0,0.0,3590.0,19442.0,Direct,,,View report (https://accesshub.pdc.wa.gov/node/57493),Transportation,TRANSPORTATION,TRANSPORTATION FISCAL
55096,55962-18440,55962,FE,17448,"DONNA CHRISTENSEN, PACIFIC GOVERNMENT AFFAIRS",Employer,18440,Washington State Alliance of YMCAs,19-May,8/13/2019,17323.0,Washington State Alliance of YMCAs,3200.0,0.0,3200.0,0.0,0.0,0.0,0.0,0.0,0.0,0.0,3200.0,18440.0,Direct,,,View report (https://accesshub.pdc.wa.gov/node/55962),Human services,Budget,"Ways and Means, Appropriations, Early Learning, DCYF"
55097,57067-18440,57067,FE,17448,"DONNA CHRISTENSEN, PACIFIC GOVERNMENT AFFAIRS",Employer,18440,Washington State Alliance of YMCAs,19-Jun,8/13/2019,17323.0,Washington State Alliance of YMCAs,3200.0,0.0,3200.0,0.0,0.0,0.0,0.0,0.0,0.0,0.0,3200.0,18440.0,Direct,,,View report (https://accesshub.pdc.wa.gov/node/57067),Human services,Budget,"Ways and Means, Appropriations, Early Learning, DCYF"
55098,57763-18440,57763,FE,17448,"DONNA CHRISTENSEN, PACIFIC GOVERNMENT AFFAIRS",Employer,18440,Washington State Alliance of YMCAs,19-Jul,8/13/2019,17323.0,Washington State Alliance of YMCAs,3200.0,0.0,3200.0,0.0,0.0,0.0,0.0,0.0,0.0,0.0,3200.0,18440.0,Direct,,,View report (https://accesshub.pdc.wa.gov/node/57763),Human services,Budget,"Ways and Means, Appropriations, Early Learning, DCYF"
55101,57800-33677,57800,FE,17977,SOUND VIEW STRATEGIES LLC*,Employer,33677,City of Medina,19-Jul,8/13/2019,26873.0,City of Medina,3000.0,-2000.0,1000.0,0.0,0.0,0.0,0.0,0.0,0.0,0.0,1000.0,33677.0,Direct,,,View report (https://accesshub.pdc.wa.gov/node/57800),Transportation,Transportation Issues,DOT
55102,55962-28248,55962,FE,17448,"DONNA CHRISTENSEN, PACIFIC GOVERNMENT AFFAIRS",Employer,28248,Washington Continuing Care Residents Association,19-May,8/13/2019,27296.0,Washington Continuing Care Residents Association,1000.0,0.0,1000.0,0.0,0.0,0.0,0.0,0.0,0.0,0.0,1000.0,28248.0,Direct,,,View report (https://accesshub.pdc.wa.gov/node/55962),Health Care,aging,"Health Care, Appropriations, DSHS"
55103,57067-28248,57067,FE,17448,"DONNA CHRISTENSEN, PACIFIC GOVERNMENT AFFAIRS",Employer,28248,Washington Continuing Care Residents Association,19-Jun,8/13/2019,27296.0,Washington Continuing Care Residents Association,1000.0,0.0,1000.0,0.0,0.0,0.0,0.0,0.0,0.0,0.0,1000.0,28248.0,Direct,,,View report (https://accesshub.pdc.wa.gov/node/57067),Health Care,aging,"Health Care, Appropriations, DSHS"
55104,57763-28248,57763,FE,17448,"DONNA CHRISTENSEN, PACIFIC GOVERNMENT AFFAIRS",Employer,28248,Washington Continuing Care Residents Association,19-Jul,8/13/2019,27296.0,Washington Continuing Care Residents Association,1000.0,0.0,1000.0,0.0,0.0,0.0,0.0,0.0,0.0,0.0,1000.0,28248.0,Direct,,,View report (https://accesshub.pdc.wa.gov/node/57763),Health Care,aging,"Health Care, Appropriations, DSHS"
55106,57379-48779,57379,FE,18045,Amber Ulvenes,Employer,48779,Kaiser Foundation Health Plan of Washington,19-Jul,8/13/2019,30206.0,Kaiser Foundation Health Plan of Washington,11000.0,0.0,11000.0,0.0,0.0,0.0,0.0,0.0,0.0,0.0,11000.0,48779.0,Direct,,,View report (https://accesshub.pdc.wa.gov/node/57379),Health Care,"PEBB, health insurance market","HCA, Health Care Committees, appropriation committees"
55107,57279-31222,57279,FE,31111,ERIK ASHLIE-VINKE,Employer,31222,Economic Alliance Snohomish County,19-Jul,8/13/2019,31220.0,Economic Alliance Snohomish County,500.0,0.0,500.0,28.11,0.0,0.0,0.0,0.0,0.0,28.11,528.11,31222.0,Direct,,,View report (https://accesshub.pdc.wa.gov/node/57279),Fiscal,"Economic development,STEM, EASC regional priorities","Snohomish County Legislators, Transportation Committees"
55108,56039-31406,56039,FE,17398,BOSWELL CONSULTING*,Employer,31406,Nippon Paper Industries USA,19-May,8/13/2019,31405.0,Nippon Paper Industries USA,3125.0,-399.0,2726.0,0.0,0.0,0.0,0.0,0.0,0.0,0.0,2726.0,31406.0,Direct,,,View report (https://accesshub.pdc.wa.gov/node/56039),Agriculture,various,various
55109,56039-36740,56039,FE,17398,BOSWELL CONSULTING*,Employer,36740,Port of Hood River,19-May,8/13/2019,36737.0,Port of Hood River,4500.0,-399.0,4101.0,0.0,0.0,0.0,0.0,0.0,0.0,0.0,4101.0,36740.0,Direct,,,View report (https://accesshub.pdc.wa.gov/node/56039),Transportation,various,various
55110,57766-49833,57766,FE,17522,ENGAGE STRATEGIES SPC*,Employer,49833,Sightline Institute,19-Jun,8/13/2019,37788.0,Sightline Institute,2250.0,0.0,2250.0,0.0,0.0,0.0,0.0,0.0,0.0,0.0,2250.0,49833.0,Direct,,,View report (https://accesshub.pdc.wa.gov/node/57766),Local government,"Land Use, HB 1923, SB 5812, HB 1797","H Loc Gov, Sen Housing Aff, House E&E"
55111,57768-49833,57768,FE,17522,ENGAGE STRATEGIES SPC*,Employer,49833,Sightline Institute,19-Jul,8/13/2019,37788.0,Sightline Institute,2250.0,0.0,2250.0,0.0,0.0,0.0,0.0,0.0,0.0,0.0,2250.0,49833.0,Direct,,,View report (https://accesshub.pdc.wa.gov/node/57768),Local government,"Land Use, HB 1923, SB 5812, HB 1797","H Loc Gov, Sen Housing Aff, House E&E"
55112,57786-47019,57786,FE,47018,Will von Geldern,Employer,47019,Ventures,20-Jul,8/13/2019,38023.0,Ventures,600.0,0.0,600.0,0.0,0.0,0.0,81.79,0.0,0.0,81.79,681.79,47019.0,Direct,,,View report (https://accesshub.pdc.wa.gov/node/57786),Health Care,Microenterprise Home Kitchens,WA Department of Health
55113,57787-47019,57787,FE,47018,Will von Geldern,Employer,47019,Ventures,19-Jul,8/13/2019,38023.0,Ventures,600.0,0.0,600.0,0.0,0.0,0.0,81.79,0.0,0.0,81.79,681.79,47019.0,Direct,,,View report (https://accesshub.pdc.wa.gov/node/57787),Health Care,Microenterprise Home Kitchens,WA Department of Health
55115,57379-49486,57379,FE,18045,Amber Ulvenes,Employer,49486,Open Arms Perinatal Services,19-Jul,8/13/2019,49474.0,Open Arms Perinatal Services,1000.0,0.0,1000.0,0.0,0.0,0.0,0.0,0.0,0.0,0.0,1000.0,49486.0,Direct,,,View report (https://accesshub.pdc.wa.gov/node/57379),Health Care,Health Care,"HCA, Health Care Committees,"
55116,57798-51641,57798,FE,51590,Lodestar Strategic LLC,Employer,51641,LAVLE USA Inc,19-Jul,8/13/2019,50691.0,LAVLE USA Inc,5000.0,0.0,5000.0,0.0,0.0,0.0,0.0,0.0,0.0,0.0,5000.0,51641.0,Direct,,,View report (https://accesshub.pdc.wa.gov/node/57798),Transportation,Transportation and Renewable Energy,"Department of Transportation, Governor' Office"
55117,57798-56995,57798,FE,51590,Lodestar Strategic LLC,Employer,56995,Merit International Inc.,19-Jul,8/13/2019,56993.0,Merit International Inc.,2500.0,0.0,2500.0,0.0,0.0,0.0,0.0,0.0,0.0,0.0,2500.0,56995.0,Direct,,,View report (https://accesshub.pdc.wa.gov/node/57798),Technology,Technology,"Dept. of Health, Dept. of Licensing, Dept. of Transportation"
55118,57867-37213,57867,FE,37193,Courtney Blatz,Employer,37213,AMERICAN INSTITUTE OF ARCHITECTS WA COUNCIL (BOSWELL CONSULTING*),19-Jul,8/14/2019,16076.0,AMERICAN INSTITUTE OF ARCHITECTS WA COUNCIL,233.0,0.0,233.0,0.0,0.0,0.0,0.0,0.0,0.0,0.0,233.0,37213.0,Subcontract,17398.0,BOSWELL CONSULTING*,View report (https://accesshub.pdc.wa.gov/node/57867),,,
55119,57843-19197,57843,FE,17774,TIMOTHY A MARTIN,Employer,19197,AMGEN INC,19-Jul,8/14/2019,16127.0,AMGEN INC,2596.0,0.0,2596.0,0.0,0.0,0.0,0.0,0.0,0.0,0.0,2596.0,19197.0,Direct,,,View report (https://accesshub.pdc.wa.gov/node/57843),Health Care,Biotechnology,Legislature
55120,57822-19726,57822,FE,18010,Brewer Public Affairs,Employer,19726,ASSOCIATED GENERAL CONTRACTORS OF WA,19-Jul,8/14/2019,16154.0,ASSOCIATED GENERAL CONTRACTORS OF WA,4000.0,0.0,4000.0,0.0,0.0,0.0,0.0,0.0,0.0,0.0,4000.0,19726.0,Direct,,,View report (https://accesshub.pdc.wa.gov/node/57822),Labor,Construction,"LNI, Public works contracting, DOT, Fiscal, DOE, Labor"
55121,57819-19617,57819,FE,17964,SCOTT C SIGMON,Employer,19617,WA ST CHAPTER OF ASSOC PUBLIC SAFETY COMMUNICATIONS OFFICIALS,19-Jul,8/14/2019,16158.0,WA ST CHAPTER OF ASSOC PUBLIC SAFETY COMMUNICATIONS OFFICIALS,2000.0,0.0,2000.0,0.0,0.0,0.0,0.0,0.0,0.0,0.0,2000.0,19617.0,Direct,,,View report (https://accesshub.pdc.wa.gov/node/57819),,,
55122,57860-18216,57860,FE,17367,ROBERT A BATTLES,Employer,18216,ASSN OF WA BUSINESS,19-Jul,8/14/2019,16167.0,ASSN OF WA BUSINESS,9194.48,0.0,9194.48,0.0,0.0,0.0,0.0,0.0,0.0,0.0,9194.48,18216.0,Direct,,,View report (https://accesshub.pdc.wa.gov/node/57860),State government,,
55123,57855-18428,57855,FE,17440,GARY CHANDLER,Employer,18428,ASSN OF WA BUSINESS,19-Jul,8/14/2019,16167.0,ASSN OF WA BUSINESS,8000.0,0.0,8000.0,0.0,0.0,0.0,0.0,0.0,0.0,0.0,8000.0,18428.0,Direct,,,View report (https://accesshub.pdc.wa.gov/node/57855),State government,,
55124,57858-18670,57858,FE,17525,MICHAEL W ENNIS,Employer,18670,ASSN OF WA BUSINESS,19-Jul,8/14/2019,16167.0,ASSN OF WA BUSINESS,6362.7,0.0,6362.7,0.0,0.0,0.0,0.0,0.0,0.0,0.0,6362.7,18670.0,Direct,,,View report (https://accesshub.pdc.wa.gov/node/57858),State government,,
55125,56829-19021,56829,FE,17673,AMY ANDERSON,Employer,19021,ASSN OF WA BUSINESS,19-Jul,8/14/2019,16167.0,ASSN OF WA BUSINESS,2317.5,0.0,2317.5,0.0,0.0,0.0,0.0,0.0,0.0,0.0,2317.5,19021.0,Direct,,,View report (https://accesshub.pdc.wa.gov/node/56829),State government,,
55126,57854-39852,57854,FE,39851,Clay Hill,Employer,39852,ASSN OF WA BUSINESS,19-Jul,8/14/2019,16167.0,ASSN OF WA BUSINESS,10729.17,0.0,10729.17,0.0,0.0,0.0,0.0,0.0,0.0,0.0,10729.17,39852.0,Direct,,,View report (https://accesshub.pdc.wa.gov/node/57854),State government,,
55127,57859-50652,57859,FE,49538,PETER GODLEWSKI,Employer,50652,ASSN OF WA BUSINESS,19-Jul,8/14/2019,16167.0,ASSN OF WA BUSINESS,916.67,0.0,916.67,0.0,0.0,0.0,0.0,0.0,0.0,0.0,916.67,50652.0,Direct,,,View report (https://accesshub.pdc.wa.gov/node/57859),State government,,
55128,57822-38126,57822,FE,18010,Brewer Public Affairs,Employer,38126,Association of Washington Healthcare Plans,19-Jul,8/14/2019,16169.0,Association of Washington Healthcare Plans,8500.0,0.0,8500.0,0.0,0.0,0.0,0.0,0.0,0.0,0.0,8500.0,38126.0,Direct,,,View report (https://accesshub.pdc.wa.gov/node/57822),Health Care,Health Care,"OIC, WBE, HCA, Health Care, Fiscal Committees"
55129,57824-18867,57824,FE,17582,GORDON THOMAS HONEYWELL LAW*,Employer,18867,ASSN OF WA SPIRITS & WINE DISTRIBUTORS,19-Jul,8/14/2019,16172.0,ASSN OF WA SPIRITS & WINE DISTRIBUTORS,4000.0,0.0,4000.0,0.0,0.0,0.0,0.0,0.0,0.0,0.0,4000.0,18867.0,Direct,,,View report (https://accesshub.pdc.wa.gov/node/57824),Business and consumer affairs,Alcohol,Alcohol regulations/Senate Ways Means House Gov Ac
55130,57867-37194,57867,FE,37193,Courtney Blatz,Employer,37194,ASSN OF WA SPIRITS & WINE DISTRIBUTORS (CHRISTOPHERSEN INC*),19-Jul,8/14/2019,16172.0,ASSN OF WA SPIRITS & WINE DISTRIBUTORS,333.0,0.0,333.0,0.0,0.0,0.0,0.0,0.0,0.0,0.0,333.0,37194.0,Subcontract,17348.0,CHRISTOPHERSEN INC*,View report (https://accesshub.pdc.wa.gov/node/57867),,,
55131,57844-49044,57844,FE,48956,Brooke Davies,Employer,49044,ASSN OF WA SPIRITS & WINE DISTRIBUTORS (CHRISTOPHERSEN INC*),19-Jul,8/14/2019,16172.0,ASSN OF WA SPIRITS & WINE DISTRIBUTORS,400.0,0.0,400.0,0.0,0.0,0.0,0.0,0.0,0.0,0.0,400.0,49044.0,Subcontract,17348.0,CHRISTOPHERSEN INC*,View report (https://accesshub.pdc.wa.gov/node/57844),,,
55132,57822-19727,57822,FE,18010,Brewer Public Affairs,Employer,19727,AVISTA CORP,19-Jul,8/14/2019,16180.0,AVISTA CORP,7500.0,0.0,7500.0,80.9,0.0,0.0,0.0,0.0,0.0,80.9,7580.9,19727.0,Direct,,,View report (https://accesshub.pdc.wa.gov/node/57822),Energy and utilities,Energy,"UTC, DOE, Commerce, Fiscal, Labor, Environment Committees"
55133,57828-18406,57828,FE,17434,CASCADE GOVT AFFAIRS LLC*,Employer,18406,BETHEL SCHOOL DISTRICT,19-Jul,8/14/2019,16190.0,BETHEL SCHOOL DISTRICT,5000.0,0.0,5000.0,0.0,0.0,0.0,0.0,0.0,0.0,0.0,5000.0,18406.0,Direct,,,View report (https://accesshub.pdc.wa.gov/node/57828),Education,School Siting and Education Funding Issues,Education and Fiscal Committees
55134,57311-18427,57311,FE,17439,SUSAN W CHAMPLAIN,Employer,18427,BOEING,19-Jul,8/14/2019,16201.0,BOEING,4818.0,0.0,4818.0,341.75,93.01,0.0,0.0,0.0,0.0,434.76,5252.76,18427.0,Direct,,,View report (https://accesshub.pdc.wa.gov/node/57311),Fiscal,Education,Legislators
55135,57310-29256,57310,FE,29213,Ryan R. Tomasich,Employer,29256,BOEING,19-Jul,8/14/2019,16201.0,BOEING,3825.0,0.0,3825.0,23.05,14.07,0.0,0.0,0.0,0.0,37.12,3862.12,29256.0,Direct,,,View report (https://accesshub.pdc.wa.gov/node/57310),Fiscal,Education,Legislators
55136,57697-18890,57697,FE,17597,PIERCE CONSULTING SVCS LLC*,Employer,18890,BRISTOL-MYERS SQUIBB CO,19-Jul,8/14/2019,16208.0,BRISTOL-MYERS SQUIBB CO,2500.0,-228.07,2271.93,0.0,0.0,0.0,0.0,0.0,0.0,0.0,2271.93,18890.0,Direct,,,View report (https://accesshub.pdc.wa.gov/node/57697),Health Care,various,various
55137,57836-18956,57836,FE,17628,JOHAN W HELLMAN,Employer,18956,BURLINGTON NORTHERN SANTA FE RAILROAD,19-Jul,8/14/2019,16217.0,BURLINGTON NORTHERN SANTA FE RAILROAD,5000.0,0.0,5000.0,0.0,0.0,250.0,0.0,0.0,0.0,250.0,5250.0,18956.0,Direct,,,View report (https://accesshub.pdc.wa.gov/node/57836),Transportation,"Transportation/trade policy, regulatory, labor, environmental and general business.","Committees and agencies addressing transportation, trade, labor, general business."
55138,57828-18407,57828,FE,17434,CASCADE GOVT AFFAIRS LLC*,Employer,18407,CASCADE NATURAL GAS,19-Jul,8/14/2019,16235.0,CASCADE NATURAL GAS,6000.0,0.0,6000.0,0.0,162.73,0.0,0.0,0.0,0.0,162.73,6162.73,18407.0,Direct,,,View report (https://accesshub.pdc.wa.gov/node/57828),Energy and utilities,Carbon and Utility Issues,Energy and Technology Committees
55139,57696-32856,57696,FE,25651,Insight Strategic Partners LLC,Employer,32856,CHELAN CO PUBLIC UTILITY DIST #1,19-Jul,8/14/2019,16254.0,CHELAN CO PUBLIC UTILITY DIST #1,9000.0,0.0,9000.0,0.0,0.0,0.0,0.0,0.0,0.0,0.0,9000.0,32856.0,Direct,,,View report (https://accesshub.pdc.wa.gov/node/57696),Energy and utilities,Energy and natural resources,"Energy and Environment, Governors Office, Ecology"
55140,57827-39213,57827,FE,17830,ABBY G MOORE,Employer,39213,Seattle Children's Hospital,19-Jul,8/14/2019,16259.0,Seattle Children's Hospital,4415.0,0.0,4415.0,0.0,0.0,0.0,0.0,0.0,0.0,0.0,4415.0,39213.0,Direct,,,View report (https://accesshub.pdc.wa.gov/node/57827),,,
55141,57827-50055,57827,FE,17830,ABBY G MOORE,Employer,50055,CIOX HEALTH LLC (THRU MULTISTATE ASSOCIATES LLC),19-Jul,8/14/2019,16264.0,CIOX HEALTH LLC (THRU MULTISTATE ASSOCIATES LLC),5000.0,0.0,5000.0,0.0,0.0,0.0,0.0,0.0,0.0,0.0,5000.0,50055.0,Direct,,,View report (https://accesshub.pdc.wa.gov/node/57827),,,
55142,57853-18125,57853,FE,17331,CINDY ALIA,Employer,18125,CIT ALLIANCE FOR PROPERTY RIGHTS,19-Jul,8/14/2019,16266.0,CIT ALLIANCE FOR PROPERTY RIGHTS,2000.0,0.0,2000.0,0.0,0.0,0.0,0.0,0.0,0.0,0.0,2000.0,18125.0,Direct,,,View report (https://accesshub.pdc.wa.gov/node/57853),State government,property rights,"State Board of Health, Representative Irwin"
55143,57818-19390,57818,FE,17870,OUTCOMES BY LEVY LLC*,Employer,19390,CITY OF FIFE,19-Jul,8/14/2019,16283.0,CITY OF FIFE,4000.0,0.0,4000.0,153.91,0.0,0.0,0.0,0.0,0.0,153.91,4153.91,19390.0,Direct,,,View report (https://accesshub.pdc.wa.gov/node/57818),Local government,Thank-you/appreciation lunch for legislators,"Fife Mayor/Council/Staff w/ 25th LD Sen. Hans Zeiger, Rep. Kelly Chambers, Rep. Chris Gildon"
55144,57818-19393,57818,FE,17870,OUTCOMES BY LEVY LLC*,Employer,19393,CITY OF LAKE STEVENS,19-Jul,8/14/2019,16297.0,CITY OF LAKE STEVENS,4500.0,0.0,4500.0,144.38,0.0,0.0,0.0,0.0,0.0,144.38,4644.38,19393.0,Direct,,,View report (https://accesshub.pdc.wa.gov/node/57818),Transportation,JTC Transportation funding needs study,Lake Stevens Mayor/staff meet w/ TIB Director Ashley Probart & project consultant Steve Gorcester
55145,57818-19395,57818,FE,17870,OUTCOMES BY LEVY LLC*,Employer,19395,CITY OF RENTON,19-Jul,8/14/2019,16306.0,CITY OF RENTON,13000.0,0.0,13000.0,175.0,0.0,0.0,0.0,0.0,0.0,175.0,13175.0,19395.0,Direct,,,View report (https://accesshub.pdc.wa.gov/node/57818),Transportation,Sound Transit & Eastside Rail Corridor issues,"Meet w/ County Council Member Claudia Balducci - myself, Chief of Staff, CM Ed Prince"
55146,57819-19619,57819,FE,17964,SCOTT C SIGMON,Employer,19619,COASTAL CONSERVATION ASSN WA,19-Jul,8/14/2019,16333.0,COASTAL CONSERVATION ASSN WA,4000.0,0.0,4000.0,0.0,0.0,0.0,0.0,0.0,0.0,0.0,4000.0,19619.0,Direct,,,View report (https://accesshub.pdc.wa.gov/node/57819),Environmental Affairs - natural resources - parks,Marine Conservation,WDFW
55147,57867-37205,57867,FE,37193,Courtney Blatz,Employer,37205,THE COLLEGE BOARD (CHRISTOPHERSEN INC*),19-Jul,8/14/2019,16334.0,THE COLLEGE BOARD,333.0,0.0,333.0,0.0,0.0,0.0,0.0,0.0,0.0,0.0,333.0,37205.0,Subcontract,17348.0,CHRISTOPHERSEN INC*,View report (https://accesshub.pdc.wa.gov/node/57867),,,
55148,57844-49107,57844,FE,48956,Brooke Davies,Employer,49107,THE COLLEGE BOARD (CHRISTOPHERSEN INC*),19-Jul,8/14/2019,16334.0,THE COLLEGE BOARD,400.0,0.0,400.0,0.0,0.0,0.0,0.0,0.0,0.0,0.0,400.0,49107.0,Subcontract,17348.0,CHRISTOPHERSEN INC*,View report (https://accesshub.pdc.wa.gov/node/57844),,,
55149,57868-19578,57868,FE,17944,MICHAEL V SCHWISOW,Employer,19578,COLUMBIA BASIN DEVELOPMENT LEAGUE,19-Jul,8/14/2019,16335.0,COLUMBIA BASIN DEVELOPMENT LEAGUE,4166.66,0.0,4166.66,0.0,0.0,0.0,0.0,0.0,0.0,0.0,4166.66,19578.0,Direct,,,View report (https://accesshub.pdc.wa.gov/node/57868),Agriculture,Ag policy,House and Senate Ag Committees
55150,57697-18892,57697,FE,17597,PIERCE CONSULTING SVCS LLC*,Employer,18892,COMCAST CABLE COMMUNICATIONS,19-Jul,8/14/2019,16344.0,COMCAST CABLE COMMUNICATIONS,4000.0,-364.91,3635.09,0.0,0.0,0.0,0.0,0.0,0.0,0.0,3635.09,18892.0,Direct,,,View report (https://accesshub.pdc.wa.gov/node/57697),Energy and utilities,various,various
55151,57828-18408,57828,FE,17434,CASCADE GOVT AFFAIRS LLC*,Employer,18408,CONSUMER TECHNOLOGY ASSN (THROUGH MULTISTATE ASSOCIATES LLC),19-Jul,8/14/2019,16359.0,CONSUMER TECHNOLOGY ASSN (THROUGH MULTISTATE ASSOCIATES LLC),3666.66,0.0,3666.66,0.0,0.0,0.0,0.0,0.0,0.0,0.0,3666.66,18408.0,Direct,,,View report (https://accesshub.pdc.wa.gov/node/57828),Technology,"Data Privacy, Drones, Toxics, Plastics Recycling, Energy Efficiency and Electronic Waste","Energy, Environment and Technology Committees"
55152,57828-18409,57828,FE,17434,CASCADE GOVT AFFAIRS LLC*,Employer,18409,DIAGEO,19-Jul,8/14/2019,16387.0,DIAGEO,5000.0,0.0,5000.0,0.0,0.0,0.0,0.0,0.0,0.0,0.0,5000.0,18409.0,Direct,,,View report (https://accesshub.pdc.wa.gov/node/57828),,,
55153,57697-29265,57697,FE,17597,PIERCE CONSULTING SVCS LLC*,Employer,29265,EVERETT CLINIC,19-Jul,8/14/2019,16422.0,EVERETT CLINIC,3000.0,0.0,3000.0,0.0,0.0,0.0,0.0,0.0,0.0,0.0,3000.0,29265.0,Direct,,,View report (https://accesshub.pdc.wa.gov/node/57697),Health Care,various,various
55154,57828-18411,57828,FE,17434,CASCADE GOVT AFFAIRS LLC*,Employer,18411,FRANKLIN PIERCE SCHOOL DISTRICT,19-Jul,8/14/2019,16455.0,FRANKLIN PIERCE SCHOOL DISTRICT,4000.0,0.0,4000.0,0.0,0.0,0.0,0.0,0.0,0.0,0.0,4000.0,18411.0,Direct,,,View report (https://accesshub.pdc.wa.gov/node/57828),Education,Early Learning Center Funding,Capital Budget Committees
55155,57697-18893,57697,FE,17597,PIERCE CONSULTING SVCS LLC*,Employer,18893,RUSSELL INVESTMENT GROUP,19-Jul,8/14/2019,16456.0,RUSSELL INVESTMENT GROUP,3000.0,-273.68,2726.32,0.0,0.0,0.0,0.0,0.0,0.0,0.0,2726.32,18893.0,Direct,,,View report (https://accesshub.pdc.wa.gov/node/57697),Financial institutions and insurance,various,various
55156,57690-19719,57690,FE,18003,ERIK STROM,Employer,19719,RUSSELL INVESTMENT GROUP,19-Jul,8/14/2019,16456.0,RUSSELL INVESTMENT GROUP,5000.0,0.0,5000.0,0.0,0.0,0.0,0.0,0.0,0.0,0.0,5000.0,19719.0,Direct,,,View report (https://accesshub.pdc.wa.gov/node/57690),State government,various,various
55157,57696-28134,57696,FE,25651,Insight Strategic Partners LLC,Employer,28134,FRED HUTCHINSON CANCER RESEARCH CENTER,19-Jul,8/14/2019,16458.0,FRED HUTCHINSON CANCER RESEARCH CENTER,8000.0,0.0,8000.0,0.0,0.0,0.0,0.0,0.0,0.0,0.0,8000.0,28134.0,Direct,,,View report (https://accesshub.pdc.wa.gov/node/57696),Health Care,Healthcare,"OFM, Governor's Office, Budget Committees"
55158,57828-18412,57828,FE,17434,CASCADE GOVT AFFAIRS LLC*,Employer,18412,FRED MEYER (OXLEY & ASSOC),19-Jul,8/14/2019,16459.0,FRED MEYER (OXLEY & ASSOC),3600.0,0.0,3600.0,0.0,0.0,0.0,0.0,0.0,0.0,0.0,3600.0,18412.0,Direct,,,View report (https://accesshub.pdc.wa.gov/node/57828),Business and consumer affairs,Liquor and Initiative Signature Gathering,Commerce and State Government Committees
55159,57819-19622,57819,FE,17964,SCOTT C SIGMON,Employer,19622,GILEAD SCIENCES INC,19-Jul,8/14/2019,16471.0,GILEAD SCIENCES INC,4500.0,0.0,4500.0,0.0,0.0,0.0,0.0,0.0,0.0,0.0,4500.0,19622.0,Direct,,,View report (https://accesshub.pdc.wa.gov/node/57819),Health Care,Emerging Therapies Work Group,Health Care Authority
55160,56786-19432,56786,FE,17879,THOMAS M PARKER,Employer,19432,GONZAGA UNIVERSITY,19-Jun,8/14/2019,16474.0,GONZAGA UNIVERSITY,5000.0,0.0,5000.0,0.0,0.0,0.0,0.0,0.0,0.0,0.0,5000.0,19432.0,Direct,,,View report (https://accesshub.pdc.wa.gov/node/56786),Higher education,HIGHER ED,FISCAL HIGHER ED
55161,57867-37215,57867,FE,37193,Courtney Blatz,Employer,37215,GREATER SEATTLE CHAMBER OF COMMERCE (BOSWELL CONSULTING*),19-Jul,8/14/2019,16483.0,GREATER SEATTLE CHAMBER OF COMMERCE,233.0,0.0,233.0,25.0,0.0,0.0,0.0,0.0,0.0,25.0,258.0,37215.0,Subcontract,17398.0,BOSWELL CONSULTING*,View report (https://accesshub.pdc.wa.gov/node/57867),,,
55162,57867-37209,57867,FE,37193,Courtney Blatz,Employer,37209,HAMPTON TREE FARMS LLC (CHRISTOPHERSEN INC*),19-Jul,8/14/2019,16490.0,HAMPTON TREE FARMS LLC,333.0,0.0,333.0,0.0,0.0,0.0,0.0,0.0,0.0,0.0,333.0,37209.0,Subcontract,17348.0,CHRISTOPHERSEN INC*,View report (https://accesshub.pdc.wa.gov/node/57867),,,
55163,57844-49106,57844,FE,48956,Brooke Davies,Employer,49106,HAMPTON TREE FARMS LLC (CHRISTOPHERSEN INC*),19-Jul,8/14/2019,16490.0,HAMPTON TREE FARMS LLC,400.0,0.0,400.0,0.0,0.0,0.0,0.0,0.0,0.0,0.0,400.0,49106.0,Subcontract,17348.0,CHRISTOPHERSEN INC*,View report (https://accesshub.pdc.wa.gov/node/57844),,,
55164,57828-18413,57828,FE,17434,CASCADE GOVT AFFAIRS LLC*,Employer,18413,INTL CODE COUNCIL,19-Jul,8/14/2019,16539.0,INTL CODE COUNCIL,3500.0,0.0,3500.0,0.0,0.0,0.0,0.0,0.0,0.0,0.0,3500.0,18413.0,Direct,,,View report (https://accesshub.pdc.wa.gov/node/57828),State government,Building Code Issues,Labor and State Government Committees
55166,57819-19623,57819,FE,17964,SCOTT C SIGMON,Employer,19623,LEADINGAGE WA,19-Jul,8/14/2019,16588.0,LEADINGAGE WA,7500.0,0.0,7500.0,0.0,0.0,0.0,0.0,0.0,0.0,0.0,7500.0,19623.0,Direct,,,View report (https://accesshub.pdc.wa.gov/node/57819),Health Care,Long Term Care,DSHS
55167,57696-25652,57696,FE,25651,Insight Strategic Partners LLC,Employer,25652,LYFT INC,19-Jul,8/14/2019,16612.0,LYFT INC,4000.0,-4000.0,0.0,0.0,0.0,0.0,0.0,0.0,0.0,0.0,0.0,25652.0,Direct,,,View report (https://accesshub.pdc.wa.gov/node/57696),Transportation,Transportation,Transportation
55168,57828-18414,57828,FE,17434,CASCADE GOVT AFFAIRS LLC*,Employer,18414,MARINE VIEW VENTURES,19-Jul,8/14/2019,16618.0,MARINE VIEW VENTURES,3750.0,0.0,3750.0,0.0,0.0,0.0,0.0,0.0,0.0,0.0,3750.0,18414.0,Direct,,,View report (https://accesshub.pdc.wa.gov/node/57828),Transportation,Gas Tax Issues,Transportation Committees
55169,57827-49942,57827,FE,17830,ABBY G MOORE,Employer,49942,MASTERCARD WORLDWIDE,19-Jul,8/14/2019,16623.0,MASTERCARD WORLDWIDE,6250.0,0.0,6250.0,0.0,0.0,0.0,0.0,0.0,0.0,0.0,6250.0,49942.0,Direct,,,View report (https://accesshub.pdc.wa.gov/node/57827),,,
55170,57867-37201,57867,FE,37193,Courtney Blatz,Employer,37201,MERCK SHARP & DOHME LLC & AFFILIATES (CHRISTOPHERSEN INC*),19-Jul,8/14/2019,16632.0,MERCK SHARP & DOHME LLC & AFFILIATES,333.0,0.0,333.0,0.0,0.0,0.0,0.0,0.0,0.0,0.0,333.0,37201.0,Subcontract,17348.0,CHRISTOPHERSEN INC*,View report (https://accesshub.pdc.wa.gov/node/57867),,,
55171,57844-49110,57844,FE,48956,Brooke Davies,Employer,49110,MERCK SHARP & DOHME LLC & AFFILIATES (CHRISTOPHERSEN INC*),19-Jul,8/14/2019,16632.0,MERCK SHARP & DOHME LLC & AFFILIATES,400.0,0.0,400.0,0.0,0.0,0.0,0.0,0.0,0.0,0.0,400.0,49110.0,Subcontract,17348.0,CHRISTOPHERSEN INC*,View report (https://accesshub.pdc.wa.gov/node/57844),,,
55172,57697-18894,57697,FE,17597,PIERCE CONSULTING SVCS LLC*,Employer,18894,MICROSOFT CORP,19-Jul,8/14/2019,16636.0,MICROSOFT CORP,4460.0,-406.87,4053.13,141.25,0.0,0.0,0.0,0.0,0.0,141.25,4194.38,18894.0,Direct,,,View report (https://accesshub.pdc.wa.gov/node/57697),Technology,various,various
55173,56786-19434,56786,FE,17879,THOMAS M PARKER,Employer,19434,MT SPOKANE 2000,19-Jun,8/14/2019,16649.0,MT SPOKANE 2000,3000.0,0.0,3000.0,0.0,0.0,0.0,0.0,0.0,0.0,0.0,3000.0,19434.0,Direct,,,View report (https://accesshub.pdc.wa.gov/node/56786),Environmental Affairs - natural resources - parks,FISCAL,SEN HOUSE FISCAL COMMITTEES
55174,57781-19262,57781,FE,17804,LIS HOUCHEN,Employer,19262,NATL ASSN OF CHAIN DRUG STORES,19-Jul,8/14/2019,16658.0,NATL ASSN OF CHAIN DRUG STORES,790.72,0.0,790.72,0.0,0.0,0.0,0.0,0.0,0.0,0.0,790.72,19262.0,Direct,,,View report (https://accesshub.pdc.wa.gov/node/57781),Health Care,Pharmacy,Pharmacy Quality Assurance Commission
55175,57828-18415,57828,FE,17434,CASCADE GOVT AFFAIRS LLC*,Employer,18415,National Electrical Manufacturers Association (NEMA) c/o MultiState Associates LLC,19-Jul,8/14/2019,16664.0,National Electrical Manufacturers Association (NEMA) c/o MultiState Associates LLC,5000.0,0.0,5000.0,0.0,0.0,0.0,0.0,0.0,0.0,0.0,5000.0,18415.0,Direct,,,View report (https://accesshub.pdc.wa.gov/node/57828),Business and consumer affairs,Building Codes and Mercury Light Recycling,Local Government and Fiscal Committees
55176,57819-19624,57819,FE,17964,SCOTT C SIGMON,Employer,19624,CONSUMER HEALTHCARE PRODUCTS ASSN,19-Jul,8/14/2019,16692.0,CONSUMER HEALTHCARE PRODUCTS ASSN,4000.0,0.0,4000.0,0.0,0.0,0.0,0.0,0.0,0.0,0.0,4000.0,19624.0,Direct,,,View report (https://accesshub.pdc.wa.gov/node/57819),Health Care,Prescription Drug Take-Back,Department of Health
55177,57867-37221,57867,FE,37193,Courtney Blatz,Employer,37221,NORTHWEST AUTOMATIC VENDING ASSN (BOSWELL CONSULTING*),19-Jul,8/14/2019,16699.0,NORTHWEST AUTOMATIC VENDING ASSN,233.0,0.0,233.0,0.0,0.0,0.0,0.0,0.0,0.0,0.0,233.0,37221.0,Subcontract,17398.0,BOSWELL CONSULTING*,View report (https://accesshub.pdc.wa.gov/node/57867),,,
55178,57867-37202,57867,FE,37193,Courtney Blatz,Employer,37202,NORTHWEST KIDNEY CENTERS (CHRISTOPHERSEN INC*),19-Jul,8/14/2019,16711.0,NORTHWEST KIDNEY CENTERS,333.0,0.0,333.0,0.0,0.0,0.0,0.0,0.0,0.0,0.0,333.0,37202.0,Subcontract,17348.0,CHRISTOPHERSEN INC*,View report (https://accesshub.pdc.wa.gov/node/57867),,,
55179,57844-49111,57844,FE,48956,Brooke Davies,Employer,49111,NORTHWEST KIDNEY CENTERS (CHRISTOPHERSEN INC*),19-Jul,8/14/2019,16711.0,NORTHWEST KIDNEY CENTERS,400.0,0.0,400.0,0.0,0.0,0.0,0.0,0.0,0.0,0.0,400.0,49111.0,Subcontract,17348.0,CHRISTOPHERSEN INC*,View report (https://accesshub.pdc.wa.gov/node/57844),,,
55180,57828-39639,57828,FE,17434,CASCADE GOVT AFFAIRS LLC*,Employer,39639,NW NATURAL GAS,19-Jul,8/14/2019,16715.0,NW NATURAL GAS,5000.0,0.0,5000.0,0.0,0.0,0.0,0.0,0.0,0.0,0.0,5000.0,39639.0,Direct,,,View report (https://accesshub.pdc.wa.gov/node/57828),Energy and utilities,Carbon Taxes and Energy,"Energy and Environment, and Fiscal Committees"
55181,57867-37216,57867,FE,37193,Courtney Blatz,Employer,37216,NUCOR STEEL SEATTLE INC (BOSWELL CONSULTING*),19-Jul,8/14/2019,16727.0,NUCOR STEEL SEATTLE INC,233.0,0.0,233.0,0.0,0.0,0.0,0.0,0.0,0.0,0.0,233.0,37216.0,Subcontract,17398.0,BOSWELL CONSULTING*,View report (https://accesshub.pdc.wa.gov/node/57867),,,
55182,57819-19625,57819,FE,17964,SCOTT C SIGMON,Employer,19625,PARTNERS IN CAREERS,19-Jul,8/14/2019,16764.0,PARTNERS IN CAREERS,1500.0,0.0,1500.0,0.0,0.0,0.0,0.0,0.0,0.0,0.0,1500.0,19625.0,Direct,,,View report (https://accesshub.pdc.wa.gov/node/57819),Human services,Work Force Training,Career Connect Washington
55183,57867-37203,57867,FE,37193,Courtney Blatz,Employer,37203,Pediatrix Medical Group (CHRISTOPHERSEN INC*),19-Jul,8/14/2019,16769.0,Pediatrix Medical Group,333.0,0.0,333.0,0.0,0.0,0.0,0.0,0.0,0.0,0.0,333.0,37203.0,Subcontract,17348.0,CHRISTOPHERSEN INC*,View report (https://accesshub.pdc.wa.gov/node/57867),,,
55184,57844-49109,57844,FE,48956,Brooke Davies,Employer,49109,Pediatrix Medical Group (CHRISTOPHERSEN INC*),19-Jul,8/14/2019,16769.0,Pediatrix Medical Group,400.0,0.0,400.0,0.0,0.0,0.0,0.0,0.0,0.0,0.0,400.0,49109.0,Subcontract,17348.0,CHRISTOPHERSEN INC*,View report (https://accesshub.pdc.wa.gov/node/57844),,,
55185,57867-37224,57867,FE,37193,Courtney Blatz,Employer,37224,MC Construction (BOSWELL CONSULTING*),19-Jul,8/14/2019,16790.0,MC Construction,233.0,0.0,233.0,0.0,0.0,0.0,0.0,0.0,0.0,0.0,233.0,37224.0,Subcontract,17398.0,BOSWELL CONSULTING*,View report (https://accesshub.pdc.wa.gov/node/57867),,,
55186,57696-25657,57696,FE,25651,Insight Strategic Partners LLC,Employer,25657,PUGET SOUND ENERGY INC,19-Jul,8/14/2019,16828.0,PUGET SOUND ENERGY INC,17000.0,0.0,17000.0,0.0,0.0,0.0,0.0,0.0,0.0,0.0,17000.0,25657.0,Direct,,,View report (https://accesshub.pdc.wa.gov/node/57696),Energy and utilities,Energy,Energy and Environment
55187,57828-18416,57828,FE,17434,CASCADE GOVT AFFAIRS LLC*,Employer,18416,PUGET SOUND SCHOOL COALITION/KING CO SCHOOL COALITION (THRU K AND L GATES),19-Jul,8/14/2019,16832.0,PUGET SOUND SCHOOL COALITION/KING CO SCHOOL COALITION (THRU K AND L GATES),2750.0,0.0,2750.0,0.0,0.0,0.0,0.0,0.0,0.0,0.0,2750.0,18416.0,Direct,,,View report (https://accesshub.pdc.wa.gov/node/57828),Education,School Siting Issues,Education and Environment Committees
55189,57818-19397,57818,FE,17870,OUTCOMES BY LEVY LLC*,Employer,19397,RECREATIONAL BOATING ASSN OF WA,19-Jul,8/14/2019,16844.0,RECREATIONAL BOATING ASSN OF WA,1300.0,0.0,1300.0,114.47,0.0,0.0,0.0,0.0,0.0,114.47,1414.47,19397.0,Direct,,,View report (https://accesshub.pdc.wa.gov/node/57818),Environmental Affairs - natural resources - parks,Enforcement/education issues w/ 2019 vesse bil (SB 5577) to protect Orcas,"RBAW President, NMTA CEO/VP of Gov Affairs, meet w/ WDFW staff group"
55190,57862-18433,57862,FE,17445,DOLORES A CHIECHI,Employer,18433,RECREATIONAL GAMING ASSN,19-Jul,8/14/2019,16846.0,RECREATIONAL GAMING ASSN,1600.0,0.0,1600.0,0.0,0.0,0.0,0.0,0.0,0.0,0.0,1600.0,18433.0,Direct,,,View report (https://accesshub.pdc.wa.gov/node/57862),Business and consumer affairs,"Problem Gambling, sports wagering","House Commerce & Gaming, Senate Labor & Commerce, WSGC"
55191,57827-50056,57827,FE,17830,ABBY G MOORE,Employer,50056,BrightSpring Health Services (THRU MULTISTATE ASSOCIATES LLC),19-Jul,8/14/2019,16855.0,BrightSpring Health Services (THRU MULTISTATE ASSOCIATES LLC),2500.0,0.0,2500.0,0.0,0.0,0.0,0.0,0.0,0.0,0.0,2500.0,50056.0,Direct,,,View report (https://accesshub.pdc.wa.gov/node/57827),,,
55192,57829-18930,57829,FE,17611,STUART A HALSAN,Employer,18930,RITE AID CORPORATION,19-Jul,8/14/2019,16861.0,RITE AID CORPORATION,4500.0,0.0,4500.0,0.0,0.0,0.0,0.0,0.0,0.0,0.0,4500.0,18930.0,Direct,,,View report (https://accesshub.pdc.wa.gov/node/57829),Health Care,All,House and Senate
55193,57696-40091,57696,FE,25651,Insight Strategic Partners LLC,Employer,40091,SALTCHUK RESOURCES INC,19-Jul,8/14/2019,16869.0,SALTCHUK RESOURCES INC,6000.0,0.0,6000.0,0.0,0.0,0.0,0.0,0.0,0.0,0.0,6000.0,40091.0,Direct,,,View report (https://accesshub.pdc.wa.gov/node/57696),Transportation,Transportation,"Transportation, Governors Office"
55194,57822-19728,57822,FE,18010,Brewer Public Affairs,Employer,19728,SCHINDLER ELEVATOR CORP,19-Jul,8/14/2019,16877.0,SCHINDLER ELEVATOR CORP,3200.0,0.0,3200.0,0.0,0.0,0.0,0.0,0.0,0.0,0.0,3200.0,19728.0,Direct,,,View report (https://accesshub.pdc.wa.gov/node/57822),Business and consumer affairs,Elevator Policy,"LNI Labor, Fiscal Committees"
55195,57828-18417,57828,FE,17434,CASCADE GOVT AFFAIRS LLC*,Employer,18417,School Alliance,19-Jul,8/14/2019,16879.0,School Alliance,2750.0,0.0,2750.0,0.0,0.0,0.0,0.0,0.0,0.0,0.0,2750.0,18417.0,Direct,,,View report (https://accesshub.pdc.wa.gov/node/57828),Education,Local Levy Authority,Education and Fiscal Committees
55196,56786-42422,56786,FE,17879,THOMAS M PARKER,Employer,42422,SIGNATURE HEALTHCARE SERVICES LLC (LUKE ESSER),19-Jun,8/14/2019,16917.0,SIGNATURE HEALTHCARE SERVICES LLC,2000.0,0.0,2000.0,0.0,0.0,0.0,0.0,0.0,0.0,0.0,2000.0,42422.0,Subcontract,17528.0,LUKE ESSER,View report (https://accesshub.pdc.wa.gov/node/56786),,,
55197,57867-37230,57867,FE,37193,Courtney Blatz,Employer,37230,Washington Solar Energy Industries Association (BOSWELL CONSULTING*),19-Jul,8/14/2019,16929.0,Washington Solar Energy Industries Association,233.0,0.0,233.0,0.0,0.0,0.0,0.0,0.0,0.0,0.0,233.0,37230.0,Subcontract,17398.0,BOSWELL CONSULTING*,View report (https://accesshub.pdc.wa.gov/node/57867),,,
55198,57867-40682,57867,FE,37193,Courtney Blatz,Employer,40682,PEACEHEALTH (BOSWELL CONSULTING*),19-Jul,8/14/2019,16934.0,PEACEHEALTH,233.0,0.0,233.0,0.0,0.0,0.0,0.0,0.0,0.0,0.0,233.0,40682.0,Subcontract,17398.0,BOSWELL CONSULTING*,View report (https://accesshub.pdc.wa.gov/node/57867),,,
55199,56786-19437,56786,FE,17879,THOMAS M PARKER,Employer,19437,SPOKANE PUBLIC FACILITIES DIST,19-Jun,8/14/2019,16942.0,SPOKANE PUBLIC FACILITIES DIST,3000.0,0.0,3000.0,0.0,0.0,0.0,0.0,0.0,0.0,0.0,3000.0,19437.0,Direct,,,View report (https://accesshub.pdc.wa.gov/node/56786),Local government,LOCAL GOVT,FISCAL SEN HOUSE LOCAL GOVT
55200,57867-37204,57867,FE,37193,Courtney Blatz,Employer,37204,"STAND FOR CHILDREN, INC. (CHRISTOPHERSEN INC*)",19-Jul,8/14/2019,16949.0,"STAND FOR CHILDREN, INC.",333.0,0.0,333.0,0.0,0.0,0.0,0.0,0.0,0.0,0.0,333.0,37204.0,Subcontract,17348.0,CHRISTOPHERSEN INC*,View report (https://accesshub.pdc.wa.gov/node/57867),,,
55201,57844-49113,57844,FE,48956,Brooke Davies,Employer,49113,"STAND FOR CHILDREN, INC. (CHRISTOPHERSEN INC*)",19-Jul,8/14/2019,16949.0,"STAND FOR CHILDREN, INC.",400.0,0.0,400.0,0.0,0.0,0.0,0.0,0.0,0.0,0.0,400.0,49113.0,Subcontract,17348.0,CHRISTOPHERSEN INC*,View report (https://accesshub.pdc.wa.gov/node/57844),,,
55202,56786-19438,56786,FE,17879,THOMAS M PARKER,Employer,19438,Superior Court Judges Association,19-Jun,8/14/2019,16960.0,Superior Court Judges Association,8333.33,0.0,8333.33,0.0,0.0,0.0,0.0,0.0,0.0,0.0,8333.33,19438.0,Direct,,,View report (https://accesshub.pdc.wa.gov/node/56786),Law and justice,JUDICIAL,ADMIN SEN HOUSE FISCAL JUDICIAL CHILD
55203,56786-19439,56786,FE,17879,THOMAS M PARKER,Employer,19439,SURPLUS LINE ASSN OF WA,19-Jun,8/14/2019,16962.0,SURPLUS LINE ASSN OF WA,6500.0,0.0,6500.0,0.0,0.0,0.0,0.0,0.0,0.0,0.0,6500.0,19439.0,Direct,,,View report (https://accesshub.pdc.wa.gov/node/56786),Financial institutions and insurance,INSURANCE,FIN INST INS
55204,57828-18418,57828,FE,17434,CASCADE GOVT AFFAIRS LLC*,Employer,18418,TACOMA PUBLIC SCHOOLS,19-Jul,8/14/2019,16968.0,TACOMA PUBLIC SCHOOLS,7000.0,0.0,7000.0,0.0,0.0,0.0,0.0,0.0,0.0,0.0,7000.0,18418.0,Direct,,,View report (https://accesshub.pdc.wa.gov/node/57828),Education,Education Funding,Education and Fiscal Committees
55205,57882-18558,57882,FE,17489,WILLIAM F DEWEY,Employer,18558,TAYLOR SHELLFISH CO INC,19-Jul,8/14/2019,16973.0,TAYLOR SHELLFISH CO INC,313.44,0.0,313.44,0.0,0.0,0.0,0.0,0.0,0.0,0.0,313.44,18558.0,Direct,,,View report (https://accesshub.pdc.wa.gov/node/57882),Environmental Affairs - natural resources - parks,water quality,Senator Lovelett
55206,57867-37235,57867,FE,37193,Courtney Blatz,Employer,37235,Uber Technologies Inc and Affiliates (BOSWELL CONSULTING*),19-Jul,8/14/2019,17001.0,Uber Technologies Inc and Affiliates,233.0,0.0,233.0,0.0,0.0,0.0,0.0,0.0,0.0,0.0,233.0,37235.0,Subcontract,17398.0,BOSWELL CONSULTING*,View report (https://accesshub.pdc.wa.gov/node/57867),,,
55207,57819-19626,57819,FE,17964,SCOTT C SIGMON,Employer,19626,"UCB, INC",19-Jul,8/14/2019,17002.0,"UCB, INC",4000.0,0.0,4000.0,0.0,0.0,0.0,0.0,0.0,0.0,0.0,4000.0,19626.0,Direct,,,View report (https://accesshub.pdc.wa.gov/node/57819),Health Care,Emerging Therapies Workgroup,Health Care Authority
55208,56786-19440,56786,FE,17879,THOMAS M PARKER,Employer,19440,UNION PACIFIC RAILROAD CO,19-Jun,8/14/2019,17004.0,UNION PACIFIC RAILROAD CO,4666.0,0.0,4666.0,0.0,0.0,0.0,0.0,0.0,0.0,0.0,4666.0,19440.0,Direct,,,View report (https://accesshub.pdc.wa.gov/node/56786),Transportation,TRANSPORTATION,TRANS FISCAL ENV
55209,57867-37231,57867,FE,37193,Courtney Blatz,Employer,37231,VALLEY MEDICAL CENTER (BOSWELL CONSULTING*),19-Jul,8/14/2019,17027.0,VALLEY MEDICAL CENTER,233.0,0.0,233.0,0.0,0.0,0.0,0.0,0.0,0.0,0.0,233.0,37231.0,Subcontract,17398.0,BOSWELL CONSULTING*,View report (https://accesshub.pdc.wa.gov/node/57867),,,
55210,57867-37229,57867,FE,37193,Courtney Blatz,Employer,37229,VIGOR INDUSTRIAL (BOSWELL CONSULTING*),19-Jul,8/14/2019,17035.0,VIGOR INDUSTRIAL,233.0,0.0,233.0,0.0,0.0,0.0,0.0,0.0,0.0,0.0,233.0,37229.0,Subcontract,17398.0,BOSWELL CONSULTING*,View report (https://accesshub.pdc.wa.gov/node/57867),,,
55211,57697-18895,57697,FE,17597,PIERCE CONSULTING SVCS LLC*,Employer,18895,VULCAN INC,19-Jul,8/14/2019,17039.0,VULCAN INC,4000.0,-364.91,3635.09,0.0,0.0,0.0,0.0,0.0,0.0,0.0,3635.09,18895.0,Direct,,,View report (https://accesshub.pdc.wa.gov/node/57697),Business and consumer affairs,various,various
55213,57697-29242,57697,FE,17597,PIERCE CONSULTING SVCS LLC*,Employer,29242,WA CHARTERS ACTION,19-Jul,8/14/2019,17071.0,WA CHARTERS ACTION,3000.0,-273.68,2726.32,0.0,0.0,0.0,0.0,0.0,0.0,0.0,2726.32,29242.0,Direct,,,View report (https://accesshub.pdc.wa.gov/node/57697),Education,various,various
55214,57675-44833,57675,FE,44832,Mitch Price,Employer,44833,WA CHARTERS ACTION,19-Jul,8/14/2019,17071.0,WA CHARTERS ACTION,216.84,0.0,216.84,0.0,0.0,0.0,0.0,0.0,0.0,0.0,216.84,44833.0,Direct,,,View report (https://accesshub.pdc.wa.gov/node/57675),Education,various,various
55215,57867-37208,57867,FE,37193,Courtney Blatz,Employer,37208,WA CANNABUSINESS ASSN (CHRISTOPHERSEN INC*),19-Jul,8/14/2019,17073.0,WA CANNABUSINESS ASSN,336.0,0.0,336.0,0.0,0.0,0.0,0.0,0.0,0.0,0.0,336.0,37208.0,Subcontract,17348.0,CHRISTOPHERSEN INC*,View report (https://accesshub.pdc.wa.gov/node/57867),,,
55216,57844-49114,57844,FE,48956,Brooke Davies,Employer,49114,WA CANNABUSINESS ASSN (CHRISTOPHERSEN INC*),19-Jul,8/14/2019,17073.0,WA CANNABUSINESS ASSN,400.0,0.0,400.0,0.0,0.0,0.0,0.0,0.0,0.0,0.0,400.0,49114.0,Subcontract,17348.0,CHRISTOPHERSEN INC*,View report (https://accesshub.pdc.wa.gov/node/57844),,,
55217,57827-29050,57827,FE,17830,ABBY G MOORE,Employer,29050,WA COUNCIL FOR BEHAVIORAL HEALTH,19-Jul,8/14/2019,17083.0,WA COUNCIL FOR BEHAVIORAL HEALTH,4000.0,0.0,4000.0,0.0,0.0,0.0,0.0,0.0,0.0,0.0,4000.0,29050.0,Direct,,,View report (https://accesshub.pdc.wa.gov/node/57827),Health Care,Behavioral Health Funding,Health Care Authority
55218,57867-37214,57867,FE,37193,Courtney Blatz,Employer,37214,CLEANTECH ALLIANCE (BOSWELL CONSULTING*),19-Jul,8/14/2019,17088.0,CLEANTECH ALLIANCE,233.0,0.0,233.0,0.0,0.0,0.0,0.0,0.0,0.0,0.0,233.0,37214.0,Subcontract,17398.0,BOSWELL CONSULTING*,View report (https://accesshub.pdc.wa.gov/node/57867),,,
55219,57697-18897,57697,FE,17597,PIERCE CONSULTING SVCS LLC*,Employer,18897,Delta Dental of WA,19-Jul,8/14/2019,17096.0,Delta Dental of WA,3000.0,-273.68,2726.32,0.0,0.0,0.0,0.0,0.0,0.0,0.0,2726.32,18897.0,Direct,,,View report (https://accesshub.pdc.wa.gov/node/57697),Health Care,various,various
55220,57697-18899,57697,FE,17597,PIERCE CONSULTING SVCS LLC*,Employer,18899,WA FOREST PROTECTION ASSN,19-Jul,8/14/2019,17120.0,WA FOREST PROTECTION ASSN,2000.0,-182.45,1817.55,0.0,0.0,0.0,0.0,0.0,0.0,0.0,1817.55,18899.0,Direct,,,View report (https://accesshub.pdc.wa.gov/node/57697),Environmental Affairs - natural resources - parks,various,various
55221,57871-45577,57871,FE,45576,Terri Standish-Kuon,Employer,45577,INDEPENDENT COLLEGES OF WASHINGTON,19-Jul,8/14/2019,17133.0,INDEPENDENT COLLEGES OF WASHINGTON,234.0,0.0,234.0,0.0,0.0,250.0,0.0,0.0,0.0,250.0,484.0,45577.0,Direct,,,View report (https://accesshub.pdc.wa.gov/node/57871),Education,higher education,"Reps Berquist,Jinkins,Lovick, Med, Ramos, Tarleton"
55222,57829-18931,57829,FE,17611,STUART A HALSAN,Employer,18931,Washington Land Title Association,19-Jul,8/14/2019,17146.0,Washington Land Title Association,2100.0,0.0,2100.0,0.0,0.0,0.0,0.0,0.0,0.0,0.0,2100.0,18931.0,Direct,,,View report (https://accesshub.pdc.wa.gov/node/57829),State government,All,House and Senate
55223,57864-19379,57864,FE,17859,GERALD J O'KEEFE,Employer,19379,Washington Public Ports Association,19-Jul,8/14/2019,17174.0,Washington Public Ports Association,1067.62,0.0,1067.62,0.0,0.0,0.0,0.0,0.0,0.0,0.0,1067.62,19379.0,Direct,,,View report (https://accesshub.pdc.wa.gov/node/57864),Local government,Port Governance,Governmental Operations
55224,57865-19763,57865,FE,18025,JAMES THOMPSON,Employer,19763,Washington Public Ports Association,19-Jul,8/14/2019,17174.0,Washington Public Ports Association,1076.91,0.0,1076.91,0.0,0.0,0.0,0.0,0.0,0.0,0.0,1076.91,19763.0,Direct,,,View report (https://accesshub.pdc.wa.gov/node/57865),Local government,Port Governance,Governmental Operations
55225,57863-27537,57863,FE,27536,Christopher Herman,Employer,27537,Washington Public Ports Association,19-Jul,8/14/2019,17174.0,Washington Public Ports Association,931.92,0.0,931.92,0.0,0.0,0.0,0.0,0.0,0.0,0.0,931.92,27537.0,Direct,,,View report (https://accesshub.pdc.wa.gov/node/57863),Local government,Port Governance,Governmental Operations
55226,57697-18901,57697,FE,17597,PIERCE CONSULTING SVCS LLC*,Employer,18901,WA ROUNDTABLE,19-Jul,8/14/2019,17178.0,WA ROUNDTABLE,2175.0,-198.42,1976.58,0.0,0.0,0.0,0.0,0.0,0.0,0.0,1976.58,18901.0,Direct,,,View report (https://accesshub.pdc.wa.gov/node/57697),Business and consumer affairs,various,various
55227,57818-19398,57818,FE,17870,OUTCOMES BY LEVY LLC*,Employer,19398,WA RECREATION & PARKS ASSN,19-Jul,8/14/2019,17183.0,WA RECREATION & PARKS ASSN,1100.0,0.0,1100.0,191.68,0.0,0.0,0.0,0.0,0.0,191.68,1291.68,19398.0,Direct,,,View report (https://accesshub.pdc.wa.gov/node/57818),Environmental Affairs - natural resources - parks,"Ceremony & Award Plaque for Sen. David Frockt re ""ALEA"" $$","State Sen. David Frockt, Capital Budget lead for Ways & Means"
55228,57867-37232,57867,FE,37193,Courtney Blatz,Employer,37232,WA BEVERAGE ASSN (BOSWELL CONSULTING*),19-Jul,8/14/2019,17190.0,WA BEVERAGE ASSN,238.0,0.0,238.0,0.0,0.0,0.0,0.0,0.0,0.0,0.0,238.0,37232.0,Subcontract,17398.0,BOSWELL CONSULTING*,View report (https://accesshub.pdc.wa.gov/node/57867),,,
55229,57822-19729,57822,FE,18010,Brewer Public Affairs,Employer,19729,WSIA,19-Jul,8/14/2019,17194.0,WSIA,3000.0,0.0,3000.0,0.0,0.0,0.0,0.0,0.0,0.0,0.0,3000.0,19729.0,Direct,,,View report (https://accesshub.pdc.wa.gov/node/57822),Labor,Workers Comp. Insurance,"LNI, Labor and Fiscal Committees"
55230,57851-19253,57851,FE,17796,JAMES MCMAHAN,Employer,19253,WA ASSN OF SHERIFFS & POLICE CHIEFS,19-Jul,8/14/2019,17196.0,WA ASSN OF SHERIFFS & POLICE CHIEFS,480.0,0.0,480.0,0.0,0.0,0.0,0.0,0.0,0.0,0.0,480.0,19253.0,Direct,,,View report (https://accesshub.pdc.wa.gov/node/57851),Law and justice,"School Safety and Gun Laws, Death Penalty, Immigration, Initiative I-940",State Legislature
55231,57696-25653,57696,FE,25651,Insight Strategic Partners LLC,Employer,25653,WA TECHNOLOGY INDUSTRY ASSN,19-Jul,8/14/2019,17203.0,WA TECHNOLOGY INDUSTRY ASSN,4000.0,-4000.0,0.0,0.0,0.0,0.0,0.0,0.0,0.0,0.0,0.0,25653.0,Direct,,,View report (https://accesshub.pdc.wa.gov/node/57696),Technology,General Technology,Technology
55232,57697-18902,57697,FE,17597,PIERCE CONSULTING SVCS LLC*,Employer,18902,WA WHOLESALE DRUGGIST ASSN,19-Jul,8/14/2019,17208.0,WA WHOLESALE DRUGGIST ASSN,2750.0,-250.87,2499.13,0.0,0.0,0.0,0.0,0.0,0.0,0.0,2499.13,18902.0,Direct,,,View report (https://accesshub.pdc.wa.gov/node/57697),Health Care,various,various
55233,57868-19579,57868,FE,17944,MICHAEL V SCHWISOW,Employer,19579,Washington Winegrowers Association,19-Jul,8/14/2019,17210.0,Washington Winegrowers Association,2500.0,0.0,2500.0,0.0,0.0,0.0,0.0,0.0,0.0,0.0,2500.0,19579.0,Direct,,,View report (https://accesshub.pdc.wa.gov/node/57868),Agriculture,Ag policy,House and Senate Ag Committees
55234,57828-18421,57828,FE,17434,CASCADE GOVT AFFAIRS LLC*,Employer,18421,WA STATE ATHLETIC TRAINERS ASSN,19-Jul,8/14/2019,17218.0,WA STATE ATHLETIC TRAINERS ASSN,3000.0,0.0,3000.0,0.0,0.0,0.0,0.0,0.0,0.0,0.0,3000.0,18421.0,Direct,,,View report (https://accesshub.pdc.wa.gov/node/57828),Health Care,Health Care Licensure,Health Care Committees
55235,57842-18949,57842,FE,17621,NEIL T HARTMAN,Employer,18949,WA ST BUILDING & CONSTRUCTION TRADES COUNCIL,19-Jul,8/14/2019,17223.0,WA ST BUILDING & CONSTRUCTION TRADES COUNCIL,6426.0,0.0,6426.0,0.0,0.0,0.0,0.0,0.0,0.0,0.0,6426.0,18949.0,Direct,,,View report (https://accesshub.pdc.wa.gov/node/57842),Labor,"Public Safety, Prevailing Wage, Worker Comp, UI, Safety and Health,Transportation, Sick Leave, Wage and Hour, Environmental, Capital Budget","L&I, ESD,DOT, Attorney General's Office,Senate Labor & Commerce,Senate Transportation,Senate Ways and Means,House Labor and Workplace Standards,House Appropriations,House Transportation,House Capital Bud"
55236,57839-39997,57839,FE,39996,Mark Riker,Employer,39997,WA ST BUILDING & CONSTRUCTION TRADES COUNCIL,19-Jul,8/14/2019,17223.0,WA ST BUILDING & CONSTRUCTION TRADES COUNCIL,9000.0,0.0,9000.0,0.0,0.0,0.0,0.0,0.0,0.0,0.0,9000.0,39997.0,Direct,,,View report (https://accesshub.pdc.wa.gov/node/57839),Labor,"Public Safety, Prevailing Wage, Worker Comp, Unemployment Insurance, Safety and Health,Transportation, Sick Leave, Wage and Hour, Environmental, Capital Budget","Labor & Industries,Employment Security,Department of Transportation,Attorney General's Office,Senate Labor & Commerce,Senate Transportation,Senate Ways & Means,House Labor & Workplace Standards,House Appropriations,House Transportation,House Capital Budg"
55237,57833-18560,57833,FE,17491,SCOTT DILLEY,Employer,18560,WA ST DAIRY FEDERATION,19-Jul,8/14/2019,17239.0,WA ST DAIRY FEDERATION,5000.0,0.0,5000.0,0.0,0.0,0.0,0.0,0.0,0.0,0.0,5000.0,18560.0,Direct,,,View report (https://accesshub.pdc.wa.gov/node/57833),Agriculture,Dairy,Legislature and State agencies
55238,57834-18868,57834,FE,17583,JAY GORDON,Employer,18868,WA ST DAIRY FEDERATION,19-Jul,8/14/2019,17239.0,WA ST DAIRY FEDERATION,5000.0,0.0,5000.0,0.0,0.0,0.0,0.0,0.0,0.0,0.0,5000.0,18868.0,Direct,,,View report (https://accesshub.pdc.wa.gov/node/57834),Agriculture,All Dairy Issues,Legislature and State agencies
55239,57867-37234,57867,FE,37193,Courtney Blatz,Employer,37234,"WASTE MANAGEMENT OF WASHINGTON, INC. (BOSWELL CONSULTING*)",19-Jul,8/14/2019,17260.0,"WASTE MANAGEMENT OF WASHINGTON, INC.",233.0,0.0,233.0,0.0,0.0,0.0,0.0,0.0,0.0,0.0,233.0,37234.0,Subcontract,17398.0,BOSWELL CONSULTING*,View report (https://accesshub.pdc.wa.gov/node/57867),,,
55241,57861-19597,57861,FE,17956,LARRY B SHANNON,Employer,19597,WA ST ASSN FOR JUSTICE,19-Jul,8/14/2019,17289.0,WA ST ASSN FOR JUSTICE,13000.0,0.0,13000.0,3147.73,0.0,0.0,0.0,0.0,0.0,3147.73,16147.73,19597.0,Direct,,,View report (https://accesshub.pdc.wa.gov/node/57861),Labor,labor,Commerce and Labor Senate Committee
55242,57868-19580,57868,FE,17944,MICHAEL V SCHWISOW,Employer,19580,WA ST WATER RESOURCES ASSN,19-Jul,8/14/2019,17292.0,WA ST WATER RESOURCES ASSN,4816.67,0.0,4816.67,0.0,0.0,0.0,0.0,0.0,0.0,0.0,4816.67,19580.0,Direct,,,View report (https://accesshub.pdc.wa.gov/node/57868),,,
55243,56786-19442,56786,FE,17879,THOMAS M PARKER,Employer,19442,WHATCOM CO COUNCIL OF GOVERNMENTS,19-Jun,8/14/2019,17308.0,WHATCOM CO COUNCIL OF GOVERNMENTS,3590.0,0.0,3590.0,0.0,0.0,0.0,0.0,0.0,0.0,0.0,3590.0,19442.0,Direct,,,View report (https://accesshub.pdc.wa.gov/node/56786),Transportation,TRANSPORTATION,TRANSPORTATION FISCAL
55244,57819-25407,57819,FE,17964,SCOTT C SIGMON,Employer,25407,"bluebird bio, Inc.",19-Jul,8/14/2019,25383.0,"bluebird bio, Inc.",4000.0,0.0,4000.0,0.0,0.0,0.0,0.0,0.0,0.0,0.0,4000.0,25407.0,Direct,,,View report (https://accesshub.pdc.wa.gov/node/57819),Health Care,Emerging Therapies / Gene Therapy,Health Care Authority
55245,57623-28185,57623,FE,17885,Thomas A Perrick,Employer,28185,JPMorgan Chase Holdings LLC,19-Jul,8/14/2019,28184.0,JPMorgan Chase Holdings LLC,743.4,0.0,743.4,0.0,0.0,0.0,0.0,0.0,0.0,0.0,743.4,28185.0,Direct,,,View report (https://accesshub.pdc.wa.gov/node/57623),Financial institutions and insurance,Public Funds,State Treasury
55246,57827-29099,57827,FE,17830,ABBY G MOORE,Employer,29099,Association for Accessible Medicines,19-Jul,8/14/2019,29098.0,Association for Accessible Medicines,4500.0,0.0,4500.0,0.0,0.0,0.0,0.0,0.0,0.0,0.0,4500.0,29099.0,Direct,,,View report (https://accesshub.pdc.wa.gov/node/57827),,,
55247,57696-53511,57696,FE,25651,Insight Strategic Partners LLC,Employer,53511,Renewable Energy Group,19-Jul,8/14/2019,30764.0,Renewable Energy Group,5000.0,0.0,5000.0,0.0,0.0,0.0,0.0,0.0,0.0,0.0,5000.0,53511.0,Direct,,,View report (https://accesshub.pdc.wa.gov/node/57696),Energy and utilities,Ecology,"Energy and Environment, Ecology"
55248,57697-30933,57697,FE,17597,PIERCE CONSULTING SVCS LLC*,Employer,30933,Washington State Opportunity Scholarship,19-Jul,8/14/2019,30931.0,Washington State Opportunity Scholarship,2000.0,-182.45,1817.55,0.0,0.0,0.0,0.0,0.0,0.0,0.0,1817.55,30933.0,Direct,,,View report (https://accesshub.pdc.wa.gov/node/57697),Higher education,various,various
55249,57867-37223,57867,FE,37193,Courtney Blatz,Employer,37223,Nippon Paper Industries USA (BOSWELL CONSULTING*),19-Jul,8/14/2019,31405.0,Nippon Paper Industries USA,233.0,0.0,233.0,0.0,0.0,0.0,0.0,0.0,0.0,0.0,233.0,37223.0,Subcontract,17398.0,BOSWELL CONSULTING*,View report (https://accesshub.pdc.wa.gov/node/57867),,,
55250,57828-31672,57828,FE,17434,CASCADE GOVT AFFAIRS LLC*,Employer,31672,Federal Way Public Schools,19-Jul,8/14/2019,31422.0,Federal Way Public Schools,4500.0,0.0,4500.0,0.0,0.0,0.0,0.0,0.0,0.0,0.0,4500.0,31672.0,Direct,,,View report (https://accesshub.pdc.wa.gov/node/57828),Education,K-12 Funding and Capital Budget Items,Capital Budget Committees and Local legislators
55251,57696-36094,57696,FE,25651,Insight Strategic Partners LLC,Employer,36094,"Youth Villages, Inc.",19-Jul,8/14/2019,36043.0,"Youth Villages, Inc.",5500.0,0.0,5500.0,0.0,0.0,0.0,0.0,0.0,0.0,0.0,5500.0,36094.0,Direct,,,View report (https://accesshub.pdc.wa.gov/node/57696),Human services,Human Services,"Appropriations, Ways and Means"
55252,57867-40686,57867,FE,37193,Courtney Blatz,Employer,40686,Port of Hood River (BOSWELL CONSULTING*),19-Jul,8/14/2019,36737.0,Port of Hood River,233.0,0.0,233.0,0.0,0.0,0.0,0.0,0.0,0.0,0.0,233.0,40686.0,Subcontract,17398.0,BOSWELL CONSULTING*,View report (https://accesshub.pdc.wa.gov/node/57867),,,
55253,57867-40719,57867,FE,37193,Courtney Blatz,Employer,40719,Recompose (CHRISTOPHERSEN INC*),19-Jul,8/14/2019,38316.0,Recompose,333.0,0.0,333.0,0.0,0.0,0.0,0.0,0.0,0.0,0.0,333.0,40719.0,Subcontract,17348.0,CHRISTOPHERSEN INC*,View report (https://accesshub.pdc.wa.gov/node/57867),,,
55254,57844-49112,57844,FE,48956,Brooke Davies,Employer,49112,Recompose (CHRISTOPHERSEN INC*),19-Jul,8/14/2019,38316.0,Recompose,400.0,0.0,400.0,0.0,0.0,0.0,0.0,0.0,0.0,0.0,400.0,49112.0,Subcontract,17348.0,CHRISTOPHERSEN INC*,View report (https://accesshub.pdc.wa.gov/node/57844),,,
55255,57696-51447,57696,FE,25651,Insight Strategic Partners LLC,Employer,51447,FareStart,19-Jul,8/14/2019,39820.0,FareStart,2500.0,0.0,2500.0,0.0,0.0,0.0,0.0,0.0,0.0,0.0,2500.0,51447.0,Direct,,,View report (https://accesshub.pdc.wa.gov/node/57696),State government,Capital Funding,Budget Committees
55256,57696-41067,57696,FE,25651,Insight Strategic Partners LLC,Employer,41067,Blokable,19-Jul,8/14/2019,39976.0,Blokable,5000.0,0.0,5000.0,0.0,0.0,0.0,0.0,0.0,0.0,0.0,5000.0,41067.0,Direct,,,View report (https://accesshub.pdc.wa.gov/node/57696),State government,Housing,Department of Commerce
55257,57827-42257,57827,FE,17830,ABBY G MOORE,Employer,42257,Wireless Infrastructure Association (thru MultiState Associates LLC),19-Jul,8/14/2019,41737.0,Wireless Infrastructure Association (thru MultiState Associates LLC),2500.0,0.0,2500.0,0.0,0.0,0.0,0.0,0.0,0.0,0.0,2500.0,42257.0,Direct,,,View report (https://accesshub.pdc.wa.gov/node/57827),,,
55258,57828-45539,57828,FE,17434,CASCADE GOVT AFFAIRS LLC*,Employer,45539,"Lamb Weston, Inc",19-Jul,8/14/2019,45236.0,"Lamb Weston, Inc",5500.0,0.0,5500.0,0.0,0.0,0.0,0.0,0.0,0.0,0.0,5500.0,45539.0,Direct,,,View report (https://accesshub.pdc.wa.gov/node/57828),Agriculture,Agriculture and Tax Policy Issues,Agriculture Committees
55259,57827-46715,57827,FE,17830,ABBY G MOORE,Employer,46715,Public Libraries of Washington,19-Jul,8/14/2019,46248.0,Public Libraries of Washington,2500.0,0.0,2500.0,0.0,0.0,0.0,0.0,0.0,0.0,0.0,2500.0,46715.0,Direct,,,View report (https://accesshub.pdc.wa.gov/node/57827),,,
55260,57841-51699,57841,FE,45903,"Doug Mah & Associates, LLC",Employer,51699,Thurston County Chamber of Commerce,19-Aug,8/14/2019,47800.0,Thurston County Chamber of Commerce,1500.0,0.0,1500.0,0.0,0.0,0.0,0.0,0.0,0.0,0.0,1500.0,51699.0,Direct,,,View report (https://accesshub.pdc.wa.gov/node/57841),Transportation,Transportation,Rep. Barkis
55261,57822-48933,57822,FE,18010,Brewer Public Affairs,Employer,48933,"A Place for Rover, Inc.",19-Jul,8/14/2019,48763.0,"A Place for Rover, Inc.",6500.0,0.0,6500.0,0.0,0.0,0.0,0.0,0.0,0.0,0.0,6500.0,48933.0,Direct,,,View report (https://accesshub.pdc.wa.gov/node/57822),Labor,Independent Contractor,"LNI, Labor, Fiscal Committees"
55262,57844-51946,57844,FE,48956,Brooke Davies,Employer,51946,Socati Corp. (CHRISTOPHERSEN INC*),19-Jul,8/14/2019,50181.0,Socati Corp.,400.0,0.0,400.0,0.0,0.0,0.0,0.0,0.0,0.0,0.0,400.0,51946.0,Subcontract,17348.0,CHRISTOPHERSEN INC*,View report (https://accesshub.pdc.wa.gov/node/57844),,,
55263,57149-50466,57149,FE,39147,Cameron M. Bailey,Employer,50466,Skagit PUD,19-Jul,8/14/2019,50279.0,Skagit PUD,1000.0,0.0,1000.0,0.0,0.0,0.0,0.0,0.0,0.0,0.0,1000.0,50466.0,Direct,,,View report (https://accesshub.pdc.wa.gov/node/57149),Energy and utilities,Capital Budget Funding,"Hosue Capital Budget, Senate Ways and Means"
55264,57828-50589,57828,FE,17434,CASCADE GOVT AFFAIRS LLC*,Employer,50589,GIrls Who Code,19-Jul,8/14/2019,50586.0,GIrls Who Code,3500.0,0.0,3500.0,0.0,0.0,0.0,0.0,0.0,0.0,0.0,3500.0,50589.0,Direct,,,View report (https://accesshub.pdc.wa.gov/node/57828),Education,Computer Science Data Tracking,Education Committees
55265,57847-50627,57847,FE,50624,RUTH KAGI,Employer,50627,CHILDRENS CAMPAIGN FUND,19-May,8/14/2019,50626.0,CHILDRENS CAMPAIGN FUND,479.0,0.0,479.0,62.0,2244.23,0.0,0.0,0.0,0.0,2306.23,2785.23,50627.0,Direct,,,View report (https://accesshub.pdc.wa.gov/node/57847),Human services,Early learning,"House Human Services and EL, Senate EL/K-12 Committee"
55266,57730-56450,57730,FE,56449,Federal Advocates,Employer,56450,LAVLE USA Inc,19-Jul,8/14/2019,50691.0,LAVLE USA Inc,3450.0,0.0,3450.0,0.0,0.0,0.0,0.0,0.0,0.0,0.0,3450.0,56450.0,Direct,,,View report (https://accesshub.pdc.wa.gov/node/57730),Energy and utilities,Economic development for electric battery production,Jay Inslee - Governor; Charles Knutson - Sr. Policy Advisor to the Governor
55267,57149-50715,57149,FE,39147,Cameron M. Bailey,Employer,50715,Washington State Animal Damage Control Program,19-Jul,8/14/2019,50705.0,Washington State Animal Damage Control Program,3000.0,0.0,3000.0,0.0,0.0,0.0,0.0,0.0,0.0,0.0,3000.0,50715.0,Direct,,,View report (https://accesshub.pdc.wa.gov/node/57149),Environmental Affairs - natural resources - parks,Animal Damage to Timber,"House Rural Dev. Agriculture & Nat. Resources, Senate Ag Water Nat. Resources, & Parks"
55269,57828-52243,57828,FE,17434,CASCADE GOVT AFFAIRS LLC*,Employer,52243,University Place School District,19-Jul,8/14/2019,52226.0,University Place School District,1710.0,0.0,1710.0,0.0,0.0,0.0,0.0,0.0,0.0,0.0,1710.0,52243.0,Direct,,,View report (https://accesshub.pdc.wa.gov/node/57828),Education,All K-12 Funding Related Issues,Education and Fiscal Committees
55270,57822-52924,57822,FE,18010,Brewer Public Affairs,Employer,52924,OfferUp Inc.,19-Jul,8/14/2019,52573.0,OfferUp Inc.,6500.0,0.0,6500.0,0.0,0.0,0.0,0.0,0.0,0.0,0.0,6500.0,52924.0,Direct,,,View report (https://accesshub.pdc.wa.gov/node/57822),Technology,"Tax, Technology","DOR, Fiscal, Technology Committees"
55272,57762-53621,57762,FE,53620,Stephanie Celt,Employer,53621,"BlueGreen Alliance, Inc.",19-Jul,8/14/2019,53372.0,"BlueGreen Alliance, Inc.",481.0,0.0,481.0,0.0,0.0,0.0,0.0,0.0,0.0,0.0,481.0,53621.0,Direct,,,View report (https://accesshub.pdc.wa.gov/node/57762),Environmental Affairs - natural resources - parks,Buy Clean policy development,Rep Beth Doglio
55273,57873-55624,57873,FE,55623,Dan Kirschner,Employer,55624,Northwest Gas Association,19-Jul,8/14/2019,55622.0,Northwest Gas Association,270.0,0.0,270.0,210.0,162.73,0.0,0.0,0.0,0.0,372.73,642.73,55624.0,Direct,,,View report (https://accesshub.pdc.wa.gov/node/57873),Energy and utilities,natural gas,"House Environment & Energy, Senate Environment, Energy & Technology"
55274,57867-57266,57867,FE,37193,Courtney Blatz,Employer,57266,Pasado's Safe Haven,19-Jul,8/14/2019,56480.0,Pasado's Safe Haven,3000.0,0.0,3000.0,0.0,0.0,0.0,0.0,0.0,0.0,0.0,3000.0,57266.0,Direct,,,View report (https://accesshub.pdc.wa.gov/node/57867),Law and justice,various,various
55275,50558-19694,50558,FE,17996,STRATEGIES 360*,Employer,19694,AGRI BEEF CO,18-Dec,8/15/2019,16075.0,AGRI BEEF CO,4000.0,0.0,4000.0,0.0,0.0,0.0,0.0,0.0,0.0,0.0,4000.0,19694.0,Direct,,,View report (https://accesshub.pdc.wa.gov/node/50558),,,
55276,51861-19694,51861,FE,17996,STRATEGIES 360*,Employer,19694,AGRI BEEF CO,19-Jan,8/15/2019,16075.0,AGRI BEEF CO,6000.0,0.0,6000.0,0.0,0.0,0.0,0.0,0.0,0.0,0.0,6000.0,19694.0,Direct,,,View report (https://accesshub.pdc.wa.gov/node/51861),Agriculture,Brand fee,Ag
55277,53795-19694,53795,FE,17996,STRATEGIES 360*,Employer,19694,AGRI BEEF CO,19-Feb,8/15/2019,16075.0,AGRI BEEF CO,6000.0,0.0,6000.0,0.0,0.0,0.0,0.0,0.0,0.0,0.0,6000.0,19694.0,Direct,,,View report (https://accesshub.pdc.wa.gov/node/53795),Agriculture,Brand fee,Ag
55278,54725-19694,54725,FE,17996,STRATEGIES 360*,Employer,19694,AGRI BEEF CO,19-Mar,8/15/2019,16075.0,AGRI BEEF CO,6000.0,0.0,6000.0,0.0,0.0,0.0,0.0,0.0,0.0,0.0,6000.0,19694.0,Direct,,,View report (https://accesshub.pdc.wa.gov/node/54725),Agriculture,Brand fee,Ag
55279,55565-19694,55565,FE,17996,STRATEGIES 360*,Employer,19694,AGRI BEEF CO,19-Apr,8/15/2019,16075.0,AGRI BEEF CO,6000.0,0.0,6000.0,0.0,0.0,0.0,0.0,0.0,0.0,0.0,6000.0,19694.0,Direct,,,View report (https://accesshub.pdc.wa.gov/node/55565),Agriculture,Brand fee,Ag
55281,57700-18283,57700,FE,17398,BOSWELL CONSULTING*,Employer,18283,AMERICAN INSTITUTE OF ARCHITECTS WA COUNCIL,19-Jul,8/15/2019,16076.0,AMERICAN INSTITUTE OF ARCHITECTS WA COUNCIL,1750.0,-399.0,1351.0,0.0,0.0,0.0,0.0,0.0,0.0,0.0,1351.0,18283.0,Direct,,,View report (https://accesshub.pdc.wa.gov/node/57700),Business and consumer affairs,various,various
55282,57946-19765,57946,FE,18027,ROWLAND THOMPSON,Employer,19765,ALLIED DAILY NEWSPAPERS OF WA,19-Jul,8/15/2019,16082.0,ALLIED DAILY NEWSPAPERS OF WA,4000.0,0.0,4000.0,151.56,166.7,0.0,0.0,0.0,0.0,318.26,4318.26,19765.0,Direct,,,View report (https://accesshub.pdc.wa.gov/node/57946),State government,Open Records,All
55283,57772-18371,57772,FE,17433,CARNEY BADLEY SPELLMAN*,Employer,18371,ALLSTATE INSURANCE CO,19-Jul,8/15/2019,16085.0,ALLSTATE INSURANCE CO,4500.0,0.0,4500.0,0.0,0.0,7500.0,0.0,0.0,0.0,7500.0,12000.0,18371.0,Direct,,,View report (https://accesshub.pdc.wa.gov/node/57772),Business and consumer affairs,"Insurance, Taxation, Tort Issues Insurance, Taxation, Tort Issues",Senate FII Cmte; House BFS Cmte; Senate L&J Cmte; House Jud Cmte; Senate W/M Cmte; House Approp. Cmte; Ins. Comm
55284,57772-18372,57772,FE,17433,CARNEY BADLEY SPELLMAN*,Employer,18372,AMERICAN COUNCIL OF LIFE INSURERS,19-Jul,8/15/2019,16098.0,AMERICAN COUNCIL OF LIFE INSURERS,3333.33,0.0,3333.33,0.0,0.0,4000.0,0.0,0.0,0.0,4000.0,7333.33,18372.0,Direct,,,View report (https://accesshub.pdc.wa.gov/node/57772),Business and consumer affairs,"Life Insurance, Annuitites, Disability Insurance, Long Term Care Insurance",Senate FI ED & T Committee; House CP & B
55285,50558-19695,50558,FE,17996,STRATEGIES 360*,Employer,19695,"US Ecology Washington, Inc.",18-Dec,8/15/2019,16101.0,"US Ecology Washington, Inc.",4000.0,0.0,4000.0,0.0,0.0,0.0,0.0,0.0,0.0,0.0,4000.0,19695.0,Direct,,,View report (https://accesshub.pdc.wa.gov/node/50558),,,
55286,51861-19695,51861,FE,17996,STRATEGIES 360*,Employer,19695,"US Ecology Washington, Inc.",19-Jan,8/15/2019,16101.0,"US Ecology Washington, Inc.",4000.0,0.0,4000.0,0.0,0.0,0.0,0.0,0.0,0.0,0.0,4000.0,19695.0,Direct,,,View report (https://accesshub.pdc.wa.gov/node/51861),,,
55287,53795-19695,53795,FE,17996,STRATEGIES 360*,Employer,19695,"US Ecology Washington, Inc.",19-Feb,8/15/2019,16101.0,"US Ecology Washington, Inc.",4000.0,0.0,4000.0,0.0,0.0,0.0,0.0,0.0,0.0,0.0,4000.0,19695.0,Direct,,,View report (https://accesshub.pdc.wa.gov/node/53795),,,
55288,54725-19695,54725,FE,17996,STRATEGIES 360*,Employer,19695,"US Ecology Washington, Inc.",19-Mar,8/15/2019,16101.0,"US Ecology Washington, Inc.",4000.0,0.0,4000.0,0.0,0.0,0.0,0.0,0.0,0.0,0.0,4000.0,19695.0,Direct,,,View report (https://accesshub.pdc.wa.gov/node/54725),,,
55289,55565-19695,55565,FE,17996,STRATEGIES 360*,Employer,19695,"US Ecology Washington, Inc.",19-Apr,8/15/2019,16101.0,"US Ecology Washington, Inc.",4000.0,0.0,4000.0,0.0,0.0,0.0,0.0,0.0,0.0,0.0,4000.0,19695.0,Direct,,,View report (https://accesshub.pdc.wa.gov/node/55565),,,
55291,57772-18373,57772,FE,17433,CARNEY BADLEY SPELLMAN*,Employer,18373,AMERICAN FAMILY MUTUAL INSURANCE,19-Jul,8/15/2019,16103.0,AMERICAN FAMILY MUTUAL INSURANCE,4166.67,0.0,4166.67,0.0,0.0,0.0,0.0,0.0,0.0,0.0,4166.67,18373.0,Direct,,,View report (https://accesshub.pdc.wa.gov/node/57772),Business and consumer affairs,"Insurance, Taxation, Tort Issues",Senate FII Cmte; House BFS Cmte; Senate L&J Cmte; House Jud Cmte; Senate W/M Cmte; House Approp. Cmte; Ins. Comm
55292,57772-18375,57772,FE,17433,CARNEY BADLEY SPELLMAN*,Employer,18375,AMERICAS HEALTH INSURANCE PLANS,19-Jul,8/15/2019,16110.0,AMERICAS HEALTH INSURANCE PLANS,5610.41,0.0,5610.41,0.0,0.0,0.0,0.0,0.0,0.0,0.0,5610.41,18375.0,Direct,,,View report (https://accesshub.pdc.wa.gov/node/57772),Business and consumer affairs,"Health Insurance, Long Term Care Insurance",Senate HC Cmte; House HC&W Cmte; Ins. Comm.
55293,50558-19696,50558,FE,17996,STRATEGIES 360*,Employer,19696,AMERICAN MEDICAL RESPONSE,18-Dec,8/15/2019,16114.0,AMERICAN MEDICAL RESPONSE,5000.0,0.0,5000.0,0.0,0.0,0.0,0.0,0.0,0.0,0.0,5000.0,19696.0,Direct,,,View report (https://accesshub.pdc.wa.gov/node/50558),Health Care,Quality Assurance draft bill,Health Care
55294,51861-19696,51861,FE,17996,STRATEGIES 360*,Employer,19696,AMERICAN MEDICAL RESPONSE,19-Jan,8/15/2019,16114.0,AMERICAN MEDICAL RESPONSE,4000.0,0.0,4000.0,0.0,0.0,0.0,0.0,0.0,0.0,0.0,4000.0,19696.0,Direct,,,View report (https://accesshub.pdc.wa.gov/node/51861),Health Care,Quality Assurance fee,Health Care
55295,53795-19696,53795,FE,17996,STRATEGIES 360*,Employer,19696,AMERICAN MEDICAL RESPONSE,19-Feb,8/15/2019,16114.0,AMERICAN MEDICAL RESPONSE,4000.0,0.0,4000.0,0.0,0.0,0.0,0.0,0.0,0.0,0.0,4000.0,19696.0,Direct,,,View report (https://accesshub.pdc.wa.gov/node/53795),Health Care,Quality Assurance fee,Health Care
55296,54725-19696,54725,FE,17996,STRATEGIES 360*,Employer,19696,AMERICAN MEDICAL RESPONSE,19-Mar,8/15/2019,16114.0,AMERICAN MEDICAL RESPONSE,4000.0,0.0,4000.0,0.0,0.0,0.0,0.0,0.0,0.0,0.0,4000.0,19696.0,Direct,,,View report (https://accesshub.pdc.wa.gov/node/54725),Health Care,Medicaid reimbursement,Health Care
55297,55565-19696,55565,FE,17996,STRATEGIES 360*,Employer,19696,AMERICAN MEDICAL RESPONSE,19-Apr,8/15/2019,16114.0,AMERICAN MEDICAL RESPONSE,4000.0,0.0,4000.0,0.0,0.0,0.0,0.0,0.0,0.0,0.0,4000.0,19696.0,Direct,,,View report (https://accesshub.pdc.wa.gov/node/55565),Health Care,Medicaid reimbursement,Health Care
55299,57946-19943,57946,FE,18027,ROWLAND THOMPSON,Employer,19943,AMERICAN TRAFFIC SOLUTIONS INC (STAUFFACHER COMMUNICATIONS*),19-Jul,8/15/2019,16124.0,AMERICAN TRAFFIC SOLUTIONS INC,2250.0,0.0,2250.0,0.0,0.0,0.0,0.0,0.0,0.0,0.0,2250.0,19943.0,Subcontract,17983.0,STAUFFACHER COMMUNICATIONS*,View report (https://accesshub.pdc.wa.gov/node/57946),,,
55300,57772-18378,57772,FE,17433,CARNEY BADLEY SPELLMAN*,Employer,18378,Architects and Engineers Legislative Council,19-Jul,8/15/2019,16138.0,Architects and Engineers Legislative Council,6963.34,0.0,6963.34,0.0,0.0,0.0,0.0,0.0,0.0,0.0,6963.34,18378.0,Direct,,,View report (https://accesshub.pdc.wa.gov/node/57772),Business and consumer affairs,"Construction, Consumer Affairs, Taxation, Liability, Health Care, Data Issues, Insurance, Financial Services, Transportation, Environmental Regulation","Senate Commerce, Labor & Sports; Senate Energy, Environment & Telecommunications; Senate Financial Institutions & Insurance; Senate Health Care; Senate Human Services"
55301,57772-18379,57772,FE,17433,CARNEY BADLEY SPELLMAN*,Employer,18379,ASSOCIATED BUILDERS & CONTRACTORS (WESTERN WA CHAPTER),19-Jul,8/15/2019,16148.0,ASSOCIATED BUILDERS & CONTRACTORS (WESTERN WA CHAPTER),3333.34,0.0,3333.34,0.0,0.0,0.0,0.0,0.0,0.0,0.0,3333.34,18379.0,Direct,,,View report (https://accesshub.pdc.wa.gov/node/57772),Business and consumer affairs,"Construction, Consumer Affairs, Taxation, Liability, Health Care, Data Issues, Insurance, Financial Services, Transportation, Environmental Regulation, Economic Development","Senate Commerce, Labor & Sports; Senate Energy, Environment & Telecommunications; Senate Financial Institutions & Insurance; Senate Health Care; Senate Human Services"
55303,57772-18380,57772,FE,17433,CARNEY BADLEY SPELLMAN*,Employer,18380,ABC Inland Pacific,19-Jul,8/15/2019,16150.0,ABC Inland Pacific,937.5,0.0,937.5,0.0,0.0,0.0,0.0,0.0,0.0,0.0,937.5,18380.0,Direct,,,View report (https://accesshub.pdc.wa.gov/node/57772),Business and consumer affairs,"Construction, Consumer Affairs, Taxation, Liability, Health Care, Data Issues, Insurance, Financial Services, Transportation, Environmental Regulation, Economic Development","Senate Commerce, Labor & Sports; Senate Energy, Environment & Telecommunications; Senate Financial Institutions & Insurance; Senate Health Care; Senate Human Services"
55304,57772-18381,57772,FE,17433,CARNEY BADLEY SPELLMAN*,Employer,18381,CONSUMER DATA INDUSTRY ASSN,19-Jul,8/15/2019,16151.0,CONSUMER DATA INDUSTRY ASSN,3713.0,0.0,3713.0,0.0,0.0,0.0,0.0,0.0,0.0,0.0,3713.0,18381.0,Direct,,,View report (https://accesshub.pdc.wa.gov/node/57772),Business and consumer affairs,"Construction, Consumer Affairs, Taxation, Liability, Health Care, Data Issues, Insurance, Financial Services, Transportation, Environmental Regulation, Economic Development","Senate Commerce, Labor & Sports; Senate Energy, Environment & Telecommunications; Senate Financial Institutions & Insurance; Senate Health Care; Senate Human Services"
55305,57772-18382,57772,FE,17433,CARNEY BADLEY SPELLMAN*,Employer,18382,ASSN OF DENTAL SUPPORT ORGANIZATIONS,19-Jul,8/15/2019,16153.0,ASSN OF DENTAL SUPPORT ORGANIZATIONS,5000.0,0.0,5000.0,0.0,0.0,0.0,0.0,0.0,0.0,0.0,5000.0,18382.0,Direct,,,View report (https://accesshub.pdc.wa.gov/node/57772),Business and consumer affairs,"Construction, Consumer Affairs, Taxation, Liability, Health Care, Data Issues, Insurance, Financial Services, Transportation, Environmental Regulation","Senate Commerce, Labor & Sports; Senate Energy, Environment & Telecommunications; Senate Financial Institutions & Insurance; Senate Health Care; Senate Human Services"
55306,57840-19743,57840,FE,18021,LISA THATCHER,Employer,19743,ASSN OF DENTAL SUPPORT ORGANIZATIONS,19-Jul,8/15/2019,16153.0,ASSN OF DENTAL SUPPORT ORGANIZATIONS,5000.0,0.0,5000.0,6.25,0.0,0.0,0.0,0.0,0.0,6.25,5006.25,19743.0,Direct,,,View report (https://accesshub.pdc.wa.gov/node/57840),Health Care,Support services offered to dentists,Dept of Health
55307,57911-18248,57911,FE,17390,CANDICE N BOCK,Employer,18248,ASSN OF WA CITIES,19-Jul,8/15/2019,16168.0,ASSN OF WA CITIES,247.91,0.0,247.91,0.0,196.35,0.0,0.0,0.0,0.0,196.35,444.26,18248.0,Direct,,,View report (https://accesshub.pdc.wa.gov/node/57911),Local government,Housing and infrastructure,"various legislators attending AWB Housing Forum, House Local Government Committee"
55308,57923-37576,57923,FE,17355,Logan M. Bahr,Employer,37576,ASSN OF WA CITIES,19-Jul,8/15/2019,16168.0,ASSN OF WA CITIES,216.42,0.0,216.42,0.0,0.0,0.0,0.0,0.0,0.0,0.0,216.42,37576.0,Direct,,,View report (https://accesshub.pdc.wa.gov/node/57923),Local government,Transportation,"Rep. Valdez, Sen. Salomon"
55309,57840-19744,57840,FE,18021,LISA THATCHER,Employer,19744,ASSN OF WA PUBLIC HOSPITAL DISTRICTS,19-Jul,8/15/2019,16170.0,ASSN OF WA PUBLIC HOSPITAL DISTRICTS,4500.0,0.0,4500.0,129.11,0.0,0.0,0.0,0.0,0.0,129.11,4629.11,19744.0,Direct,,,View report (https://accesshub.pdc.wa.gov/node/57840),Fiscal,Public bidding issues,CPARB
55310,57907-35258,57907,FE,34688,Roz Thompson,Employer,35258,ASSN OF WA SCHOOL PRINCIPALS,19-Jul,8/15/2019,16173.0,ASSN OF WA SCHOOL PRINCIPALS,291.0,0.0,291.0,0.0,0.0,0.0,0.0,0.0,0.0,0.0,291.0,35258.0,Direct,,,View report (https://accesshub.pdc.wa.gov/node/57907),Education,"Graduation Requirements, SEBB, Looking Ahead to 2020 Legislative Session","State Board of Education, OSPI, WASA, PESB, WSSDA, WEA, PTA"
55311,57883-19999,57883,FE,18108,JENNIFER ZIEGLER,Employer,19999,BENTON RURAL ELECTRIC ASSN (PATRICK DUNN & ASSOCIATES LTD*),19-Jul,8/15/2019,16189.0,BENTON RURAL ELECTRIC ASSN,250.0,0.0,250.0,0.0,0.0,0.0,0.0,0.0,0.0,0.0,250.0,19999.0,Subcontract,17505.0,PATRICK DUNN & ASSOCIATES LTD*,View report (https://accesshub.pdc.wa.gov/node/57883),,,
