,id,report_number,origin,filer_id,filer_name,type,funding_source_id,funding_source_name,filing_period,receipt_date,employer_id,employer_name,compensation,sub_lobbyist_compensation,net_compensation,personal_expenses,entertainment,contributions,advertising,political_ads,other,total_expenses,net_total,employment_registration_id,employment_type,contractor_id,contractor_name,url,legislation_subject_matter,issue_bill_number,committee_lobbied
120000,98832-81735,98832,FE,81702,JH Consulting,Employer,81735,WA BEVERAGE ASSN (BOSWELL CONSULTING*),22-Nov,1/3/2023,17190.0,WA BEVERAGE ASSN,200.0,0.0,200.0,0.0,0.0,0.0,0.0,0.0,0.0,0.0,200.0,81735.0,Subcontract,17398.0,BOSWELL CONSULTING*,View report (https://accesshub.pdc.wa.gov/node/98832),,,
120001,97781-18575,97781,FE,17496,DOTY & ASSOC INC*,Employer,18575,WA ST BAIL AGENTS ASSN,22-Nov,1/3/2023,17221.0,WA ST BAIL AGENTS ASSN,2500.0,0.0,2500.0,50.0,0.0,0.0,0.0,0.0,0.0,50.0,2550.0,18575.0,Direct,,,View report (https://accesshub.pdc.wa.gov/node/97781),State government,,
120002,98808-18575,98808,FE,17496,DOTY & ASSOC INC*,Employer,18575,WA ST BAIL AGENTS ASSN,22-Dec,1/3/2023,17221.0,WA ST BAIL AGENTS ASSN,2500.0,0.0,2500.0,64.84,0.0,0.0,0.0,0.0,0.0,64.84,2564.84,18575.0,Direct,,,View report (https://accesshub.pdc.wa.gov/node/98808),State government,,
120003,97781-18577,97781,FE,17496,DOTY & ASSOC INC*,Employer,18577,WA ST ASSN OF FIRE CHIEFS,22-Nov,1/3/2023,17247.0,WA ST ASSN OF FIRE CHIEFS,5000.0,-1250.0,3750.0,104.36,0.0,0.0,0.0,0.0,0.0,104.36,3854.36,18577.0,Direct,,,View report (https://accesshub.pdc.wa.gov/node/97781),State government,,
120004,98808-18577,98808,FE,17496,DOTY & ASSOC INC*,Employer,18577,WA ST ASSN OF FIRE CHIEFS,22-Dec,1/3/2023,17247.0,WA ST ASSN OF FIRE CHIEFS,5000.0,-1250.0,3750.0,64.84,0.0,0.0,0.0,0.0,0.0,64.84,3814.84,18577.0,Direct,,,View report (https://accesshub.pdc.wa.gov/node/98808),State government,,
120005,98832-81734,98832,FE,81702,JH Consulting,Employer,81734,"WASTE MANAGEMENT OF WASHINGTON, INC. (BOSWELL CONSULTING*)",22-Nov,1/3/2023,17260.0,"WASTE MANAGEMENT OF WASHINGTON, INC.",200.0,0.0,200.0,0.0,0.0,0.0,0.0,0.0,0.0,0.0,200.0,81734.0,Subcontract,17398.0,BOSWELL CONSULTING*,View report (https://accesshub.pdc.wa.gov/node/98832),,,
120006,97781-80006,97781,FE,17496,DOTY & ASSOC INC*,Employer,80006,ACTION DD,22-Nov,1/3/2023,27525.0,ACTION DD,3000.0,-1500.0,1500.0,0.0,0.0,0.0,0.0,0.0,0.0,0.0,1500.0,80006.0,Direct,,,View report (https://accesshub.pdc.wa.gov/node/97781),State government,,
120007,98808-80006,98808,FE,17496,DOTY & ASSOC INC*,Employer,80006,ACTION DD,22-Dec,1/3/2023,27525.0,ACTION DD,3000.0,-1500.0,1500.0,0.0,0.0,0.0,0.0,0.0,0.0,0.0,1500.0,80006.0,Direct,,,View report (https://accesshub.pdc.wa.gov/node/98808),State government,,
120008,97781-30776,97781,FE,17496,DOTY & ASSOC INC*,Employer,30776,CCD Black Diamond Partners LLC,22-Nov,1/3/2023,30757.0,CCD Black Diamond Partners LLC,2500.0,0.0,2500.0,0.0,0.0,0.0,0.0,0.0,0.0,0.0,2500.0,30776.0,Direct,,,View report (https://accesshub.pdc.wa.gov/node/97781),State government,,
120009,98808-30776,98808,FE,17496,DOTY & ASSOC INC*,Employer,30776,CCD Black Diamond Partners LLC,22-Dec,1/3/2023,30757.0,CCD Black Diamond Partners LLC,2500.0,0.0,2500.0,0.0,0.0,0.0,0.0,0.0,0.0,0.0,2500.0,30776.0,Direct,,,View report (https://accesshub.pdc.wa.gov/node/98808),State government,,
120010,98832-81712,98832,FE,81702,JH Consulting,Employer,81712,Internet Association (CHRISTOPHERSEN INC*),22-Nov,1/3/2023,31991.0,Internet Association,250.0,0.0,250.0,0.0,0.0,0.0,0.0,0.0,0.0,0.0,250.0,81712.0,Subcontract,17348.0,CHRISTOPHERSEN INC*,View report (https://accesshub.pdc.wa.gov/node/98832),,,
120011,98832-81730,98832,FE,81702,JH Consulting,Employer,81730,Port of Hood River (BOSWELL CONSULTING*),22-Nov,1/3/2023,36737.0,Port of Hood River,200.0,0.0,200.0,0.0,0.0,0.0,0.0,0.0,0.0,0.0,200.0,81730.0,Subcontract,17398.0,BOSWELL CONSULTING*,View report (https://accesshub.pdc.wa.gov/node/98832),,,
120012,98857-50339,98857,FE,50337,Dan Bertolet,Employer,50339,Sightline Institute,22-Dec,1/3/2023,37788.0,Sightline Institute,2428.95,0.0,2428.95,0.0,0.0,0.0,0.0,0.0,0.0,0.0,2428.95,50339.0,Direct,,,View report (https://accesshub.pdc.wa.gov/node/98857),Environmental Affairs - natural resources - parks,no official bills yet,"Reps Barkis, Bateman, Duerr, Entenman, Fitzgibbon, Frame, Gregerson, Reed, Taylor, Shewmake, Walen, Wilcox; Sens Gildon, Kauffman, Kuderer, Liias, Salomon, Trudeau; Inslee staffers Flanagan, Mahgoub"
120013,98832-81711,98832,FE,81702,JH Consulting,Employer,81711,"Assurant, Inc. (CHRISTOPHERSEN INC*)",22-Nov,1/3/2023,44206.0,"Assurant, Inc.",229.16,0.0,229.16,0.0,0.0,0.0,0.0,0.0,0.0,0.0,229.16,81711.0,Subcontract,17348.0,CHRISTOPHERSEN INC*,View report (https://accesshub.pdc.wa.gov/node/98832),,,
120014,98859-63490,98859,FE,17659,HOLLY CHISA,Employer,63490,Juul Labs Inc.,22-Dec,1/3/2023,49226.0,Juul Labs Inc.,6000.0,0.0,6000.0,0.0,0.0,0.0,0.0,0.0,0.0,0.0,6000.0,63490.0,Direct,,,View report (https://accesshub.pdc.wa.gov/node/98859),,,
120015,98860-63490,98860,FE,17659,HOLLY CHISA,Employer,63490,Juul Labs Inc.,22-Nov,1/3/2023,49226.0,Juul Labs Inc.,6000.0,0.0,6000.0,0.0,0.0,0.0,0.0,0.0,0.0,0.0,6000.0,63490.0,Direct,,,View report (https://accesshub.pdc.wa.gov/node/98860),,,
120016,98866-49481,98866,FE,49469,Sarah Commerford Brady,Employer,49481,Child Care Resources,22-Dec,1/3/2023,49480.0,Child Care Resources,1000.0,0.0,1000.0,0.0,0.0,0.0,0.0,0.0,0.0,0.0,1000.0,49481.0,Direct,,,View report (https://accesshub.pdc.wa.gov/node/98866),,,
120017,98859-50629,98859,FE,17659,HOLLY CHISA,Employer,50629,MALLINCKRODT PHARMACEUTICALS,22-Dec,1/3/2023,50628.0,MALLINCKRODT PHARMACEUTICALS,5500.0,0.0,5500.0,0.0,0.0,0.0,0.0,0.0,0.0,0.0,5500.0,50629.0,Direct,,,View report (https://accesshub.pdc.wa.gov/node/98859),Fiscal,All issues,Legislature
120018,98860-50629,98860,FE,17659,HOLLY CHISA,Employer,50629,MALLINCKRODT PHARMACEUTICALS,22-Nov,1/3/2023,50628.0,MALLINCKRODT PHARMACEUTICALS,5500.0,0.0,5500.0,0.0,0.0,0.0,0.0,0.0,0.0,0.0,5500.0,50629.0,Direct,,,View report (https://accesshub.pdc.wa.gov/node/98860),Fiscal,All issues,Legislature
120019,98856-51752,98856,FE,35126,William Daley,Employer,51752,Just Strategy,22-Dec,1/3/2023,51552.0,Just Strategy,1500.0,0.0,1500.0,0.0,0.0,0.0,0.0,0.0,0.0,0.0,1500.0,51752.0,Direct,,,View report (https://accesshub.pdc.wa.gov/node/98856),Higher education,Cost Free College,Senator Randall and Staff to Speaker Jenkins
120020,98832-86173,98832,FE,81702,JH Consulting,Employer,86173,Maverick Gaming LLC (Coaxis Public Affairs ),22-Nov,1/3/2023,58487.0,Maverick Gaming LLC,2000.0,0.0,2000.0,0.0,0.0,0.0,0.0,0.0,0.0,0.0,2000.0,86173.0,Subcontract,58479.0,Coaxis Public Affairs,View report (https://accesshub.pdc.wa.gov/node/98832),,,
120021,97781-59573,97781,FE,17496,DOTY & ASSOC INC*,Employer,59573,Kitsap Mental Health Services,22-Nov,1/3/2023,59568.0,Kitsap Mental Health Services,1500.0,-750.0,750.0,0.0,0.0,0.0,0.0,0.0,0.0,0.0,750.0,59573.0,Direct,,,View report (https://accesshub.pdc.wa.gov/node/97781),State government,,
120022,98808-59573,98808,FE,17496,DOTY & ASSOC INC*,Employer,59573,Kitsap Mental Health Services,22-Dec,1/3/2023,59568.0,Kitsap Mental Health Services,1500.0,-750.0,750.0,0.0,0.0,0.0,0.0,0.0,0.0,0.0,750.0,59573.0,Direct,,,View report (https://accesshub.pdc.wa.gov/node/98808),State government,,
120023,98832-81721,98832,FE,81702,JH Consulting,Employer,81721,Justice Action Network (CHRISTOPHERSEN INC*),22-Nov,1/3/2023,62015.0,Justice Action Network,229.16,0.0,229.16,0.0,0.0,0.0,0.0,0.0,0.0,0.0,229.16,81721.0,Subcontract,17348.0,CHRISTOPHERSEN INC*,View report (https://accesshub.pdc.wa.gov/node/98832),,,
120024,98832-81737,98832,FE,81702,JH Consulting,Employer,81737,Seattle Arena Company (BOSWELL CONSULTING*),22-Nov,1/3/2023,67923.0,Seattle Arena Company,200.0,0.0,200.0,0.0,0.0,0.0,0.0,0.0,0.0,0.0,200.0,81737.0,Subcontract,17398.0,BOSWELL CONSULTING*,View report (https://accesshub.pdc.wa.gov/node/98832),,,
120026,98855-76462,98855,FE,72202,Cascade AIDS Project,Employer,76462,Cascade AIDS Project,22-Dec,1/3/2023,76460.0,Cascade AIDS Project,3432.0,0.0,3432.0,0.0,0.0,0.0,0.0,0.0,0.0,0.0,3432.0,76462.0,Direct,,,View report (https://accesshub.pdc.wa.gov/node/98855),Health Care,HIV-related budget proposals,"Washington State Department of Health, Office of Governor Jay Inslee"
120027,97582-83400,97582,FE,83394,Jonathan Kocher,Employer,83400,Rocky Mountain Institute,22-Oct,1/3/2023,83399.0,Rocky Mountain Institute,240.68,0.0,240.68,0.0,0.0,0.0,0.0,0.0,0.0,0.0,240.68,83400.0,Direct,,,View report (https://accesshub.pdc.wa.gov/node/97582),Energy and utilities,Building Electrification,State Building Codes Council Members
120028,98698-83400,98698,FE,83394,Jonathan Kocher,Employer,83400,Rocky Mountain Institute,22-Nov,1/3/2023,83399.0,Rocky Mountain Institute,506.7,0.0,506.7,0.0,0.0,0.0,0.0,0.0,0.0,0.0,506.7,83400.0,Direct,,,View report (https://accesshub.pdc.wa.gov/node/98698),Energy and utilities,Building Electrification,State Building Codes Council Members
120029,98832-88143,98832,FE,81702,JH Consulting,Employer,88143,Northwest Center (CHRISTOPHERSEN INC*),22-Nov,1/3/2023,86117.0,Northwest Center,250.0,0.0,250.0,0.0,0.0,0.0,0.0,0.0,0.0,0.0,250.0,88143.0,Subcontract,17348.0,CHRISTOPHERSEN INC*,View report (https://accesshub.pdc.wa.gov/node/98832),,,
120030,98859-97777,98859,FE,17659,HOLLY CHISA,Employer,97777,AMAROK,22-Dec,1/3/2023,97776.0,AMAROK,4000.0,0.0,4000.0,0.0,0.0,0.0,0.0,0.0,0.0,0.0,4000.0,97777.0,Direct,,,View report (https://accesshub.pdc.wa.gov/node/98859),Business and consumer affairs,Alarm Systems,Legislature
120031,98859-97832,98859,FE,17659,HOLLY CHISA,Employer,97832,Consumer Brands Association,22-Dec,1/3/2023,97831.0,Consumer Brands Association,4500.0,0.0,4500.0,0.0,0.0,0.0,0.0,0.0,0.0,0.0,4500.0,97832.0,Direct,,,View report (https://accesshub.pdc.wa.gov/node/98859),Environmental Affairs - natural resources - parks,EPR,Legislature
120033,98898-49713,98898,FE,17578,JEFFREY S GOMBOSKY,Employer,49713,"Graduation Alliance, Inc.",22-Dec,1/4/2023,16089.0,"Graduation Alliance, Inc.",3000.0,0.0,3000.0,0.0,0.0,0.0,0.0,0.0,0.0,0.0,3000.0,49713.0,Direct,,,View report (https://accesshub.pdc.wa.gov/node/98898),,,
120034,98898-18801,98898,FE,17578,JEFFREY S GOMBOSKY,Employer,18801,ANHEUSER-BUSCH COMPANIES INC,22-Dec,1/4/2023,16128.0,ANHEUSER-BUSCH COMPANIES INC,5833.33,0.0,5833.33,0.0,0.0,0.0,0.0,0.0,0.0,0.0,5833.33,18801.0,Direct,,,View report (https://accesshub.pdc.wa.gov/node/98898),,,
120035,98918-72966,98918,FE,17479,ROMAN M DANIELS-BROWN,Employer,72966,AMERICAN CANCER SOCIETY CANCER ACTION NETWORK,22-Dec,1/4/2023,16221.0,AMERICAN CANCER SOCIETY CANCER ACTION NETWORK,2208.33,0.0,2208.33,0.0,0.0,0.0,0.0,0.0,0.0,0.0,2208.33,72966.0,Direct,,,View report (https://accesshub.pdc.wa.gov/node/98918),Health Care,Biomarker Testing,"Health Care, Budget"
120036,98877-19390,98877,FE,17870,OUTCOMES BY LEVY LLC*,Employer,19390,CITY OF FIFE,22-Dec,1/4/2023,16283.0,CITY OF FIFE,4400.0,0.0,4400.0,114.46,0.0,0.0,0.0,0.0,0.0,114.46,4514.46,19390.0,Direct,,,View report (https://accesshub.pdc.wa.gov/node/98877),Local government,2023 LEG Agenda Priorities + I-5/54th Ave. Transportation funding,12/7 mtg. w/ House Transportation Chair Jake Fey; 12/19 meeting w/ Speaker Laurie Jinkins & Rep. Fey
120037,98877-19393,98877,FE,17870,OUTCOMES BY LEVY LLC*,Employer,19393,CITY OF LAKE STEVENS,22-Dec,1/4/2023,16297.0,CITY OF LAKE STEVENS,5000.0,0.0,5000.0,148.31,0.0,0.0,0.0,0.0,0.0,148.31,5148.31,19393.0,Direct,,,View report (https://accesshub.pdc.wa.gov/node/98877),Local government,"2023 LEG Agenda priorities, transportation project schedules, ""Blake"" issue",12/1 & 12/2 LEG Assembly Days; 12/5 mtg w/ Sen Wagoner & Rep.-Elect Low; 12/23 mtg w/ Rep Eslick & Rep-Elect Low
120038,98877-19395,98877,FE,17870,OUTCOMES BY LEVY LLC*,Employer,19395,CITY OF RENTON,22-Dec,1/4/2023,16306.0,CITY OF RENTON,13000.0,0.0,13000.0,226.34,0.0,0.0,0.0,0.0,0.0,226.34,13226.34,19395.0,Direct,,,View report (https://accesshub.pdc.wa.gov/node/98877),Local government,"2023 LEG Agenda Priorities; ""Blake"" issue; 988 funding","12/1 & 12/2 - LEG Assembly Days & Mtgs w/: 12/12- Rep Orwall;12/12-Sen Mullet; 12/19 - Rep Bergquist, Sen. Hasegawa, Rep Ramos; 12/22 - Rep. Hackney"
120039,98918-18529,98918,FE,17479,ROMAN M DANIELS-BROWN,Employer,18529,DaVita Inc.,22-Dec,1/4/2023,16380.0,DaVita Inc.,6000.0,0.0,6000.0,0.0,0.0,0.0,0.0,0.0,0.0,0.0,6000.0,18529.0,Direct,,,View report (https://accesshub.pdc.wa.gov/node/98918),Health Care,Health Care,Health Care
120040,98898-18803,98898,FE,17578,JEFFREY S GOMBOSKY,Employer,18803,ENTERPRISE HOLDINGS LLC,22-Dec,1/4/2023,16396.0,ENTERPRISE HOLDINGS LLC,2500.0,0.0,2500.0,0.0,0.0,0.0,0.0,0.0,0.0,0.0,2500.0,18803.0,Direct,,,View report (https://accesshub.pdc.wa.gov/node/98898),,,
120041,98931-94166,98931,FE,18034,The Nichols Group Government Relations LLC,Employer,94166,KOCH CO PUBLIC SECTOR LLC & AFFILIATES,22-Dec,1/4/2023,16585.0,KOCH CO PUBLIC SECTOR LLC & AFFILIATES,5000.0,0.0,5000.0,0.0,0.0,0.0,0.0,0.0,0.0,0.0,5000.0,94166.0,Direct,,,View report (https://accesshub.pdc.wa.gov/node/98931),,,
120042,98898-18807,98898,FE,17578,JEFFREY S GOMBOSKY,Employer,18807,MULTICARE HEALTH SYSTEM,22-Dec,1/4/2023,16651.0,MULTICARE HEALTH SYSTEM,7500.0,0.0,7500.0,0.0,0.0,0.0,0.0,0.0,0.0,0.0,7500.0,18807.0,Direct,,,View report (https://accesshub.pdc.wa.gov/node/98898),,,
120043,98891-96786,98891,FE,96331,Freeburg Policy Solutions,Employer,96786,THE NATURE CONSERVANCY,22-Dec,1/4/2023,16677.0,THE NATURE CONSERVANCY,3000.0,0.0,3000.0,0.0,0.0,0.0,0.0,0.0,0.0,0.0,3000.0,96786.0,Direct,,,View report (https://accesshub.pdc.wa.gov/node/98891),Environmental Affairs - natural resources - parks,Trust land transfer,"OFM, DNR, Natural Resources + Budget Cmts"
120044,98887-28331,98887,FE,28330,Trevor R Sandison,Employer,28331,Northwest Harvest EMM,22-Dec,1/4/2023,16708.0,Northwest Harvest EMM,2500.0,0.0,2500.0,0.0,0.0,0.0,0.0,0.0,0.0,0.0,2500.0,28331.0,Direct,,,View report (https://accesshub.pdc.wa.gov/node/98887),Human services,Food Policy,Rep Alex Ramel
120045,98918-95208,98918,FE,17479,ROMAN M DANIELS-BROWN,Employer,95208,NORTHWEST MARINE TRADE ASSN,22-Dec,1/4/2023,16714.0,NORTHWEST MARINE TRADE ASSN,5000.0,0.0,5000.0,76.0,0.0,0.0,0.0,0.0,0.0,76.0,5076.0,95208.0,Direct,,,View report (https://accesshub.pdc.wa.gov/node/98918),Environmental Affairs - natural resources - parks,Recreational Boating,"Environmental, business, taxes, budget"
120046,98918-18531,98918,FE,17479,ROMAN M DANIELS-BROWN,Employer,18531,"Novartis Services, Inc.",22-Dec,1/4/2023,16725.0,"Novartis Services, Inc.",4583.33,0.0,4583.33,0.0,0.0,0.0,0.0,0.0,0.0,0.0,4583.33,18531.0,Direct,,,View report (https://accesshub.pdc.wa.gov/node/98918),Health Care,pharmaceuticals,health care
120047,98935-50642,98935,FE,50641,Karen Lang,Employer,50642,PEMCO Insurance,22-Dec,1/4/2023,16770.0,PEMCO Insurance,500.0,0.0,500.0,0.0,0.0,0.0,0.0,0.0,0.0,0.0,500.0,50642.0,Direct,,,View report (https://accesshub.pdc.wa.gov/node/98935),Financial institutions and insurance,Insurance,"CPB, BFT, OIC"
120048,98898-18808,98898,FE,17578,JEFFREY S GOMBOSKY,Employer,18808,PHARMACEUTICAL RSRCH/MFG OF AMERICA,22-Dec,1/4/2023,16776.0,PHARMACEUTICAL RSRCH/MFG OF AMERICA,10833.33,0.0,10833.33,0.0,0.0,0.0,0.0,0.0,0.0,0.0,10833.33,18808.0,Direct,,,View report (https://accesshub.pdc.wa.gov/node/98898),Health Care,Pharmaceutical rebate reform,"Sen. Kevin Van DeWege, Sen. Annette Cleveland, Sen. June Robinson, Sen. Mike Padden, Rep. Steve Tharinger, Mary Clogston, Office of the Insurance Commissioner, Health Care Authority, Tucker Bronkeman, Rep. Michelle Caldier"
120049,98931-95911,98931,FE,18034,The Nichols Group Government Relations LLC,Employer,95911,PHILLIPS 66,22-Dec,1/4/2023,16779.0,PHILLIPS 66,5500.0,0.0,5500.0,0.0,0.0,0.0,0.0,0.0,0.0,0.0,5500.0,95911.0,Direct,,,View report (https://accesshub.pdc.wa.gov/node/98931),Energy and utilities,"Business & Consumer Affairs, Energy & Utilities, Environmental Affairs, Natural Resources, Parks, Fiscal, Labor, Local Government, State Government, Technolog, Transportation","House Appropriations, Transportation, Environment & Energy, Commerce & Gaming, Finance, Labor & Workplace Standards, Senate Ways & Means,Transportation, Business & Workplace Standards, Environment, Energy & Technology, WA Dept. of Ecology"
120050,98877-19397,98877,FE,17870,OUTCOMES BY LEVY LLC*,Employer,19397,RECREATIONAL BOATING ASSN OF WA,22-Dec,1/4/2023,16844.0,RECREATIONAL BOATING ASSN OF WA,1500.0,0.0,1500.0,60.7,0.0,0.0,0.0,0.0,0.0,60.7,1560.7,19397.0,Direct,,,View report (https://accesshub.pdc.wa.gov/node/98877),Environmental Affairs - natural resources - parks,2023 LEG Agenda Priorities including pump-out $ req; Lakebay Marina $ req; Lake Union water safety $ req.,Mtgs: 12/1-Sen Braun; 12/1 Rep Barkis; 12/2 Sen Schoesler; 12/5 Sen Lovelett; 12/6-12/9 DOR; 12/8-12/16-12/19-12/21 DNR; 12/12 Sen Mullet; 12/14 Rep Steele; 12/15 Sen Robinson; 12/15 Sen Salomon; 12/15 Rep Caldier;12/20 Rep Hutchins; 12/21-12/22 Sen Frame
120051,98898-72028,98898,FE,17578,JEFFREY S GOMBOSKY,Employer,72028,RENEWABLE NORTHWEST,22-Dec,1/4/2023,16854.0,RENEWABLE NORTHWEST,3675.0,0.0,3675.0,0.0,0.0,0.0,0.0,0.0,0.0,0.0,3675.0,72028.0,Direct,,,View report (https://accesshub.pdc.wa.gov/node/98898),Energy and utilities,Wind Turbine Blade recycling,Sen. Jeff Wilson
120052,98931-19775,98931,FE,18034,The Nichols Group Government Relations LLC,Employer,19775,SCHNITZER STEEL INDUSTRIES INC,22-Dec,1/4/2023,16878.0,SCHNITZER STEEL INDUSTRIES INC,3804.0,0.0,3804.0,0.0,0.0,0.0,0.0,0.0,0.0,0.0,3804.0,19775.0,Direct,,,View report (https://accesshub.pdc.wa.gov/node/98931),Environmental Affairs - natural resources - parks,"Recycling, manufacturing","Environmental Committees, Dept. of Ecology, Governor's Office"
120053,98918-39257,98918,FE,17479,ROMAN M DANIELS-BROWN,Employer,39257,Astria Health,22-Dec,1/4/2023,16957.0,Astria Health,6000.0,0.0,6000.0,76.0,0.0,0.0,0.0,0.0,0.0,76.0,6076.0,39257.0,Direct,,,View report (https://accesshub.pdc.wa.gov/node/98918),Health Care,Health care,Health care
120054,98918-18534,98918,FE,17479,ROMAN M DANIELS-BROWN,Employer,18534,TAKEDA PHARMACEUTICALS,22-Dec,1/4/2023,16970.0,TAKEDA PHARMACEUTICALS,5000.0,0.0,5000.0,0.0,0.0,4500.0,0.0,0.0,0.0,4500.0,9500.0,18534.0,Direct,,,View report (https://accesshub.pdc.wa.gov/node/98918),Health Care,Health Care,Health Care
120055,98898-39888,98898,FE,17578,JEFFREY S GOMBOSKY,Employer,39888,TESLA,22-Dec,1/4/2023,16979.0,TESLA,4000.0,0.0,4000.0,0.0,0.0,0.0,0.0,0.0,0.0,0.0,4000.0,39888.0,Direct,,,View report (https://accesshub.pdc.wa.gov/node/98898),,,
120058,98931-19776,98931,FE,18034,The Nichols Group Government Relations LLC,Employer,19776,ARROW LAUNCH SERVICES INC,22-Dec,1/4/2023,17034.0,ARROW LAUNCH SERVICES INC,1000.0,0.0,1000.0,0.0,0.0,0.0,0.0,0.0,0.0,0.0,1000.0,19776.0,Direct,,,View report (https://accesshub.pdc.wa.gov/node/98931),Transportation,Marine transportation / services,"Transportation / environmental committees, UTC, Governor's Office"
120059,98918-73251,98918,FE,17479,ROMAN M DANIELS-BROWN,Employer,73251,WA AMBULATORY SURGERY CENTER ASSN,22-Dec,1/4/2023,17060.0,WA AMBULATORY SURGERY CENTER ASSN,4000.0,0.0,4000.0,0.0,0.0,0.0,0.0,0.0,0.0,0.0,4000.0,73251.0,Direct,,,View report (https://accesshub.pdc.wa.gov/node/98918),Health Care,Health Care,Health Care Committee
120060,98931-19778,98931,FE,18034,The Nichols Group Government Relations LLC,Employer,19778,WA CHRISTMAS TREE GROWERS,22-Dec,1/4/2023,17090.0,WA CHRISTMAS TREE GROWERS,750.0,0.0,750.0,0.0,0.0,0.0,0.0,0.0,0.0,0.0,750.0,19778.0,Direct,,,View report (https://accesshub.pdc.wa.gov/node/98931),Agriculture,"Land use, taxation","Agricultural committees, Dept of Agriculture, Governor's Office"
120061,98898-18811,98898,FE,17578,JEFFREY S GOMBOSKY,Employer,18811,WA HEALTH CARE ASSN,22-Dec,1/4/2023,17128.0,WA HEALTH CARE ASSN,9000.0,0.0,9000.0,0.0,0.0,0.0,0.0,0.0,0.0,0.0,9000.0,18811.0,Direct,,,View report (https://accesshub.pdc.wa.gov/node/98898),Fiscal,Medicaid Funding for Skilled Nursing and Assisted Living facilities,"Sen. Kevin Van DeWege, Rep. Timm Ormsby, Speaker Laurie Jinkins"
120062,98918-97641,98918,FE,17479,ROMAN M DANIELS-BROWN,Employer,97641,WA HEALTH CARE ASSN,22-Dec,1/4/2023,17128.0,WA HEALTH CARE ASSN,7000.0,0.0,7000.0,0.0,0.0,0.0,0.0,0.0,0.0,0.0,7000.0,97641.0,Direct,,,View report (https://accesshub.pdc.wa.gov/node/98918),Fiscal,Sales tax on food for independent living facilities,Finance Committee/Ways & Means
120063,98931-19779,98931,FE,18034,The Nichols Group Government Relations LLC,Employer,19779,COMMUNITY BANKERS OF WA,22-Dec,1/4/2023,17132.0,COMMUNITY BANKERS OF WA,3000.0,0.0,3000.0,0.0,0.0,0.0,0.0,0.0,0.0,0.0,3000.0,19779.0,Direct,,,View report (https://accesshub.pdc.wa.gov/node/98931),Financial institutions and insurance,Banking Issues,"Senate Financial Institutions & Insurance Committee; House Business & Financial Services Committee, WA Dept. of Financial Institutions, WA State Treasurer, Governor's Office"
120064,98931-19780,98931,FE,18034,The Nichols Group Government Relations LLC,Employer,19780,WASHINGTON LIQUOR STORE ASSOCIATION,22-Dec,1/4/2023,17145.0,WASHINGTON LIQUOR STORE ASSOCIATION,2000.0,0.0,2000.0,0.0,0.0,0.0,0.0,0.0,0.0,0.0,2000.0,19780.0,Direct,,,View report (https://accesshub.pdc.wa.gov/node/98931),Business and consumer affairs,Liquor Issues,"House Commerce & Gaming Committee, Senate Labor & Commerce Committee, WA State Liquor & Cannabis Board, Governor's Office"
120065,98933-27631,98933,FE,27629,Rachael Seevers,Employer,27631,DISABILITY RIGHTS WA,22-Nov,1/4/2023,17163.0,DISABILITY RIGHTS WA,1218.0,0.0,1218.0,0.0,0.0,0.0,0.0,0.0,0.0,0.0,1218.0,27631.0,Direct,,,View report (https://accesshub.pdc.wa.gov/node/98933),Law and justice,solitary,"Rep. Peterson, Law and Justice"
120066,98934-27631,98934,FE,27629,Rachael Seevers,Employer,27631,DISABILITY RIGHTS WA,22-Dec,1/4/2023,17163.0,DISABILITY RIGHTS WA,626.4,0.0,626.4,0.0,0.0,0.0,0.0,0.0,0.0,0.0,626.4,27631.0,Direct,,,View report (https://accesshub.pdc.wa.gov/node/98934),Law and justice,solitary,"Rep. Peterson, Goodman, Law and Justice"
120067,98916-49269,98916,FE,49268,Russell Gregrey Brown,Employer,49269,WA Assn of Prosecuting Attorneys,22-Dec,1/4/2023,17164.0,WA Assn of Prosecuting Attorneys,1500.0,0.0,1500.0,0.0,0.0,0.0,0.0,0.0,0.0,0.0,1500.0,49269.0,Direct,,,View report (https://accesshub.pdc.wa.gov/node/98916),Law and justice,various,various
120068,98877-19398,98877,FE,17870,OUTCOMES BY LEVY LLC*,Employer,19398,WA RECREATION & PARKS ASSN,22-Dec,1/4/2023,17183.0,WA RECREATION & PARKS ASSN,1700.0,0.0,1700.0,60.7,0.0,0.0,0.0,0.0,0.0,60.7,1760.7,19398.0,Direct,,,View report (https://accesshub.pdc.wa.gov/node/98877),Environmental Affairs - natural resources - parks,"2023 LEG Agenda Priorities incl. $5M Local Parks M&O budget request, Outdoor Learning Grant Funding in Operating Budget",12/1 & 12/2 LEG Assembly Days; Mtgs w/: 12/1 Sen Braun; 12/1 Rep Barkis; 12/2 Rep Stokesbary; 12/5 Jon Snyder-Gov off; 12/12 Sen Mullet; 12/13 RCO Agency leads; 12/15 Sen Robinson; 12/15 Rep Rule; 12/15 Brock Milliern RCO; 12/27 House Approps Chair Ormsby
120070,98882-49473,98882,FE,46364,Mike Hoover Public Affairs,Employer,49473,WA STATE ASSN OF COUNTIES (WSAC),22-Dec,1/4/2023,17215.0,WA STATE ASSN OF COUNTIES (WSAC),10000.0,0.0,10000.0,0.0,0.0,0.0,0.0,0.0,0.0,0.0,10000.0,49473.0,Direct,,,View report (https://accesshub.pdc.wa.gov/node/98882),Local government,Various budget and local government issues,Various legislators and staff
120072,98897-50023,98897,FE,49453,"Samantha Slaughter, PsyD",Employer,50023,WA ST PSYCHOLOGICAL ASSN,22-Dec,1/4/2023,17269.0,WA ST PSYCHOLOGICAL ASSN,2161.25,0.0,2161.25,0.0,0.0,0.0,0.0,0.0,0.0,0.0,2161.25,50023.0,Direct,,,View report (https://accesshub.pdc.wa.gov/node/98897),Health Care,response to CR-101 filing,Examining Board of Psychology
120074,98931-48658,98931,FE,18034,The Nichols Group Government Relations LLC,Employer,48658,WILLAPA-GRAYS HARBOR OYSTER GROWERS ASSN,22-Dec,1/4/2023,23612.0,WILLAPA-GRAYS HARBOR OYSTER GROWERS ASSN,1500.0,0.0,1500.0,0.0,0.0,0.0,0.0,0.0,0.0,0.0,1500.0,48658.0,Direct,,,View report (https://accesshub.pdc.wa.gov/node/98931),Agriculture,Agriculture Issues,"House and Senate Agriculture Committees, Dept. of Ecology, Dept. of Natural Resources, Dept. of Agriculture, Governor's Office"
120075,98918-26046,98918,FE,17479,ROMAN M DANIELS-BROWN,Employer,26046,"U.S. Anesthesia Partners, Inc.",22-Dec,1/4/2023,26042.0,"U.S. Anesthesia Partners, Inc.",6000.0,0.0,6000.0,76.0,0.0,0.0,0.0,0.0,0.0,76.0,6076.0,26046.0,Direct,,,View report (https://accesshub.pdc.wa.gov/node/98918),Health Care,Health Care,Health Care
120076,98882-92332,98882,FE,46364,Mike Hoover Public Affairs,Employer,92332,Washington State School Directors Association,22-Dec,1/4/2023,31150.0,Washington State School Directors Association,2500.0,0.0,2500.0,0.0,0.0,0.0,0.0,0.0,0.0,0.0,2500.0,92332.0,Direct,,,View report (https://accesshub.pdc.wa.gov/node/98882),Education,Education & budget issues,Various legislators and staff/Executive staff
120077,98931-38900,98931,FE,18034,The Nichols Group Government Relations LLC,Employer,38900,Cooke Aquaculture Pacific LLC,22-Dec,1/4/2023,38899.0,Cooke Aquaculture Pacific LLC,5000.0,0.0,5000.0,0.0,0.0,0.0,0.0,0.0,0.0,0.0,5000.0,38900.0,Direct,,,View report (https://accesshub.pdc.wa.gov/node/98931),Agriculture,Net-pen aquaculture issues,"Senate & House Agriculture Committees, Dept. of Ecology, Dept. of Fish & Wildlife, Dept. of Natural Resources, Dept. of Agriculture, Governor's Office"
120078,98931-39130,98931,FE,18034,The Nichols Group Government Relations LLC,Employer,39130,City of Shelton,22-Dec,1/4/2023,39118.0,City of Shelton,2000.0,0.0,2000.0,0.0,0.0,0.0,0.0,0.0,0.0,0.0,2000.0,39130.0,Direct,,,View report (https://accesshub.pdc.wa.gov/node/98931),Fiscal,Transportation and Capital Budget Requests,"Senate Ways & Means, Senate Transportation, House Capital Budget, House Transportation, WA State Patrol, WSDOT, Governor's Office"
120080,98931-45630,98931,FE,18034,The Nichols Group Government Relations LLC,Employer,45630,Capital Region ESD 113,22-Dec,1/4/2023,45627.0,Capital Region ESD 113,4000.0,0.0,4000.0,0.0,0.0,0.0,0.0,0.0,0.0,0.0,4000.0,45630.0,Direct,,,View report (https://accesshub.pdc.wa.gov/node/98931),Education,Education Funding and Policy Issues,"House and Senate Education Committees, House Appropriations Committee, Senate Ways & Means Committee, Superintendent of Public Instruction, Governor's Office"
120081,98918-61371,98918,FE,17479,ROMAN M DANIELS-BROWN,Employer,61371,Life Flight Network,22-Dec,1/4/2023,54375.0,Life Flight Network,4666.0,0.0,4666.0,76.0,0.0,0.0,0.0,0.0,0.0,76.0,4742.0,61371.0,Direct,,,View report (https://accesshub.pdc.wa.gov/node/98918),Health Care,Health Care,Health Care Committee
120082,98918-55789,98918,FE,17479,ROMAN M DANIELS-BROWN,Employer,55789,Confluence Health,22-Dec,1/4/2023,55787.0,Confluence Health,6000.0,0.0,6000.0,76.0,0.0,0.0,0.0,0.0,0.0,76.0,6076.0,55789.0,Direct,,,View report (https://accesshub.pdc.wa.gov/node/98918),Health Care,Health Care,Health Care Committee/Fiscal Committees
120084,98931-62174,98931,FE,18034,The Nichols Group Government Relations LLC,Employer,62174,American Promotional Events Northwest Inc. DBA TNT Fireworks,22-Dec,1/4/2023,62169.0,American Promotional Events Northwest Inc. DBA TNT Fireworks,5000.0,0.0,5000.0,0.0,0.0,0.0,0.0,0.0,0.0,0.0,5000.0,62174.0,Direct,,,View report (https://accesshub.pdc.wa.gov/node/98931),Local government,Consumer Fireworks-related issues,"House and Senate Local Government Committee, WA State Fire Marshall, Governor's Office"
120085,98898-64865,98898,FE,17578,JEFFREY S GOMBOSKY,Employer,64865,"Live Nation Entertainment, Inc.",22-Dec,1/4/2023,63596.0,"Live Nation Entertainment, Inc.",6000.0,0.0,6000.0,0.0,0.0,0.0,0.0,0.0,0.0,0.0,6000.0,64865.0,Direct,,,View report (https://accesshub.pdc.wa.gov/node/98898),,,
120086,98931-74747,98931,FE,18034,The Nichols Group Government Relations LLC,Employer,74747,"National Shooting Sports Foundation, Inc.",22-Dec,1/4/2023,64804.0,"National Shooting Sports Foundation, Inc.",4000.0,-1500.0,2500.0,0.0,0.0,0.0,0.0,0.0,0.0,0.0,2500.0,74747.0,Direct,,,View report (https://accesshub.pdc.wa.gov/node/98931),Law and justice,"Firearm Manufacturer, Retailer, and Shooting Range Issues",House Civil Rights & Judiciary and Senate Law & Justice Committees
120087,98913-66246,98913,FE,66187,The Holt Company,Employer,66246,"PeaceHealth Networks On Demand, LLC",22-Dec,1/4/2023,66198.0,"PeaceHealth Networks On Demand, LLC",5448.75,-4500.0,948.75,0.0,0.0,0.0,0.0,0.0,0.0,0.0,948.75,66246.0,Direct,,,View report (https://accesshub.pdc.wa.gov/node/98913),Health Care,HB1073 (2023),"Senate Health, Rep. Harris"
120088,98918-96792,98918,FE,17479,ROMAN M DANIELS-BROWN,Employer,96792,"Lucid USA, Inc",22-Dec,1/4/2023,69407.0,"Lucid USA, Inc",5500.0,0.0,5500.0,0.0,0.0,0.0,0.0,0.0,0.0,0.0,5500.0,96792.0,Direct,,,View report (https://accesshub.pdc.wa.gov/node/98918),Transportation,Direct Sales,"Consumer Protection & Business, Transportation, Environment, Labor & Commerce"
120090,98931-85231,98931,FE,18034,The Nichols Group Government Relations LLC,Employer,85231,Commonwealth Real Estate Services,22-Dec,1/4/2023,85230.0,Commonwealth Real Estate Services,5000.0,0.0,5000.0,0.0,0.0,0.0,0.0,0.0,0.0,0.0,5000.0,85231.0,Direct,,,View report (https://accesshub.pdc.wa.gov/node/98931),Business and consumer affairs,Manufactured Park and Housing Issues,"House Housing, Human Services & Veterans Committee, Senate Housing & Local Government Committee"
120092,98898-86418,98898,FE,17578,JEFFREY S GOMBOSKY,Employer,86418,CTIA - The Wireless Assocation,22-Dec,1/4/2023,86382.0,CTIA - The Wireless Assocation,7000.0,-1000.0,6000.0,0.0,0.0,0.0,0.0,0.0,0.0,0.0,6000.0,86418.0,Direct,,,View report (https://accesshub.pdc.wa.gov/node/98898),,,
120094,98915-87694,98915,FE,87512,MARY STAPLES,Employer,87694,National Association of Chain Drug Stores,22-Dec,1/4/2023,87513.0,National Association of Chain Drug Stores,1000.0,0.0,1000.0,0.0,0.0,0.0,0.0,0.0,0.0,0.0,1000.0,87694.0,Direct,,,View report (https://accesshub.pdc.wa.gov/node/98915),Financial institutions and insurance,PBM reform,House Healthcare & Wellness Committee work session
120095,98925-95765,98925,FE,95083,The Garner Group,Employer,95765,"Cognoa, Inc.",22-Oct,1/4/2023,95095.0,"Cognoa, Inc.",1000.0,0.0,1000.0,0.0,0.0,0.0,0.0,0.0,0.0,0.0,1000.0,95765.0,Direct,,,View report (https://accesshub.pdc.wa.gov/node/98925),Technology,Digital Theraputics,Healthcare Committee
120098,98898-96539,98898,FE,17578,JEFFREY S GOMBOSKY,Employer,96539,The Baseball Club of Tacoma (Melissa M Gombosky),22-Dec,1/4/2023,95106.0,The Baseball Club of Tacoma,1000.0,0.0,1000.0,0.0,0.0,0.0,0.0,0.0,0.0,0.0,1000.0,96539.0,Subcontract,17579.0,Melissa M Gombosky,View report (https://accesshub.pdc.wa.gov/node/98898),,,
120099,98931-95877,98931,FE,18034,The Nichols Group Government Relations LLC,Employer,95877,Lewis County (GORDON THOMAS HONEYWELL GOV AFFAIRS*),22-Dec,1/4/2023,95289.0,Lewis County,2500.0,0.0,2500.0,0.0,0.0,0.0,0.0,0.0,0.0,0.0,2500.0,95877.0,Subcontract,17581.0,GORDON THOMAS HONEYWELL GOV AFFAIRS*,View report (https://accesshub.pdc.wa.gov/node/98931),,,
120100,98998-84473,98998,FE,17903,PRINCIPLED SOLUTIONS*,Employer,84473,"Fortinet, Inc.",22-Nov,1/5/2023,84472.0,"Fortinet, Inc.",4500.0,0.0,4500.0,0.0,0.0,0.0,0.0,0.0,0.0,0.0,4500.0,84473.0,Direct,,,View report (https://accesshub.pdc.wa.gov/node/98998),State government,Various,Various
120101,98824-19207,98824,FE,17779,MCBRIDE PUBLIC AFFAIRS LLC*,Employer,19207,"Elevance Health, and its Affiliates",22-Dec,1/5/2023,16107.0,"Elevance Health, and its Affiliates",5000.0,0.0,5000.0,0.0,0.0,0.0,0.0,0.0,0.0,0.0,5000.0,19207.0,Direct,,,View report (https://accesshub.pdc.wa.gov/node/98824),Human services,Medicaid,HEALTH CARE BUDGET HUMAN SERVICES
120102,99007-18813,99007,FE,17579,Melissa M Gombosky,Employer,18813,ASSN OF AMERICAN PUBLISHERS,22-Dec,1/5/2023,16116.0,ASSN OF AMERICAN PUBLISHERS,4000.0,0.0,4000.0,0.0,0.0,0.0,0.0,0.0,0.0,0.0,4000.0,18813.0,Direct,,,View report (https://accesshub.pdc.wa.gov/node/99007),Education,Education Issues,Education Committees
120103,98824-19208,98824,FE,17779,MCBRIDE PUBLIC AFFAIRS LLC*,Employer,19208,AMGEN INC,22-Dec,1/5/2023,16127.0,AMGEN INC,4500.0,0.0,4500.0,0.0,0.0,0.0,0.0,0.0,0.0,0.0,4500.0,19208.0,Direct,,,View report (https://accesshub.pdc.wa.gov/node/98824),Health Care,Health Care,HEALTH CARE TECH WAYS & MEANS
120104,98140-19049,98140,FE,17688,James P Justin (Government Relations Consulting Inc.),Employer,19049,AT&T SERVICES INC,22-Nov,1/5/2023,16175.0,AT&T SERVICES INC,3500.0,-1000.0,2500.0,0.0,0.0,0.0,0.0,0.0,0.0,0.0,2500.0,19049.0,Direct,,,View report (https://accesshub.pdc.wa.gov/node/98140),Technology,Privacy Proposals,"Governor's Office, AG's Office and Legislative leads on the issue"
120105,99028-55733,99028,FE,17471,JAMES CURRY,Employer,55733,Bayer U.S. LLC,22-Dec,1/5/2023,16185.0,Bayer U.S. LLC,473.0,0.0,473.0,0.0,0.0,0.0,0.0,0.0,0.0,0.0,473.0,55733.0,Direct,,,View report (https://accesshub.pdc.wa.gov/node/99028),Agriculture,Agriculture Issues,"Legislature, State Department of Agriculture"
120106,97746-19172,97746,FE,17767,ROB MAKIN CONSULTING*,Employer,19172,BOEHRINGER INGELHEIM PHARMACEUTICALS INC,22-Nov,1/5/2023,16199.0,BOEHRINGER INGELHEIM PHARMACEUTICALS INC,3000.0,0.0,3000.0,0.0,0.0,0.0,0.0,0.0,0.0,0.0,3000.0,19172.0,Direct,,,View report (https://accesshub.pdc.wa.gov/node/97746),Health Care,Health Care,Senate and House Health Care
120107,98140-61437,98140,FE,17688,James P Justin (Government Relations Consulting Inc.),Employer,61437,BOEING EMPLOYEES CREDIT UNION,22-Nov,1/5/2023,16200.0,BOEING EMPLOYEES CREDIT UNION,2000.0,-1000.0,1000.0,0.0,0.0,0.0,0.0,0.0,0.0,0.0,1000.0,61437.0,Direct,,,View report (https://accesshub.pdc.wa.gov/node/98140),Financial institutions and insurance,Operation of Financial Institutions,Members of the Senate Financial Institutions Committee
120108,98824-19210,98824,FE,17779,MCBRIDE PUBLIC AFFAIRS LLC*,Employer,19210,BOEING,22-Dec,1/5/2023,16201.0,BOEING,10000.0,0.0,10000.0,0.0,0.0,0.0,0.0,0.0,0.0,0.0,10000.0,19210.0,Direct,,,View report (https://accesshub.pdc.wa.gov/node/98824),Transportation,TRANSPORTATION,TRANSPORTATION LABOR EDUCATION DOR
120109,98824-19211,98824,FE,17779,MCBRIDE PUBLIC AFFAIRS LLC*,Employer,19211,CITY OF BELLINGHAM,22-Dec,1/5/2023,16276.0,CITY OF BELLINGHAM,2500.0,-1666.67,833.33,0.0,0.0,0.0,0.0,0.0,0.0,0.0,833.33,19211.0,Direct,,,View report (https://accesshub.pdc.wa.gov/node/98824),Local government,Economic Development,MTCA BUDGET LOCAL GOVERNMENT TRANSPORTATION
120110,98824-19212,98824,FE,17779,MCBRIDE PUBLIC AFFAIRS LLC*,Employer,19212,CITY OF KENNEWICK,22-Dec,1/5/2023,16290.0,CITY OF KENNEWICK,4120.0,-2746.66,1373.34,0.0,0.0,0.0,0.0,0.0,0.0,0.0,1373.34,19212.0,Direct,,,View report (https://accesshub.pdc.wa.gov/node/98824),Transportation,transportation,House Senate All
120111,99002-19863,99002,FE,18074,Waypoint Consulting Group,Employer,19863,CLIMATE SOLUTIONS,22-Dec,1/5/2023,16327.0,CLIMATE SOLUTIONS,4500.0,0.0,4500.0,0.0,0.0,0.0,0.0,0.0,0.0,0.0,4500.0,19863.0,Direct,,,View report (https://accesshub.pdc.wa.gov/node/99002),Environmental Affairs - natural resources - parks,Enviroment,"Environment, Transportation, TED, WEE, DOE, Finance"
120112,98824-49669,98824,FE,17779,MCBRIDE PUBLIC AFFAIRS LLC*,Employer,49669,Molson Coors Beverage Company USA LLC,22-Dec,1/5/2023,16366.0,Molson Coors Beverage Company USA LLC,4333.0,0.0,4333.0,0.0,0.0,0.0,0.0,0.0,0.0,0.0,4333.0,49669.0,Direct,,,View report (https://accesshub.pdc.wa.gov/node/98824),Labor,Labor,House Commerce & Gaming AND Senate Labor & Commerce
120113,99046-19816,99046,FE,18044,ANDREA M TULL,Employer,19816,Centene Corporation on behalf of its affiliates and subsidiaries,22-Dec,1/5/2023,16367.0,Centene Corporation on behalf of its affiliates and subsidiaries,2000.0,0.0,2000.0,0.0,0.0,0.0,0.0,0.0,0.0,0.0,2000.0,19816.0,Direct,,,View report (https://accesshub.pdc.wa.gov/node/99046),Health Care,2023 Session Prep,Washington Health Care Authority
120114,98824-19214,98824,FE,17779,MCBRIDE PUBLIC AFFAIRS LLC*,Employer,19214,DART CONTAINER CORP (THROUGH MULTISTATE ASSOCIATES LLC),22-Dec,1/5/2023,16379.0,DART CONTAINER CORP (THROUGH MULTISTATE ASSOCIATES LLC),3500.0,0.0,3500.0,0.0,0.0,0.0,0.0,0.0,0.0,0.0,3500.0,19214.0,Direct,,,View report (https://accesshub.pdc.wa.gov/node/98824),Environmental Affairs - natural resources - parks,ENVIRONMENT,ENVIRONMENT LABOR
120115,97746-19174,97746,FE,17767,ROB MAKIN CONSULTING*,Employer,19174,DELOITTE CONSULTING LLP,22-Nov,1/5/2023,16384.0,DELOITTE CONSULTING LLP,3750.0,0.0,3750.0,0.0,0.0,0.0,0.0,0.0,0.0,0.0,3750.0,19174.0,Direct,,,View report (https://accesshub.pdc.wa.gov/node/97746),Technology,Technology,House and Senate Technology
120116,99007-18814,99007,FE,17579,Melissa M Gombosky,Employer,18814,EDUCATIONAL SERVICE DISTRICT 105,22-Dec,1/5/2023,16406.0,EDUCATIONAL SERVICE DISTRICT 105,3333.33,0.0,3333.33,0.0,0.0,0.0,0.0,0.0,0.0,0.0,3333.33,18814.0,Direct,,,View report (https://accesshub.pdc.wa.gov/node/99007),Education,Education Issues,Education Committees
120117,99007-34839,99007,FE,17579,Melissa M Gombosky,Employer,34839,EVERGREEN SCHOOL DIST #114,22-Dec,1/5/2023,16423.0,EVERGREEN SCHOOL DIST #114,6000.0,0.0,6000.0,0.0,0.0,0.0,0.0,0.0,0.0,0.0,6000.0,34839.0,Direct,,,View report (https://accesshub.pdc.wa.gov/node/99007),Environmental Affairs - natural resources - parks,education issues,Education Committees
120118,98140-73551,98140,FE,17688,James P Justin (Government Relations Consulting Inc.),Employer,73551,Google LLC and its Affiliates,22-Nov,1/5/2023,16475.0,Google LLC and its Affiliates,3000.0,-1000.0,2000.0,0.0,0.0,0.0,0.0,0.0,0.0,0.0,2000.0,73551.0,Direct,,,View report (https://accesshub.pdc.wa.gov/node/98140),Technology,Privacy Legislation,"State Environment, Energy & Technology Committee Members, Governor's Office, and House and Senate leads on Privacy Legislation"
120119,91317-82338,91317,FE,47356,Streuli Public Affairs,Employer,82338,Google LLC and its Affiliates,22-Mar,1/5/2023,16475.0,Google LLC and its Affiliates,4500.0,0.0,4500.0,0.0,0.0,0.0,0.0,0.0,0.0,0.0,4500.0,82338.0,Direct,,,View report (https://accesshub.pdc.wa.gov/node/91317),Technology,Cloud Technology,Various Legislative Policy and Fiscal Committees and State Agencies
120120,97746-83082,97746,FE,17767,ROB MAKIN CONSULTING*,Employer,83082,HEALTHCARE DISTRIBUTION ALLIANCE c/o MultiState Associates Inc,22-Nov,1/5/2023,16496.0,HEALTHCARE DISTRIBUTION ALLIANCE c/o MultiState Associates Inc,2750.0,0.0,2750.0,0.0,0.0,0.0,0.0,0.0,0.0,0.0,2750.0,83082.0,Direct,,,View report (https://accesshub.pdc.wa.gov/node/97746),Health Care,Health Care,"Health Care, Fiscal"
120121,98977-19497,98977,FE,17903,PRINCIPLED SOLUTIONS*,Employer,19497,HIGHLINE GRAIN LLC,22-Mar,1/5/2023,16501.0,HIGHLINE GRAIN LLC,5000.0,0.0,5000.0,0.0,0.0,0.0,0.0,0.0,0.0,0.0,5000.0,19497.0,Direct,,,View report (https://accesshub.pdc.wa.gov/node/98977),Transportation,Various,Various
120122,98979-19497,98979,FE,17903,PRINCIPLED SOLUTIONS*,Employer,19497,HIGHLINE GRAIN LLC,22-Apr,1/5/2023,16501.0,HIGHLINE GRAIN LLC,5000.0,0.0,5000.0,0.0,0.0,0.0,0.0,0.0,0.0,0.0,5000.0,19497.0,Direct,,,View report (https://accesshub.pdc.wa.gov/node/98979),Transportation,Various,Various
120123,98980-19497,98980,FE,17903,PRINCIPLED SOLUTIONS*,Employer,19497,HIGHLINE GRAIN LLC,22-May,1/5/2023,16501.0,HIGHLINE GRAIN LLC,5000.0,0.0,5000.0,0.0,0.0,0.0,0.0,0.0,0.0,0.0,5000.0,19497.0,Direct,,,View report (https://accesshub.pdc.wa.gov/node/98980),Transportation,Various,Various
120124,98987-19497,98987,FE,17903,PRINCIPLED SOLUTIONS*,Employer,19497,HIGHLINE GRAIN LLC,22-Jun,1/5/2023,16501.0,HIGHLINE GRAIN LLC,5000.0,0.0,5000.0,0.0,0.0,0.0,0.0,0.0,0.0,0.0,5000.0,19497.0,Direct,,,View report (https://accesshub.pdc.wa.gov/node/98987),Transportation,Various,Various
120125,98990-19497,98990,FE,17903,PRINCIPLED SOLUTIONS*,Employer,19497,HIGHLINE GRAIN LLC,22-Jul,1/5/2023,16501.0,HIGHLINE GRAIN LLC,5000.0,0.0,5000.0,0.0,0.0,0.0,0.0,0.0,0.0,0.0,5000.0,19497.0,Direct,,,View report (https://accesshub.pdc.wa.gov/node/98990),Transportation,Various,Various
120126,98993-19497,98993,FE,17903,PRINCIPLED SOLUTIONS*,Employer,19497,HIGHLINE GRAIN LLC,22-Aug,1/5/2023,16501.0,HIGHLINE GRAIN LLC,5000.0,0.0,5000.0,0.0,0.0,0.0,0.0,0.0,0.0,0.0,5000.0,19497.0,Direct,,,View report (https://accesshub.pdc.wa.gov/node/98993),Transportation,Various,Various
120127,98996-19497,98996,FE,17903,PRINCIPLED SOLUTIONS*,Employer,19497,HIGHLINE GRAIN LLC,22-Sep,1/5/2023,16501.0,HIGHLINE GRAIN LLC,5000.0,0.0,5000.0,0.0,0.0,0.0,0.0,0.0,0.0,0.0,5000.0,19497.0,Direct,,,View report (https://accesshub.pdc.wa.gov/node/98996),Transportation,Various,Various
120128,98997-19497,98997,FE,17903,PRINCIPLED SOLUTIONS*,Employer,19497,HIGHLINE GRAIN LLC,22-Oct,1/5/2023,16501.0,HIGHLINE GRAIN LLC,5000.0,0.0,5000.0,0.0,0.0,0.0,0.0,0.0,0.0,0.0,5000.0,19497.0,Direct,,,View report (https://accesshub.pdc.wa.gov/node/98997),Transportation,Various,Various
120129,98998-19497,98998,FE,17903,PRINCIPLED SOLUTIONS*,Employer,19497,HIGHLINE GRAIN LLC,22-Nov,1/5/2023,16501.0,HIGHLINE GRAIN LLC,5000.0,0.0,5000.0,0.0,0.0,0.0,0.0,0.0,0.0,0.0,5000.0,19497.0,Direct,,,View report (https://accesshub.pdc.wa.gov/node/98998),Transportation,Various,Various
120130,98999-19497,98999,FE,17903,PRINCIPLED SOLUTIONS*,Employer,19497,HIGHLINE GRAIN LLC,22-Dec,1/5/2023,16501.0,HIGHLINE GRAIN LLC,5000.0,0.0,5000.0,0.0,0.0,0.0,0.0,0.0,0.0,0.0,5000.0,19497.0,Direct,,,View report (https://accesshub.pdc.wa.gov/node/98999),Transportation,Various,Various
120131,98824-19217,98824,FE,17779,MCBRIDE PUBLIC AFFAIRS LLC*,Employer,19217,HONDA NORTH AMERICA (THRU MULTISTATE ASSOCIATES LLC),22-Dec,1/5/2023,16510.0,HONDA NORTH AMERICA (THRU MULTISTATE ASSOCIATES LLC),3500.0,0.0,3500.0,0.0,0.0,0.0,0.0,0.0,0.0,0.0,3500.0,19217.0,Direct,,,View report (https://accesshub.pdc.wa.gov/node/98824),Environmental Affairs - natural resources - parks,Environmental Affairs,TRANSPORTATION PUBLIC SAFETY
120132,99007-18816,99007,FE,17579,Melissa M Gombosky,Employer,18816,INLAND EMPIRE PAPER,22-Dec,1/5/2023,16530.0,INLAND EMPIRE PAPER,3500.0,0.0,3500.0,0.0,0.0,0.0,0.0,0.0,0.0,0.0,3500.0,18816.0,Direct,,,View report (https://accesshub.pdc.wa.gov/node/99007),Environmental Affairs - natural resources - parks,environmental issues,environmental Committees
120134,91317-49283,91317,FE,47356,Streuli Public Affairs,Employer,49283,IRON WORKERS DIST CNCL OF THE PNW,22-Mar,1/5/2023,16547.0,IRON WORKERS DIST CNCL OF THE PNW,3500.0,0.0,3500.0,0.0,0.0,0.0,0.0,0.0,0.0,0.0,3500.0,49283.0,Direct,,,View report (https://accesshub.pdc.wa.gov/node/91317),Transportation,Construction,Various Legislative Policy and Fiscal Committees and State Agencies
120135,99002-19864,99002,FE,18074,Waypoint Consulting Group,Employer,19864,JOINT COUNCIL OF TEAMSTERS #28,22-Dec,1/5/2023,16564.0,JOINT COUNCIL OF TEAMSTERS #28,6250.0,0.0,6250.0,0.0,0.0,0.0,0.0,0.0,0.0,0.0,6250.0,19864.0,Direct,,,View report (https://accesshub.pdc.wa.gov/node/99002),Labor,Labor,"Labor & Commerce, W&M, Approps, Finance, Education"
120136,98824-19218,98824,FE,17779,MCBRIDE PUBLIC AFFAIRS LLC*,Employer,19218,KITSAP CO,22-Dec,1/5/2023,16580.0,KITSAP CO,5500.0,0.0,5500.0,0.0,0.0,0.0,0.0,0.0,0.0,0.0,5500.0,19218.0,Direct,,,View report (https://accesshub.pdc.wa.gov/node/98824),Local government,Local Government,REVENUE LOCAL GOV TRANSPORTATION
120137,98140-26337,98140,FE,17688,James P Justin (Government Relations Consulting Inc.),Employer,26337,LYFT INC (Insight Strategic Partners LLC),22-Nov,1/5/2023,16612.0,LYFT INC,2500.0,-1000.0,1500.0,0.0,0.0,0.0,0.0,0.0,0.0,0.0,1500.0,26337.0,Subcontract,25651.0,Insight Strategic Partners LLC,View report (https://accesshub.pdc.wa.gov/node/98140),,,
120138,97746-19176,97746,FE,17767,ROB MAKIN CONSULTING*,Employer,19176,LYNDEN INCORPORATED,22-Nov,1/5/2023,16613.0,LYNDEN INCORPORATED,1750.0,0.0,1750.0,0.0,0.0,0.0,0.0,0.0,0.0,0.0,1750.0,19176.0,Direct,,,View report (https://accesshub.pdc.wa.gov/node/97746),Transportation,Transportation,House and Senate Transportation
120139,98824-19219,98824,FE,17779,MCBRIDE PUBLIC AFFAIRS LLC*,Employer,19219,McDonalds Corporation,22-Dec,1/5/2023,16625.0,McDonalds Corporation,3333.33,0.0,3333.33,0.0,0.0,0.0,0.0,0.0,0.0,0.0,3333.33,19219.0,Direct,,,View report (https://accesshub.pdc.wa.gov/node/98824),Business and consumer affairs,COMMERCE,LABOR COMMERCE AND LABOR
120140,97746-19177,97746,FE,17767,ROB MAKIN CONSULTING*,Employer,19177,MICROSOFT CORP,22-Nov,1/5/2023,16636.0,MICROSOFT CORP,8460.0,0.0,8460.0,0.0,0.0,0.0,0.0,0.0,0.0,0.0,8460.0,19177.0,Direct,,,View report (https://accesshub.pdc.wa.gov/node/97746),Technology,"Technology, Taxes","House and Senate Technology, Fiscal"
120141,98824-69394,98824,FE,17779,MCBRIDE PUBLIC AFFAIRS LLC*,Employer,69394,MT SPOKANE 2000,22-Dec,1/5/2023,16649.0,MT SPOKANE 2000,3000.0,0.0,3000.0,0.0,0.0,0.0,0.0,0.0,0.0,0.0,3000.0,69394.0,Direct,,,View report (https://accesshub.pdc.wa.gov/node/98824),State government,"Parks, environment, fiscal, labor",House Senate All - Department of Commerce
120142,98140-19054,98140,FE,17688,James P Justin (Government Relations Consulting Inc.),Employer,19054,MUNICIPAL RESEARCH & SERVICES CENTER,22-Nov,1/5/2023,16652.0,MUNICIPAL RESEARCH & SERVICES CENTER,1500.0,-500.0,1000.0,0.0,0.0,0.0,0.0,0.0,0.0,0.0,1000.0,19054.0,Direct,,,View report (https://accesshub.pdc.wa.gov/node/98140),Local government,Legislative/Budget proposals of MRSC,OFM & Dept of Commerce
120143,98824-19221,98824,FE,17779,MCBRIDE PUBLIC AFFAIRS LLC*,Employer,19221,NATIONAL ELEVATOR INDUSTRY INC,22-Dec,1/5/2023,16663.0,NATIONAL ELEVATOR INDUSTRY INC,4000.0,0.0,4000.0,0.0,0.0,0.0,0.0,0.0,0.0,0.0,4000.0,19221.0,Direct,,,View report (https://accesshub.pdc.wa.gov/node/98824),Business and consumer affairs,COMMERCE,ELEVATOR REGS L&I LABOR COMMERCE
120144,99002-19865,99002,FE,18074,Waypoint Consulting Group,Employer,19865,NON-PROFIT INSURANCE PROGRAM,22-Dec,1/5/2023,16691.0,NON-PROFIT INSURANCE PROGRAM,2500.0,0.0,2500.0,0.0,0.0,0.0,0.0,0.0,0.0,0.0,2500.0,19865.0,Direct,,,View report (https://accesshub.pdc.wa.gov/node/99002),Financial institutions and insurance,Insurance Pools,"BFS, FII, DES"
120145,98977-19499,98977,FE,17903,PRINCIPLED SOLUTIONS*,Employer,19499,NORTHSTAR CONTRACTING GROUP LP,22-Mar,1/5/2023,16702.0,NORTHSTAR CONTRACTING GROUP LP,2000.0,0.0,2000.0,0.0,0.0,0.0,0.0,0.0,0.0,0.0,2000.0,19499.0,Direct,,,View report (https://accesshub.pdc.wa.gov/node/98977),Environmental Affairs - natural resources - parks,Recycling Issues,Various
120146,98979-19499,98979,FE,17903,PRINCIPLED SOLUTIONS*,Employer,19499,NORTHSTAR CONTRACTING GROUP LP,22-Apr,1/5/2023,16702.0,NORTHSTAR CONTRACTING GROUP LP,2000.0,0.0,2000.0,0.0,0.0,0.0,0.0,0.0,0.0,0.0,2000.0,19499.0,Direct,,,View report (https://accesshub.pdc.wa.gov/node/98979),Environmental Affairs - natural resources - parks,Recycling Issues,Various
120147,98980-19499,98980,FE,17903,PRINCIPLED SOLUTIONS*,Employer,19499,NORTHSTAR CONTRACTING GROUP LP,22-May,1/5/2023,16702.0,NORTHSTAR CONTRACTING GROUP LP,2000.0,0.0,2000.0,0.0,0.0,0.0,0.0,0.0,0.0,0.0,2000.0,19499.0,Direct,,,View report (https://accesshub.pdc.wa.gov/node/98980),Environmental Affairs - natural resources - parks,Recycling Issues,Various
120148,98987-19499,98987,FE,17903,PRINCIPLED SOLUTIONS*,Employer,19499,NORTHSTAR CONTRACTING GROUP LP,22-Jun,1/5/2023,16702.0,NORTHSTAR CONTRACTING GROUP LP,2000.0,0.0,2000.0,0.0,0.0,0.0,0.0,0.0,0.0,0.0,2000.0,19499.0,Direct,,,View report (https://accesshub.pdc.wa.gov/node/98987),Environmental Affairs - natural resources - parks,Recycling Issues,Various
120149,98990-19499,98990,FE,17903,PRINCIPLED SOLUTIONS*,Employer,19499,NORTHSTAR CONTRACTING GROUP LP,22-Jul,1/5/2023,16702.0,NORTHSTAR CONTRACTING GROUP LP,2000.0,0.0,2000.0,0.0,0.0,0.0,0.0,0.0,0.0,0.0,2000.0,19499.0,Direct,,,View report (https://accesshub.pdc.wa.gov/node/98990),Environmental Affairs - natural resources - parks,Recycling Issues,Various
120150,98993-19499,98993,FE,17903,PRINCIPLED SOLUTIONS*,Employer,19499,NORTHSTAR CONTRACTING GROUP LP,22-Aug,1/5/2023,16702.0,NORTHSTAR CONTRACTING GROUP LP,2000.0,0.0,2000.0,0.0,0.0,0.0,0.0,0.0,0.0,0.0,2000.0,19499.0,Direct,,,View report (https://accesshub.pdc.wa.gov/node/98993),Environmental Affairs - natural resources - parks,Recycling Issues,Various
120151,98996-19499,98996,FE,17903,PRINCIPLED SOLUTIONS*,Employer,19499,NORTHSTAR CONTRACTING GROUP LP,22-Sep,1/5/2023,16702.0,NORTHSTAR CONTRACTING GROUP LP,2000.0,0.0,2000.0,0.0,0.0,0.0,0.0,0.0,0.0,0.0,2000.0,19499.0,Direct,,,View report (https://accesshub.pdc.wa.gov/node/98996),Environmental Affairs - natural resources - parks,Recycling Issues,Various
120152,98997-19499,98997,FE,17903,PRINCIPLED SOLUTIONS*,Employer,19499,NORTHSTAR CONTRACTING GROUP LP,22-Oct,1/5/2023,16702.0,NORTHSTAR CONTRACTING GROUP LP,2000.0,0.0,2000.0,0.0,0.0,0.0,0.0,0.0,0.0,0.0,2000.0,19499.0,Direct,,,View report (https://accesshub.pdc.wa.gov/node/98997),Environmental Affairs - natural resources - parks,Recycling Issues,Various
120153,98998-19499,98998,FE,17903,PRINCIPLED SOLUTIONS*,Employer,19499,NORTHSTAR CONTRACTING GROUP LP,22-Nov,1/5/2023,16702.0,NORTHSTAR CONTRACTING GROUP LP,2000.0,0.0,2000.0,0.0,0.0,0.0,0.0,0.0,0.0,0.0,2000.0,19499.0,Direct,,,View report (https://accesshub.pdc.wa.gov/node/98998),Environmental Affairs - natural resources - parks,Recycling Issues,Various
120154,98999-19499,98999,FE,17903,PRINCIPLED SOLUTIONS*,Employer,19499,NORTHSTAR CONTRACTING GROUP LP,22-Dec,1/5/2023,16702.0,NORTHSTAR CONTRACTING GROUP LP,2000.0,0.0,2000.0,0.0,0.0,0.0,0.0,0.0,0.0,0.0,2000.0,19499.0,Direct,,,View report (https://accesshub.pdc.wa.gov/node/98999),Environmental Affairs - natural resources - parks,Recycling Issues,Various
120155,91317-83574,91317,FE,47356,Streuli Public Affairs,Employer,83574,PACIFIC NORTHWEST REGIONAL COUNCIL OF CARPENTERS,22-Mar,1/5/2023,16754.0,PACIFIC NORTHWEST REGIONAL COUNCIL OF CARPENTERS,5000.0,0.0,5000.0,0.0,0.0,0.0,0.0,0.0,0.0,0.0,5000.0,83574.0,Direct,,,View report (https://accesshub.pdc.wa.gov/node/91317),,,
120156,98140-92105,98140,FE,17688,James P Justin (Government Relations Consulting Inc.),Employer,92105,PARTNERSHIP FOR LEARNING,22-Nov,1/5/2023,16765.0,PARTNERSHIP FOR LEARNING,1750.0,-250.0,1500.0,0.0,0.0,0.0,0.0,0.0,0.0,0.0,1500.0,92105.0,Direct,,,View report (https://accesshub.pdc.wa.gov/node/98140),Higher education,Career Connect Budget Proposals,"House & Senate K-12 Committee members, Labor Committee members, Budget writers in both Chambers"
120157,99007-83398,99007,FE,17579,Melissa M Gombosky,Employer,83398,ALTRIA CLIENT SERVICES LLC & ITS AFFILIATES,22-Dec,1/5/2023,16778.0,ALTRIA CLIENT SERVICES LLC & ITS AFFILIATES,6250.0,0.0,6250.0,0.0,0.0,0.0,0.0,0.0,0.0,0.0,6250.0,83398.0,Direct,,,View report (https://accesshub.pdc.wa.gov/node/99007),Business and consumer affairs,Nicotine,"H and S Comm and Labor, Business, Ways and Means"
120158,98824-19222,98824,FE,17779,MCBRIDE PUBLIC AFFAIRS LLC*,Employer,19222,PORT OF BELLINGHAM,22-Dec,1/5/2023,16792.0,PORT OF BELLINGHAM,2500.0,-1666.66,833.34,0.0,0.0,0.0,0.0,0.0,0.0,0.0,833.34,19222.0,Direct,,,View report (https://accesshub.pdc.wa.gov/node/98824),Local government,MTCA,BUDGET LOCAL GOVT TRANSPORTATION
120159,99007-84192,99007,FE,17579,Melissa M Gombosky,Employer,84192,PROCTER & GAMBLE CO,22-Dec,1/5/2023,16814.0,PROCTER & GAMBLE CO,3750.0,0.0,3750.0,0.0,0.0,0.0,0.0,0.0,0.0,0.0,3750.0,84192.0,Direct,,,View report (https://accesshub.pdc.wa.gov/node/99007),Business and consumer affairs,Consumer Affairs,"H and S Comm and Labor, Business, Ways and Means"
120160,99002-19866,99002,FE,18074,Waypoint Consulting Group,Employer,19866,Puget Sound Pilots,22-Dec,1/5/2023,16831.0,Puget Sound Pilots,6250.0,0.0,6250.0,0.0,0.0,0.0,0.0,0.0,0.0,0.0,6250.0,19866.0,Direct,,,View report (https://accesshub.pdc.wa.gov/node/99002),Transportation,Maritime transporation,"Environment, TED, BOPC, OFM"
120161,98824-19224,98824,FE,17779,MCBRIDE PUBLIC AFFAIRS LLC*,Employer,19224,QUEST DIAGNOSTICS,22-Dec,1/5/2023,16836.0,QUEST DIAGNOSTICS,5000.0,0.0,5000.0,0.0,0.0,0.0,0.0,0.0,0.0,0.0,5000.0,19224.0,Direct,,,View report (https://accesshub.pdc.wa.gov/node/98824),Health Care,HEALTH CARE (Opioid prescribing rule making),"MEDICAID HEALTH CARE AUTHORITY, DEPT. OF HEALTH"
120162,99007-70488,99007,FE,17579,Melissa M Gombosky,Employer,70488,Richland School District,22-Dec,1/5/2023,16860.0,Richland School District,3500.0,0.0,3500.0,0.0,0.0,0.0,0.0,0.0,0.0,0.0,3500.0,70488.0,Direct,,,View report (https://accesshub.pdc.wa.gov/node/99007),Education,Education,Education Committees
120163,97746-19179,97746,FE,17767,ROB MAKIN CONSULTING*,Employer,19179,SABEY CORPORATION,22-Nov,1/5/2023,16867.0,SABEY CORPORATION,3000.0,0.0,3000.0,0.0,245.98,0.0,0.0,0.0,0.0,245.98,3245.98,19179.0,Direct,,,View report (https://accesshub.pdc.wa.gov/node/97746),Fiscal,Taxes,Senate & House Finance
120164,99003-80001,99003,FE,46174,"Washington Government Relations, LLC",Employer,80001,RENTAL HOUSING ASSN OF WA,22-Dec,1/5/2023,16894.0,RENTAL HOUSING ASSN OF WA,3500.0,0.0,3500.0,0.0,0.0,0.0,0.0,0.0,0.0,0.0,3500.0,80001.0,Direct,,,View report (https://accesshub.pdc.wa.gov/node/99003),Business and consumer affairs,Landlord / Tenant,"Senate Housing & Local Government Committee, House Housing, Human Services & Veterans Committee"
120165,98975-37661,98975,FE,37660,Tim Strickland,Employer,37661,PEACEHEALTH,22-Dec,1/5/2023,16934.0,PEACEHEALTH,4040.0,0.0,4040.0,0.0,0.0,0.0,0.0,0.0,0.0,0.0,4040.0,37661.0,Direct,,,View report (https://accesshub.pdc.wa.gov/node/98975),Health Care,"Healthcare workforce shortage, timeliness of DSHS patient clinical evaluations and financial eligibility determinations; DDA post-acute placements; unnecessary guardianship delays; hospital finances",Senator Wagoner; Senator-elect Shewmake; Rep-elect McClintock; DDA leadership
120166,98824-68909,98824,FE,17779,MCBRIDE PUBLIC AFFAIRS LLC*,Employer,68909,SPOKANE PUBLIC FACILITIES DIST,22-Dec,1/5/2023,16942.0,SPOKANE PUBLIC FACILITIES DIST,3000.0,0.0,3000.0,0.0,0.0,0.0,0.0,0.0,0.0,0.0,3000.0,68909.0,Direct,,,View report (https://accesshub.pdc.wa.gov/node/98824),Fiscal,"local government, fiscal",House Senate All - Department of Commerce
120167,99002-19868,99002,FE,18074,Waypoint Consulting Group,Employer,19868,STATEWIDE POVERTY ACTION NETWORK,22-Dec,1/5/2023,16952.0,STATEWIDE POVERTY ACTION NETWORK,4000.0,0.0,4000.0,0.0,0.0,0.0,0.0,0.0,0.0,0.0,4000.0,19868.0,Direct,,,View report (https://accesshub.pdc.wa.gov/node/99002),Business and consumer affairs,Consumer Protection,"BFS, FII,GGIT, DFI,AGO, Judiciary"
120168,98824-68980,98824,FE,17779,MCBRIDE PUBLIC AFFAIRS LLC*,Employer,68980,Superior Court Judges Association,22-Dec,1/5/2023,16960.0,Superior Court Judges Association,9012.5,0.0,9012.5,0.0,0.0,0.0,0.0,0.0,0.0,0.0,9012.5,68980.0,Direct,,,View report (https://accesshub.pdc.wa.gov/node/98824),Law and justice,"Judiciary, human services, local government","House Senate All - Department of Corrections, Administrative Office of the Courts"
120169,98824-75131,98824,FE,17779,MCBRIDE PUBLIC AFFAIRS LLC*,Employer,75131,SURPLUS LINE ASSN OF WA,22-Dec,1/5/2023,16962.0,SURPLUS LINE ASSN OF WA,7500.0,0.0,7500.0,0.0,0.0,0.0,0.0,0.0,0.0,0.0,7500.0,75131.0,Direct,,,View report (https://accesshub.pdc.wa.gov/node/98824),Financial institutions and insurance,"Insurance, OIC, Business",House Senate All
120171,98824-19225,98824,FE,17779,MCBRIDE PUBLIC AFFAIRS LLC*,Employer,19225,THYSSENKRUPP ELEVATOR,22-Dec,1/5/2023,16983.0,THYSSENKRUPP ELEVATOR,5000.0,0.0,5000.0,0.0,0.0,0.0,0.0,0.0,0.0,0.0,5000.0,19225.0,Direct,,,View report (https://accesshub.pdc.wa.gov/node/98824),Labor,COMMERCE LABOR,LABOR & INDUSTRIES
120172,98140-19058,98140,FE,17688,James P Justin (Government Relations Consulting Inc.),Employer,19058,TREEHOUSE,22-Nov,1/5/2023,16992.0,TREEHOUSE,1750.0,-250.0,1500.0,0.0,0.0,0.0,0.0,0.0,0.0,0.0,1500.0,19058.0,Direct,,,View report (https://accesshub.pdc.wa.gov/node/98140),Education,"COVID 19 impacts on Foster Kids, Expand Current Program to Middle Schools","DCYF, OSPI, & OFM. Members serving on the fiscal and education committee"
120173,98824-86735,98824,FE,17779,MCBRIDE PUBLIC AFFAIRS LLC*,Employer,86735,Uber Technologies Inc and Affiliates,22-Dec,1/5/2023,17001.0,Uber Technologies Inc and Affiliates,5000.0,0.0,5000.0,0.0,0.0,0.0,0.0,0.0,0.0,0.0,5000.0,86735.0,Direct,,,View report (https://accesshub.pdc.wa.gov/node/98824),Labor,labor,House Senate All
120174,98824-71478,98824,FE,17779,MCBRIDE PUBLIC AFFAIRS LLC*,Employer,71478,UNION PACIFIC RAILROAD CO,22-Dec,1/5/2023,17004.0,UNION PACIFIC RAILROAD CO,4666.0,0.0,4666.0,0.0,0.0,3000.0,0.0,0.0,0.0,3000.0,7666.0,71478.0,Direct,,,View report (https://accesshub.pdc.wa.gov/node/98824),Transportation,"Transportation, commerce, fiscal, environment, labor",Senate and House All - Utilities and Transportation Commission
120175,98140-19059,98140,FE,17688,James P Justin (Government Relations Consulting Inc.),Employer,19059,UNIVERSITY OF WASHINGTON,22-Nov,1/5/2023,17021.0,UNIVERSITY OF WASHINGTON,7000.0,-1000.0,6000.0,0.0,0.0,0.0,0.0,0.0,0.0,0.0,6000.0,19059.0,Direct,,,View report (https://accesshub.pdc.wa.gov/node/98140),Health Care,UW Medicine Operating Costs,"Governor's Office & OFM, & Health Care Authority, DOH, House Appropriations members"
120176,97746-89416,97746,FE,17767,ROB MAKIN CONSULTING*,Employer,89416,VIRGINIA MASON FRANCISCAN HEALTH,22-Nov,1/5/2023,17037.0,VIRGINIA MASON FRANCISCAN HEALTH,3750.0,0.0,3750.0,0.0,0.0,0.0,0.0,0.0,0.0,0.0,3750.0,89416.0,Direct,,,View report (https://accesshub.pdc.wa.gov/node/97746),Health Care,Health Care,Senate and House Health Care
120177,91317-47358,91317,FE,47356,Streuli Public Affairs,Employer,47358,WA CATTLEMEN'S ASSN,22-Mar,1/5/2023,17072.0,WA CATTLEMEN'S ASSN,2000.0,0.0,2000.0,0.0,0.0,0.0,0.0,0.0,0.0,0.0,2000.0,47358.0,Direct,,,View report (https://accesshub.pdc.wa.gov/node/91317),Agriculture,Washington Beef,Various Legislative Policy and Fiscal Committees and State Agencies
120178,99002-47938,99002,FE,18074,Waypoint Consulting Group,Employer,47938,Delta Dental of WA,22-Dec,1/5/2023,17096.0,Delta Dental of WA,8000.0,0.0,8000.0,0.0,0.0,0.0,0.0,0.0,0.0,0.0,8000.0,47938.0,Direct,,,View report (https://accesshub.pdc.wa.gov/node/99002),Health Care,Health Care,Health Care
120179,98140-98163,98140,FE,17688,James P Justin (Government Relations Consulting Inc.),Employer,98163,WA ECONOMIC DEVELOPMENT ASSN,22-Nov,1/5/2023,17102.0,WA ECONOMIC DEVELOPMENT ASSN,2000.0,0.0,2000.0,0.0,0.0,0.0,0.0,0.0,0.0,0.0,2000.0,98163.0,Direct,,,View report (https://accesshub.pdc.wa.gov/node/98140),State government,Economic Development Funding & Programs,"House Innovation, Community & Economic Development, & Veterans, Senate Business, Financial Services, Gaming & Trade Committee"
120180,98140-36764,98140,FE,17688,James P Justin (Government Relations Consulting Inc.),Employer,36764,COLLEGE SUCCESS FOUNDATION,22-Nov,1/5/2023,17104.0,COLLEGE SUCCESS FOUNDATION,2000.0,-500.0,1500.0,0.0,0.0,0.0,0.0,0.0,0.0,0.0,1500.0,36764.0,Direct,,,View report (https://accesshub.pdc.wa.gov/node/98140),Higher education,Access to College,Governor's Office and members of the House Approps and Senate Ways and Means Committees
120181,91317-69327,91317,FE,47356,Streuli Public Affairs,Employer,69327,Northwest Aquaculture Alliance,22-Mar,1/5/2023,17115.0,Northwest Aquaculture Alliance,1500.0,0.0,1500.0,0.0,0.0,0.0,0.0,0.0,0.0,0.0,1500.0,69327.0,Direct,,,View report (https://accesshub.pdc.wa.gov/node/91317),Agriculture,Aquaculture,Various Legislative Policy and Fiscal Committees and State Agencies
120182,98824-19226,98824,FE,17779,MCBRIDE PUBLIC AFFAIRS LLC*,Employer,19226,WA ASSN OF JUVENILE COURT ADMINISTRATORS,22-Dec,1/5/2023,17139.0,WA ASSN OF JUVENILE COURT ADMINISTRATORS,3825.0,0.0,3825.0,0.0,0.0,0.0,0.0,0.0,0.0,0.0,3825.0,19226.0,Direct,,,View report (https://accesshub.pdc.wa.gov/node/98824),Law and justice,REHABILITATON,JUVENILE SERVICES BUDGET
120183,98140-19060,98140,FE,17688,James P Justin (Government Relations Consulting Inc.),Employer,19060,WA ROUNDTABLE,22-Nov,1/5/2023,17178.0,WA ROUNDTABLE,2000.0,0.0,2000.0,0.0,0.0,0.0,0.0,0.0,0.0,0.0,2000.0,19060.0,Direct,,,View report (https://accesshub.pdc.wa.gov/node/98140),Education,Dual Credit Proposals,"Senate members of the K-12 Committee, House members of the Education Committee"
120184,99007-28133,99007,FE,17579,Melissa M Gombosky,Employer,28133,WA ASSN OF SCHOOL ADMINISTRATORS,22-Dec,1/5/2023,17186.0,WA ASSN OF SCHOOL ADMINISTRATORS,5833.33,0.0,5833.33,0.0,0.0,0.0,0.0,0.0,0.0,0.0,5833.33,28133.0,Direct,,,View report (https://accesshub.pdc.wa.gov/node/99007),Education,education policy,Education Committees
120185,98959-95020,98959,FE,95019,Jayme Shoun,Employer,95020,WA STEM CENTER,22-Dec,1/5/2023,17189.0,WA STEM CENTER,232.21,0.0,232.21,0.0,0.0,0.0,0.0,0.0,0.0,0.0,232.21,95020.0,Direct,,,View report (https://accesshub.pdc.wa.gov/node/98959),Education,Early Learning,DCYF and Senator Claire Wilson
120186,98949-85000,98949,FE,47169,B.E. Strategic,Employer,85000,WA ST TREE FRUIT ASSN (David T. Ducharme),22-Dec,1/5/2023,17197.0,WA ST TREE FRUIT ASSN,5000.0,0.0,5000.0,0.0,0.0,0.0,0.0,0.0,0.0,0.0,5000.0,85000.0,Subcontract,17501.0,David T. Ducharme,View report (https://accesshub.pdc.wa.gov/node/98949),,,
120187,98140-26338,98140,FE,17688,James P Justin (Government Relations Consulting Inc.),Employer,26338,WA TECHNOLOGY INDUSTRY ASSN (Insight Strategic Partners LLC),22-Nov,1/5/2023,17203.0,WA TECHNOLOGY INDUSTRY ASSN,2000.0,-1000.0,1000.0,0.0,0.0,0.0,0.0,0.0,0.0,0.0,1000.0,26338.0,Subcontract,25651.0,Insight Strategic Partners LLC,View report (https://accesshub.pdc.wa.gov/node/98140),,,
120188,99002-19870,99002,FE,18074,Waypoint Consulting Group,Employer,19870,WA WILDLIFE & RECREATION COALITION ACTION FUND,22-Dec,1/5/2023,17213.0,WA WILDLIFE & RECREATION COALITION ACTION FUND,4600.0,0.0,4600.0,0.0,0.0,0.0,0.0,0.0,0.0,0.0,4600.0,19870.0,Direct,,,View report (https://accesshub.pdc.wa.gov/node/99002),Environmental Affairs - natural resources - parks,Capital Budget,"Capital Budget, W&M, Nat Res, RCO, WDFW, DNR, State Parks"
120189,98949-47174,98949,FE,47169,B.E. Strategic,Employer,47174,WA ST FARM BUREAU,22-Dec,1/5/2023,17246.0,WA ST FARM BUREAU,5000.0,0.0,5000.0,0.0,0.0,0.0,0.0,0.0,0.0,0.0,5000.0,47174.0,Direct,,,View report (https://accesshub.pdc.wa.gov/node/98949),Labor,Agricultural workforce issues,House Labor
120190,91317-68870,91317,FE,47356,Streuli Public Affairs,Employer,68870,WA ST POTATO COMMISSION,22-Mar,1/5/2023,17273.0,WA ST POTATO COMMISSION,4150.0,0.0,4150.0,0.0,0.0,0.0,0.0,0.0,0.0,0.0,4150.0,68870.0,Direct,,,View report (https://accesshub.pdc.wa.gov/node/91317),Agriculture,Agriculture,Various Legislative Policy and Fiscal Committees And State Agencies
120191,97746-19182,97746,FE,17767,ROB MAKIN CONSULTING*,Employer,19182,WA ST UNIVERSITY,22-Nov,1/5/2023,17290.0,WA ST UNIVERSITY,4000.0,0.0,4000.0,0.0,0.0,0.0,0.0,0.0,0.0,0.0,4000.0,19182.0,Direct,,,View report (https://accesshub.pdc.wa.gov/node/97746),Higher education,Education,House and Senate Education
120192,98824-19228,98824,FE,17779,MCBRIDE PUBLIC AFFAIRS LLC*,Employer,19228,Whatcom Co,22-Dec,1/5/2023,17307.0,Whatcom Co,2500.0,-1666.66,833.34,0.0,0.0,0.0,0.0,0.0,0.0,0.0,833.34,19228.0,Direct,,,View report (https://accesshub.pdc.wa.gov/node/98824),Local government,HOUSING,BUDGET LOCAL GOVT TRANSPORTATION
120193,98824-71629,98824,FE,17779,MCBRIDE PUBLIC AFFAIRS LLC*,Employer,71629,WHATCOM CO COUNCIL OF GOVERNMENTS,22-Dec,1/5/2023,17308.0,WHATCOM CO COUNCIL OF GOVERNMENTS,3793.0,0.0,3793.0,0.0,0.0,0.0,0.0,0.0,0.0,0.0,3793.0,71629.0,Direct,,,View report (https://accesshub.pdc.wa.gov/node/98824),Fiscal,fiscal,"House Senate All, Transportation & Fiscal Committees"
120194,91317-68871,91317,FE,47356,Streuli Public Affairs,Employer,68871,WA POTATO & ONION ASSN,22-Mar,1/5/2023,23611.0,WA POTATO & ONION ASSN,850.0,0.0,850.0,0.0,0.0,0.0,0.0,0.0,0.0,0.0,850.0,68871.0,Direct,,,View report (https://accesshub.pdc.wa.gov/node/91317),Agriculture,Agriculture,Various Legislative Policy and Fiscal Committees And State Agencies
120195,99002-48137,99002,FE,18074,Waypoint Consulting Group,Employer,48137,Cedar Grove,22-Dec,1/5/2023,28124.0,Cedar Grove,7000.0,0.0,7000.0,0.0,0.0,0.0,0.0,0.0,0.0,0.0,7000.0,48137.0,Direct,,,View report (https://accesshub.pdc.wa.gov/node/99002),Environmental Affairs - natural resources - parks,Enviroment / Business,Environment
120196,99007-29482,99007,FE,17579,Melissa M Gombosky,Employer,29482,Spokane Public Schools,22-Dec,1/5/2023,29481.0,Spokane Public Schools,4500.0,0.0,4500.0,0.0,0.0,0.0,0.0,0.0,0.0,0.0,4500.0,29482.0,Direct,,,View report (https://accesshub.pdc.wa.gov/node/99007),Education,education,Education Committees
120197,98140-57532,98140,FE,17688,James P Justin (Government Relations Consulting Inc.),Employer,57532,Parametrix,22-Nov,1/5/2023,29803.0,Parametrix,5500.0,-1000.0,4500.0,0.0,0.0,0.0,0.0,0.0,0.0,0.0,4500.0,57532.0,Direct,,,View report (https://accesshub.pdc.wa.gov/node/98140),Transportation,Implementation of Transportation Budget & associated projects,Senate & House Transportation Committee Members and Staff
120198,98824-30638,98824,FE,17779,MCBRIDE PUBLIC AFFAIRS LLC*,Employer,30638,Growth Energy,22-Dec,1/5/2023,30635.0,Growth Energy,5000.0,0.0,5000.0,0.0,0.0,0.0,0.0,0.0,0.0,0.0,5000.0,30638.0,Direct,,,View report (https://accesshub.pdc.wa.gov/node/98824),Agriculture,Agriculture,House Senate All
120199,99002-31282,99002,FE,18074,Waypoint Consulting Group,Employer,31282,Washington State Opportunity Scholarship,22-Dec,1/5/2023,30931.0,Washington State Opportunity Scholarship,2000.0,0.0,2000.0,0.0,0.0,0.0,0.0,0.0,0.0,0.0,2000.0,31282.0,Direct,,,View report (https://accesshub.pdc.wa.gov/node/99002),Higher education,Higher Education,"Higher Ed, W&M, Approps, WSAC, PESB"
120200,93492-50205,93492,FE,28264,Randazzo LLC,Employer,50205,Snoqualmie Tribe,22-Jan,1/5/2023,31273.0,Snoqualmie Tribe,7000.0,0.0,7000.0,0.0,0.0,0.0,0.0,0.0,0.0,0.0,7000.0,50205.0,Direct,,,View report (https://accesshub.pdc.wa.gov/node/93492),Environmental Affairs - natural resources - parks,TFW,State DNR
120201,99036-50205,99036,FE,28264,Randazzo LLC,Employer,50205,Snoqualmie Tribe,22-Oct,1/5/2023,31273.0,Snoqualmie Tribe,4000.0,0.0,4000.0,0.0,0.0,0.0,0.0,0.0,0.0,0.0,4000.0,50205.0,Direct,,,View report (https://accesshub.pdc.wa.gov/node/99036),Environmental Affairs - natural resources - parks,Forterra/Grant Malfeasance,"all legislators, AG's office"
120202,99038-50205,99038,FE,28264,Randazzo LLC,Employer,50205,Snoqualmie Tribe,22-Nov,1/5/2023,31273.0,Snoqualmie Tribe,4000.0,0.0,4000.0,0.0,0.0,0.0,0.0,0.0,0.0,0.0,4000.0,50205.0,Direct,,,View report (https://accesshub.pdc.wa.gov/node/99038),Environmental Affairs - natural resources - parks,Forterra/Grant Malfeasance,"all legislators, AG's office"
120203,99041-50205,99041,FE,28264,Randazzo LLC,Employer,50205,Snoqualmie Tribe,22-Dec,1/5/2023,31273.0,Snoqualmie Tribe,4000.0,0.0,4000.0,0.0,0.0,0.0,0.0,0.0,0.0,0.0,4000.0,50205.0,Direct,,,View report (https://accesshub.pdc.wa.gov/node/99041),Environmental Affairs - natural resources - parks,Forterra/Grant Malfeasance,"all legislators, AG's office"
120204,98824-98449,98824,FE,17779,MCBRIDE PUBLIC AFFAIRS LLC*,Employer,98449,"Prime Therapeutics, LLC",22-Dec,1/5/2023,36475.0,"Prime Therapeutics, LLC",5000.0,0.0,5000.0,0.0,0.0,0.0,0.0,0.0,0.0,0.0,5000.0,98449.0,Direct,,,View report (https://accesshub.pdc.wa.gov/node/98824),Health Care,Health Care,House Senate All
120205,91317-61599,91317,FE,47356,Streuli Public Affairs,Employer,61599,City of Sedro-Woolley,22-Mar,1/5/2023,37314.0,City of Sedro-Woolley,2000.0,0.0,2000.0,0.0,0.0,0.0,0.0,0.0,0.0,0.0,2000.0,61599.0,Direct,,,View report (https://accesshub.pdc.wa.gov/node/91317),Local government,Transportation Budget,Various Legislative Policy and Fiscal Committees and State Agencies
120206,98140-81695,98140,FE,17688,James P Justin (Government Relations Consulting Inc.),Employer,81695,Cypress Creek Renewables,22-Nov,1/5/2023,42906.0,Cypress Creek Renewables,4000.0,-500.0,3500.0,0.0,0.0,0.0,0.0,0.0,0.0,0.0,3500.0,81695.0,Direct,,,View report (https://accesshub.pdc.wa.gov/node/98140),Energy and utilities,Solar Power,Gov's Office and Energy/Environment Leads in the House
120207,98140-90654,98140,FE,17688,James P Justin (Government Relations Consulting Inc.),Employer,90654,EarthGen,22-Nov,1/5/2023,47838.0,EarthGen,1500.0,-500.0,1000.0,0.0,0.0,0.0,0.0,0.0,0.0,0.0,1000.0,90654.0,Direct,,,View report (https://accesshub.pdc.wa.gov/node/98140),Environmental Affairs - natural resources - parks,Education on Climate issues,Energy and Environment Leg Leads
120208,99027-83322,99027,FE,83321,Elizabeth Stoll,Employer,83322,Baxter Healthcare Corporation c/o MultiState Associates LLC,22-Dec,1/5/2023,48754.0,Baxter Healthcare Corporation c/o MultiState Associates LLC,408.0,0.0,408.0,0.0,0.0,0.0,0.0,0.0,0.0,0.0,408.0,83322.0,Direct,,,View report (https://accesshub.pdc.wa.gov/node/99027),Health Care,Pharmacy Licensure Rule Making,Washington Board of Pharmacy
120209,98977-53488,98977,FE,17903,PRINCIPLED SOLUTIONS*,Employer,53488,"Bio Energy (Washington), LLC",22-Mar,1/5/2023,50171.0,"Bio Energy (Washington), LLC",3300.0,0.0,3300.0,0.0,0.0,0.0,0.0,0.0,0.0,0.0,3300.0,53488.0,Direct,,,View report (https://accesshub.pdc.wa.gov/node/98977),Environmental Affairs - natural resources - parks,Renewable Natural Gas Issues,Various
120210,98979-53488,98979,FE,17903,PRINCIPLED SOLUTIONS*,Employer,53488,"Bio Energy (Washington), LLC",22-Apr,1/5/2023,50171.0,"Bio Energy (Washington), LLC",3300.0,0.0,3300.0,0.0,0.0,0.0,0.0,0.0,0.0,0.0,3300.0,53488.0,Direct,,,View report (https://accesshub.pdc.wa.gov/node/98979),Environmental Affairs - natural resources - parks,Renewable Natural Gas Issues,Various
120211,98980-53488,98980,FE,17903,PRINCIPLED SOLUTIONS*,Employer,53488,"Bio Energy (Washington), LLC",22-May,1/5/2023,50171.0,"Bio Energy (Washington), LLC",3300.0,0.0,3300.0,0.0,0.0,0.0,0.0,0.0,0.0,0.0,3300.0,53488.0,Direct,,,View report (https://accesshub.pdc.wa.gov/node/98980),Environmental Affairs - natural resources - parks,Renewable Natural Gas Issues,Various
120212,98987-53488,98987,FE,17903,PRINCIPLED SOLUTIONS*,Employer,53488,"Bio Energy (Washington), LLC",22-Jun,1/5/2023,50171.0,"Bio Energy (Washington), LLC",3300.0,0.0,3300.0,0.0,0.0,0.0,0.0,0.0,0.0,0.0,3300.0,53488.0,Direct,,,View report (https://accesshub.pdc.wa.gov/node/98987),Environmental Affairs - natural resources - parks,Renewable Natural Gas Issues,Various
120213,98990-53488,98990,FE,17903,PRINCIPLED SOLUTIONS*,Employer,53488,"Bio Energy (Washington), LLC",22-Jul,1/5/2023,50171.0,"Bio Energy (Washington), LLC",3300.0,0.0,3300.0,0.0,0.0,0.0,0.0,0.0,0.0,0.0,3300.0,53488.0,Direct,,,View report (https://accesshub.pdc.wa.gov/node/98990),Environmental Affairs - natural resources - parks,Renewable Natural Gas Issues,Various
120214,98993-53488,98993,FE,17903,PRINCIPLED SOLUTIONS*,Employer,53488,"Bio Energy (Washington), LLC",22-Aug,1/5/2023,50171.0,"Bio Energy (Washington), LLC",3300.0,0.0,3300.0,0.0,0.0,0.0,0.0,0.0,0.0,0.0,3300.0,53488.0,Direct,,,View report (https://accesshub.pdc.wa.gov/node/98993),Environmental Affairs - natural resources - parks,Renewable Natural Gas Issues,Various
120215,98996-53488,98996,FE,17903,PRINCIPLED SOLUTIONS*,Employer,53488,"Bio Energy (Washington), LLC",22-Sep,1/5/2023,50171.0,"Bio Energy (Washington), LLC",3300.0,0.0,3300.0,0.0,0.0,0.0,0.0,0.0,0.0,0.0,3300.0,53488.0,Direct,,,View report (https://accesshub.pdc.wa.gov/node/98996),Environmental Affairs - natural resources - parks,Renewable Natural Gas Issues,Various
120216,98997-53488,98997,FE,17903,PRINCIPLED SOLUTIONS*,Employer,53488,"Bio Energy (Washington), LLC",22-Oct,1/5/2023,50171.0,"Bio Energy (Washington), LLC",3300.0,0.0,3300.0,0.0,0.0,0.0,0.0,0.0,0.0,0.0,3300.0,53488.0,Direct,,,View report (https://accesshub.pdc.wa.gov/node/98997),Environmental Affairs - natural resources - parks,Renewable Natural Gas Issues,Various
120217,98998-53488,98998,FE,17903,PRINCIPLED SOLUTIONS*,Employer,53488,"Bio Energy (Washington), LLC",22-Nov,1/5/2023,50171.0,"Bio Energy (Washington), LLC",3300.0,0.0,3300.0,0.0,0.0,0.0,0.0,0.0,0.0,0.0,3300.0,53488.0,Direct,,,View report (https://accesshub.pdc.wa.gov/node/98998),Environmental Affairs - natural resources - parks,Renewable Natural Gas Issues,Various
120218,98999-53488,98999,FE,17903,PRINCIPLED SOLUTIONS*,Employer,53488,"Bio Energy (Washington), LLC",22-Dec,1/5/2023,50171.0,"Bio Energy (Washington), LLC",3300.0,0.0,3300.0,0.0,0.0,0.0,0.0,0.0,0.0,0.0,3300.0,53488.0,Direct,,,View report (https://accesshub.pdc.wa.gov/node/98999),Environmental Affairs - natural resources - parks,Renewable Natural Gas Issues,Various
120219,98977-53489,98977,FE,17903,PRINCIPLED SOLUTIONS*,Employer,53489,Heritage Distilling Company,22-Mar,1/5/2023,50249.0,Heritage Distilling Company,1500.0,0.0,1500.0,0.0,0.0,0.0,0.0,0.0,0.0,0.0,1500.0,53489.0,Direct,,,View report (https://accesshub.pdc.wa.gov/node/98977),Business and consumer affairs,Distillery Issues,Various
120220,98979-53489,98979,FE,17903,PRINCIPLED SOLUTIONS*,Employer,53489,Heritage Distilling Company,22-Apr,1/5/2023,50249.0,Heritage Distilling Company,1500.0,0.0,1500.0,0.0,0.0,0.0,0.0,0.0,0.0,0.0,1500.0,53489.0,Direct,,,View report (https://accesshub.pdc.wa.gov/node/98979),Business and consumer affairs,Distillery Issues,Various
120221,98980-53489,98980,FE,17903,PRINCIPLED SOLUTIONS*,Employer,53489,Heritage Distilling Company,22-May,1/5/2023,50249.0,Heritage Distilling Company,1500.0,0.0,1500.0,0.0,0.0,0.0,0.0,0.0,0.0,0.0,1500.0,53489.0,Direct,,,View report (https://accesshub.pdc.wa.gov/node/98980),Business and consumer affairs,Distillery Issues,Various
120222,98987-53489,98987,FE,17903,PRINCIPLED SOLUTIONS*,Employer,53489,Heritage Distilling Company,22-Jun,1/5/2023,50249.0,Heritage Distilling Company,1500.0,0.0,1500.0,0.0,0.0,0.0,0.0,0.0,0.0,0.0,1500.0,53489.0,Direct,,,View report (https://accesshub.pdc.wa.gov/node/98987),Business and consumer affairs,Distillery Issues,Various
120223,98990-53489,98990,FE,17903,PRINCIPLED SOLUTIONS*,Employer,53489,Heritage Distilling Company,22-Jul,1/5/2023,50249.0,Heritage Distilling Company,1500.0,0.0,1500.0,0.0,0.0,0.0,0.0,0.0,0.0,0.0,1500.0,53489.0,Direct,,,View report (https://accesshub.pdc.wa.gov/node/98990),Business and consumer affairs,Distillery Issues,Various
120224,98993-53489,98993,FE,17903,PRINCIPLED SOLUTIONS*,Employer,53489,Heritage Distilling Company,22-Aug,1/5/2023,50249.0,Heritage Distilling Company,1500.0,0.0,1500.0,0.0,0.0,0.0,0.0,0.0,0.0,0.0,1500.0,53489.0,Direct,,,View report (https://accesshub.pdc.wa.gov/node/98993),Business and consumer affairs,Distillery Issues,Various
120225,98996-53489,98996,FE,17903,PRINCIPLED SOLUTIONS*,Employer,53489,Heritage Distilling Company,22-Sep,1/5/2023,50249.0,Heritage Distilling Company,1500.0,0.0,1500.0,0.0,0.0,0.0,0.0,0.0,0.0,0.0,1500.0,53489.0,Direct,,,View report (https://accesshub.pdc.wa.gov/node/98996),Business and consumer affairs,Distillery Issues,Various
120226,98997-53489,98997,FE,17903,PRINCIPLED SOLUTIONS*,Employer,53489,Heritage Distilling Company,22-Oct,1/5/2023,50249.0,Heritage Distilling Company,1500.0,0.0,1500.0,0.0,0.0,0.0,0.0,0.0,0.0,0.0,1500.0,53489.0,Direct,,,View report (https://accesshub.pdc.wa.gov/node/98997),Business and consumer affairs,Distillery Issues,Various
120227,98998-53489,98998,FE,17903,PRINCIPLED SOLUTIONS*,Employer,53489,Heritage Distilling Company,22-Nov,1/5/2023,50249.0,Heritage Distilling Company,1500.0,0.0,1500.0,0.0,0.0,0.0,0.0,0.0,0.0,0.0,1500.0,53489.0,Direct,,,View report (https://accesshub.pdc.wa.gov/node/98998),Business and consumer affairs,Distillery Issues,Various
120228,98999-53489,98999,FE,17903,PRINCIPLED SOLUTIONS*,Employer,53489,Heritage Distilling Company,22-Dec,1/5/2023,50249.0,Heritage Distilling Company,1500.0,0.0,1500.0,0.0,0.0,0.0,0.0,0.0,0.0,0.0,1500.0,53489.0,Direct,,,View report (https://accesshub.pdc.wa.gov/node/98999),Business and consumer affairs,Distillery Issues,Various
120236,91317-52519,91317,FE,47356,Streuli Public Affairs,Employer,52519,Northwest Resources II Inc,22-Mar,1/5/2023,52518.0,Northwest Resources II Inc,1000.0,0.0,1000.0,0.0,0.0,0.0,0.0,0.0,0.0,0.0,1000.0,52519.0,Direct,,,View report (https://accesshub.pdc.wa.gov/node/91317),Health Care,SUD Providers,Various Legislative Policy and Fiscal Committees and State Agencies
120237,98977-62796,98977,FE,17903,PRINCIPLED SOLUTIONS*,Employer,62796,SI Group Client Services,22-Mar,1/5/2023,53878.0,SI Group Client Services,4166.66,0.0,4166.66,0.0,0.0,0.0,0.0,0.0,0.0,0.0,4166.66,62796.0,Direct,,,View report (https://accesshub.pdc.wa.gov/node/98977),Health Care,Cigar Issues,Various
120238,98979-62796,98979,FE,17903,PRINCIPLED SOLUTIONS*,Employer,62796,SI Group Client Services,22-Apr,1/5/2023,53878.0,SI Group Client Services,4166.66,0.0,4166.66,0.0,0.0,0.0,0.0,0.0,0.0,0.0,4166.66,62796.0,Direct,,,View report (https://accesshub.pdc.wa.gov/node/98979),Health Care,Cigar Issues,Various
120239,98980-62796,98980,FE,17903,PRINCIPLED SOLUTIONS*,Employer,62796,SI Group Client Services,22-May,1/5/2023,53878.0,SI Group Client Services,4166.66,0.0,4166.66,0.0,0.0,0.0,0.0,0.0,0.0,0.0,4166.66,62796.0,Direct,,,View report (https://accesshub.pdc.wa.gov/node/98980),Health Care,Cigar Issues,Various
120240,98987-62796,98987,FE,17903,PRINCIPLED SOLUTIONS*,Employer,62796,SI Group Client Services,22-Jun,1/5/2023,53878.0,SI Group Client Services,4166.66,0.0,4166.66,0.0,0.0,0.0,0.0,0.0,0.0,0.0,4166.66,62796.0,Direct,,,View report (https://accesshub.pdc.wa.gov/node/98987),Health Care,Cigar Issues,Various
120241,98990-62796,98990,FE,17903,PRINCIPLED SOLUTIONS*,Employer,62796,SI Group Client Services,22-Jul,1/5/2023,53878.0,SI Group Client Services,4166.66,0.0,4166.66,0.0,0.0,0.0,0.0,0.0,0.0,0.0,4166.66,62796.0,Direct,,,View report (https://accesshub.pdc.wa.gov/node/98990),Health Care,Cigar Issues,Various
120242,98993-62796,98993,FE,17903,PRINCIPLED SOLUTIONS*,Employer,62796,SI Group Client Services,22-Aug,1/5/2023,53878.0,SI Group Client Services,4166.66,0.0,4166.66,0.0,0.0,0.0,0.0,0.0,0.0,0.0,4166.66,62796.0,Direct,,,View report (https://accesshub.pdc.wa.gov/node/98993),Health Care,Cigar Issues,Various
120243,98996-62796,98996,FE,17903,PRINCIPLED SOLUTIONS*,Employer,62796,SI Group Client Services,22-Sep,1/5/2023,53878.0,SI Group Client Services,4166.66,0.0,4166.66,0.0,0.0,0.0,0.0,0.0,0.0,0.0,4166.66,62796.0,Direct,,,View report (https://accesshub.pdc.wa.gov/node/98996),Health Care,Cigar Issues,Various
120244,98997-62796,98997,FE,17903,PRINCIPLED SOLUTIONS*,Employer,62796,SI Group Client Services,22-Oct,1/5/2023,53878.0,SI Group Client Services,4166.66,0.0,4166.66,0.0,0.0,0.0,0.0,0.0,0.0,0.0,4166.66,62796.0,Direct,,,View report (https://accesshub.pdc.wa.gov/node/98997),Health Care,Cigar Issues,Various
120245,98998-62796,98998,FE,17903,PRINCIPLED SOLUTIONS*,Employer,62796,SI Group Client Services,22-Nov,1/5/2023,53878.0,SI Group Client Services,4166.66,0.0,4166.66,0.0,0.0,0.0,0.0,0.0,0.0,0.0,4166.66,62796.0,Direct,,,View report (https://accesshub.pdc.wa.gov/node/98998),Health Care,Cigar Issues,Various
120246,98999-62796,98999,FE,17903,PRINCIPLED SOLUTIONS*,Employer,62796,SI Group Client Services,22-Dec,1/5/2023,53878.0,SI Group Client Services,4166.66,0.0,4166.66,0.0,0.0,0.0,0.0,0.0,0.0,0.0,4166.66,62796.0,Direct,,,View report (https://accesshub.pdc.wa.gov/node/98999),Health Care,Cigar Issues,Various
120247,97746-61726,97746,FE,17767,ROB MAKIN CONSULTING*,Employer,61726,Schweitzer Engineering Laboratories,22-Nov,1/5/2023,55691.0,Schweitzer Engineering Laboratories,4000.0,0.0,4000.0,0.0,0.0,0.0,0.0,0.0,0.0,0.0,4000.0,61726.0,Direct,,,View report (https://accesshub.pdc.wa.gov/node/97746),Health Care,Fiscal,"House Finance, Senate Ways & Means"
120248,98977-81512,98977,FE,17903,PRINCIPLED SOLUTIONS*,Employer,81512,Accenture LLP,22-Mar,1/5/2023,60622.0,Accenture LLP,4000.0,0.0,4000.0,0.0,0.0,0.0,0.0,0.0,0.0,0.0,4000.0,81512.0,Direct,,,View report (https://accesshub.pdc.wa.gov/node/98977),State government,General Business,Various
120249,98979-81512,98979,FE,17903,PRINCIPLED SOLUTIONS*,Employer,81512,Accenture LLP,22-Apr,1/5/2023,60622.0,Accenture LLP,4000.0,0.0,4000.0,0.0,0.0,0.0,0.0,0.0,0.0,0.0,4000.0,81512.0,Direct,,,View report (https://accesshub.pdc.wa.gov/node/98979),State government,General Business,Various
120250,98980-81512,98980,FE,17903,PRINCIPLED SOLUTIONS*,Employer,81512,Accenture LLP,22-May,1/5/2023,60622.0,Accenture LLP,4000.0,0.0,4000.0,0.0,0.0,0.0,0.0,0.0,0.0,0.0,4000.0,81512.0,Direct,,,View report (https://accesshub.pdc.wa.gov/node/98980),State government,General Business,Various
120251,98987-81512,98987,FE,17903,PRINCIPLED SOLUTIONS*,Employer,81512,Accenture LLP,22-Jun,1/5/2023,60622.0,Accenture LLP,4000.0,0.0,4000.0,0.0,0.0,0.0,0.0,0.0,0.0,0.0,4000.0,81512.0,Direct,,,View report (https://accesshub.pdc.wa.gov/node/98987),State government,General Business,Various
120252,98990-81512,98990,FE,17903,PRINCIPLED SOLUTIONS*,Employer,81512,Accenture LLP,22-Jul,1/5/2023,60622.0,Accenture LLP,4000.0,0.0,4000.0,0.0,0.0,0.0,0.0,0.0,0.0,0.0,4000.0,81512.0,Direct,,,View report (https://accesshub.pdc.wa.gov/node/98990),State government,General Business,Various
120253,98993-81512,98993,FE,17903,PRINCIPLED SOLUTIONS*,Employer,81512,Accenture LLP,22-Aug,1/5/2023,60622.0,Accenture LLP,4000.0,0.0,4000.0,0.0,0.0,0.0,0.0,0.0,0.0,0.0,4000.0,81512.0,Direct,,,View report (https://accesshub.pdc.wa.gov/node/98993),State government,General Business,Various
120254,98996-81512,98996,FE,17903,PRINCIPLED SOLUTIONS*,Employer,81512,Accenture LLP,22-Sep,1/5/2023,60622.0,Accenture LLP,4000.0,0.0,4000.0,0.0,0.0,0.0,0.0,0.0,0.0,0.0,4000.0,81512.0,Direct,,,View report (https://accesshub.pdc.wa.gov/node/98996),State government,General Business,Various
120255,98997-81512,98997,FE,17903,PRINCIPLED SOLUTIONS*,Employer,81512,Accenture LLP,22-Oct,1/5/2023,60622.0,Accenture LLP,4000.0,0.0,4000.0,0.0,0.0,0.0,0.0,0.0,0.0,0.0,4000.0,81512.0,Direct,,,View report (https://accesshub.pdc.wa.gov/node/98997),State government,General Business,Various
120256,98998-81512,98998,FE,17903,PRINCIPLED SOLUTIONS*,Employer,81512,Accenture LLP,22-Nov,1/5/2023,60622.0,Accenture LLP,4000.0,0.0,4000.0,0.0,0.0,0.0,0.0,0.0,0.0,0.0,4000.0,81512.0,Direct,,,View report (https://accesshub.pdc.wa.gov/node/98998),State government,General Business,Various
120257,98999-81512,98999,FE,17903,PRINCIPLED SOLUTIONS*,Employer,81512,Accenture LLP,22-Dec,1/5/2023,60622.0,Accenture LLP,4000.0,0.0,4000.0,0.0,0.0,0.0,0.0,0.0,0.0,0.0,4000.0,81512.0,Direct,,,View report (https://accesshub.pdc.wa.gov/node/98999),State government,General Business,Various
120258,99007-64586,99007,FE,17579,Melissa M Gombosky,Employer,64586,"Safelite Group, Inc.",22-Dec,1/5/2023,64584.0,"Safelite Group, Inc.",5000.0,0.0,5000.0,0.0,0.0,0.0,0.0,0.0,0.0,0.0,5000.0,64586.0,Direct,,,View report (https://accesshub.pdc.wa.gov/node/99007),Transportation,Transportation,S & H Transportation
120259,99007-68662,99007,FE,17579,Melissa M Gombosky,Employer,68662,Central Valley School District,22-Dec,1/5/2023,68661.0,Central Valley School District,3500.0,0.0,3500.0,0.0,0.0,0.0,0.0,0.0,0.0,0.0,3500.0,68662.0,Direct,,,View report (https://accesshub.pdc.wa.gov/node/99007),Education,Education Issues,Education Committees
120260,98824-75031,98824,FE,17779,MCBRIDE PUBLIC AFFAIRS LLC*,Employer,75031,NIC Inc.,22-Dec,1/5/2023,74785.0,NIC Inc.,5000.0,0.0,5000.0,0.0,0.0,0.0,0.0,0.0,0.0,0.0,5000.0,75031.0,Direct,,,View report (https://accesshub.pdc.wa.gov/node/98824),State government,State Government,"House Senate All DOL, ESD, HCA, DOH, DSHS, OCIO"
120261,98977-75755,98977,FE,17903,PRINCIPLED SOLUTIONS*,Employer,75755,"Dell Technologies Inc. c/o HVJT Consulting, LLC",22-Mar,1/5/2023,74775.0,"Dell Technologies Inc. c/o HVJT Consulting, LLC",5000.0,0.0,5000.0,0.0,0.0,0.0,0.0,0.0,0.0,0.0,5000.0,75755.0,Direct,,,View report (https://accesshub.pdc.wa.gov/node/98977),State government,Technology Issues,Various
120262,98979-75755,98979,FE,17903,PRINCIPLED SOLUTIONS*,Employer,75755,"Dell Technologies Inc. c/o HVJT Consulting, LLC",22-Apr,1/5/2023,74775.0,"Dell Technologies Inc. c/o HVJT Consulting, LLC",5000.0,0.0,5000.0,0.0,0.0,0.0,0.0,0.0,0.0,0.0,5000.0,75755.0,Direct,,,View report (https://accesshub.pdc.wa.gov/node/98979),State government,Technology Issues,Various
120263,98980-75755,98980,FE,17903,PRINCIPLED SOLUTIONS*,Employer,75755,"Dell Technologies Inc. c/o HVJT Consulting, LLC",22-May,1/5/2023,74775.0,"Dell Technologies Inc. c/o HVJT Consulting, LLC",5000.0,0.0,5000.0,0.0,0.0,0.0,0.0,0.0,0.0,0.0,5000.0,75755.0,Direct,,,View report (https://accesshub.pdc.wa.gov/node/98980),State government,Technology Issues,Various
120264,98987-75755,98987,FE,17903,PRINCIPLED SOLUTIONS*,Employer,75755,"Dell Technologies Inc. c/o HVJT Consulting, LLC",22-Jun,1/5/2023,74775.0,"Dell Technologies Inc. c/o HVJT Consulting, LLC",5000.0,0.0,5000.0,0.0,0.0,0.0,0.0,0.0,0.0,0.0,5000.0,75755.0,Direct,,,View report (https://accesshub.pdc.wa.gov/node/98987),State government,Technology Issues,Various
120265,98990-75755,98990,FE,17903,PRINCIPLED SOLUTIONS*,Employer,75755,"Dell Technologies Inc. c/o HVJT Consulting, LLC",22-Jul,1/5/2023,74775.0,"Dell Technologies Inc. c/o HVJT Consulting, LLC",5000.0,0.0,5000.0,0.0,0.0,0.0,0.0,0.0,0.0,0.0,5000.0,75755.0,Direct,,,View report (https://accesshub.pdc.wa.gov/node/98990),State government,Technology Issues,Various
120266,98993-75755,98993,FE,17903,PRINCIPLED SOLUTIONS*,Employer,75755,"Dell Technologies Inc. c/o HVJT Consulting, LLC",22-Aug,1/5/2023,74775.0,"Dell Technologies Inc. c/o HVJT Consulting, LLC",5000.0,0.0,5000.0,0.0,0.0,0.0,0.0,0.0,0.0,0.0,5000.0,75755.0,Direct,,,View report (https://accesshub.pdc.wa.gov/node/98993),State government,Technology Issues,Various
120267,98996-75755,98996,FE,17903,PRINCIPLED SOLUTIONS*,Employer,75755,"Dell Technologies Inc. c/o HVJT Consulting, LLC",22-Sep,1/5/2023,74775.0,"Dell Technologies Inc. c/o HVJT Consulting, LLC",5000.0,0.0,5000.0,0.0,0.0,0.0,0.0,0.0,0.0,0.0,5000.0,75755.0,Direct,,,View report (https://accesshub.pdc.wa.gov/node/98996),State government,Technology Issues,Various
120268,98997-75755,98997,FE,17903,PRINCIPLED SOLUTIONS*,Employer,75755,"Dell Technologies Inc. c/o HVJT Consulting, LLC",22-Oct,1/5/2023,74775.0,"Dell Technologies Inc. c/o HVJT Consulting, LLC",5000.0,0.0,5000.0,0.0,0.0,0.0,0.0,0.0,0.0,0.0,5000.0,75755.0,Direct,,,View report (https://accesshub.pdc.wa.gov/node/98997),State government,Technology Issues,Various
120269,98998-75755,98998,FE,17903,PRINCIPLED SOLUTIONS*,Employer,75755,"Dell Technologies Inc. c/o HVJT Consulting, LLC",22-Nov,1/5/2023,74775.0,"Dell Technologies Inc. c/o HVJT Consulting, LLC",5000.0,0.0,5000.0,0.0,0.0,0.0,0.0,0.0,0.0,0.0,5000.0,75755.0,Direct,,,View report (https://accesshub.pdc.wa.gov/node/98998),State government,Technology Issues,Various
120270,98999-75755,98999,FE,17903,PRINCIPLED SOLUTIONS*,Employer,75755,"Dell Technologies Inc. c/o HVJT Consulting, LLC",22-Dec,1/5/2023,74775.0,"Dell Technologies Inc. c/o HVJT Consulting, LLC",5000.0,0.0,5000.0,0.0,0.0,0.0,0.0,0.0,0.0,0.0,5000.0,75755.0,Direct,,,View report (https://accesshub.pdc.wa.gov/node/98999),State government,Technology Issues,Various
120271,98824-80296,98824,FE,17779,MCBRIDE PUBLIC AFFAIRS LLC*,Employer,80296,"Horizon Therapeutics USA, Inc.",22-Dec,1/5/2023,80293.0,"Horizon Therapeutics USA, Inc.",5000.0,0.0,5000.0,0.0,0.0,0.0,0.0,0.0,0.0,0.0,5000.0,80296.0,Direct,,,View report (https://accesshub.pdc.wa.gov/node/98824),Business and consumer affairs,Business & Consumer Affairs,House Senate All
120272,98824-81253,98824,FE,17779,MCBRIDE PUBLIC AFFAIRS LLC*,Employer,81253,S. C. Johnson & Son,22-Dec,1/5/2023,81208.0,S. C. Johnson & Son,5000.0,0.0,5000.0,0.0,0.0,0.0,0.0,0.0,0.0,0.0,5000.0,81253.0,Direct,,,View report (https://accesshub.pdc.wa.gov/node/98824),Environmental Affairs - natural resources - parks,Environment,House Senate All
120273,99003-81915,99003,FE,46174,"Washington Government Relations, LLC",Employer,81915,Tacoma-Pierce County Association of Realtors,22-Dec,1/5/2023,81911.0,Tacoma-Pierce County Association of Realtors,3400.0,0.0,3400.0,0.0,0.0,0.0,0.0,0.0,0.0,0.0,3400.0,81915.0,Direct,,,View report (https://accesshub.pdc.wa.gov/node/99003),Business and consumer affairs,Landlord / Tenant,"Senate Housing & Local Government Committee, House Housing, Human Services & Veterans Committee"
120275,98980-84473,98980,FE,17903,PRINCIPLED SOLUTIONS*,Employer,84473,"Fortinet, Inc.",22-May,1/5/2023,84472.0,"Fortinet, Inc.",4500.0,0.0,4500.0,0.0,0.0,0.0,0.0,0.0,0.0,0.0,4500.0,84473.0,Direct,,,View report (https://accesshub.pdc.wa.gov/node/98980),State government,Various,Various
120276,98977-84473,98977,FE,17903,PRINCIPLED SOLUTIONS*,Employer,84473,"Fortinet, Inc.",22-Mar,1/5/2023,84472.0,"Fortinet, Inc.",4500.0,0.0,4500.0,0.0,0.0,0.0,0.0,0.0,0.0,0.0,4500.0,84473.0,Direct,,,View report (https://accesshub.pdc.wa.gov/node/98977),State government,Various,Various
120277,98979-84473,98979,FE,17903,PRINCIPLED SOLUTIONS*,Employer,84473,"Fortinet, Inc.",22-Apr,1/5/2023,84472.0,"Fortinet, Inc.",4500.0,0.0,4500.0,0.0,0.0,0.0,0.0,0.0,0.0,0.0,4500.0,84473.0,Direct,,,View report (https://accesshub.pdc.wa.gov/node/98979),State government,Various,Various
120278,98987-84473,98987,FE,17903,PRINCIPLED SOLUTIONS*,Employer,84473,"Fortinet, Inc.",22-Jun,1/5/2023,84472.0,"Fortinet, Inc.",4500.0,0.0,4500.0,0.0,0.0,0.0,0.0,0.0,0.0,0.0,4500.0,84473.0,Direct,,,View report (https://accesshub.pdc.wa.gov/node/98987),State government,Various,Various
120279,98990-84473,98990,FE,17903,PRINCIPLED SOLUTIONS*,Employer,84473,"Fortinet, Inc.",22-Jul,1/5/2023,84472.0,"Fortinet, Inc.",4500.0,0.0,4500.0,0.0,0.0,0.0,0.0,0.0,0.0,0.0,4500.0,84473.0,Direct,,,View report (https://accesshub.pdc.wa.gov/node/98990),State government,Various,Various
120280,98993-84473,98993,FE,17903,PRINCIPLED SOLUTIONS*,Employer,84473,"Fortinet, Inc.",22-Aug,1/5/2023,84472.0,"Fortinet, Inc.",4500.0,0.0,4500.0,0.0,0.0,0.0,0.0,0.0,0.0,0.0,4500.0,84473.0,Direct,,,View report (https://accesshub.pdc.wa.gov/node/98993),State government,Various,Various
120281,98996-84473,98996,FE,17903,PRINCIPLED SOLUTIONS*,Employer,84473,"Fortinet, Inc.",22-Sep,1/5/2023,84472.0,"Fortinet, Inc.",4500.0,0.0,4500.0,0.0,0.0,0.0,0.0,0.0,0.0,0.0,4500.0,84473.0,Direct,,,View report (https://accesshub.pdc.wa.gov/node/98996),State government,Various,Various
120282,98997-84473,98997,FE,17903,PRINCIPLED SOLUTIONS*,Employer,84473,"Fortinet, Inc.",22-Oct,1/5/2023,84472.0,"Fortinet, Inc.",4500.0,0.0,4500.0,0.0,0.0,0.0,0.0,0.0,0.0,0.0,4500.0,84473.0,Direct,,,View report (https://accesshub.pdc.wa.gov/node/98997),State government,Various,Various
120283,98999-84473,98999,FE,17903,PRINCIPLED SOLUTIONS*,Employer,84473,"Fortinet, Inc.",22-Dec,1/5/2023,84472.0,"Fortinet, Inc.",4500.0,0.0,4500.0,0.0,0.0,0.0,0.0,0.0,0.0,0.0,4500.0,84473.0,Direct,,,View report (https://accesshub.pdc.wa.gov/node/98999),State government,Various,Various
120284,91317-85539,91317,FE,47356,Streuli Public Affairs,Employer,85539,Olympic Ambulance,22-Mar,1/5/2023,85538.0,Olympic Ambulance,4970.0,0.0,4970.0,0.0,0.0,0.0,0.0,0.0,0.0,0.0,4970.0,85539.0,Direct,,,View report (https://accesshub.pdc.wa.gov/node/91317),Health Care,Ambulance Service,Various Legislative Policy and Fiscal Committees and State Agencies
120285,99007-86535,99007,FE,17579,Melissa M Gombosky,Employer,86535,CTIA - The Wireless Assocation (JEFFREY S GOMBOSKY),22-Dec,1/5/2023,86382.0,CTIA - The Wireless Assocation,1000.0,0.0,1000.0,0.0,0.0,0.0,0.0,0.0,0.0,0.0,1000.0,86535.0,Subcontract,17578.0,JEFFREY S GOMBOSKY,View report (https://accesshub.pdc.wa.gov/node/99007),,,
120286,98824-87226,98824,FE,17779,MCBRIDE PUBLIC AFFAIRS LLC*,Employer,87226,Organon LLC,22-Dec,1/5/2023,87223.0,Organon LLC,5000.0,0.0,5000.0,0.0,0.0,0.0,0.0,0.0,0.0,0.0,5000.0,87226.0,Direct,,,View report (https://accesshub.pdc.wa.gov/node/98824),Health Care,Women's Health Care,"DOH, DSHS, HCA"
120287,98140-92440,98140,FE,17688,James P Justin (Government Relations Consulting Inc.),Employer,92440,Fred Hutchinson Cancer Center,22-Nov,1/5/2023,91771.0,Fred Hutchinson Cancer Center,2875.0,0.0,2875.0,0.0,0.0,0.0,0.0,0.0,0.0,0.0,2875.0,92440.0,Direct,,,View report (https://accesshub.pdc.wa.gov/node/98140),Health Care,Fiscal Health of Hospitals,Gov's Office and Health Care Committee members in both chambers
120288,99007-95107,99007,FE,17579,Melissa M Gombosky,Employer,95107,The Baseball Club of Tacoma,22-Dec,1/5/2023,95106.0,The Baseball Club of Tacoma,6500.0,0.0,6500.0,0.0,0.0,0.0,0.0,0.0,0.0,0.0,6500.0,95107.0,Direct,,,View report (https://accesshub.pdc.wa.gov/node/99007),Local government,Stadium funding,All House All Senate
120289,99002-96353,99002,FE,18074,Waypoint Consulting Group,Employer,96353,Andrea Lee Wang,22-Dec,1/5/2023,96352.0,Andrea Lee Wang,5000.0,0.0,5000.0,0.0,0.0,0.0,0.0,0.0,0.0,0.0,5000.0,96353.0,Direct,,,View report (https://accesshub.pdc.wa.gov/node/99002),Business and consumer affairs,Crane safety,All House Senate
120290,98824-96893,98824,FE,17779,MCBRIDE PUBLIC AFFAIRS LLC*,Employer,96893,Albemarle Corporation,22-Dec,1/5/2023,96892.0,Albemarle Corporation,8000.0,0.0,8000.0,0.0,0.0,0.0,0.0,0.0,0.0,0.0,8000.0,96893.0,Direct,,,View report (https://accesshub.pdc.wa.gov/node/98824),Business and consumer affairs,Business & Consumer Affairs,"House, Senate All, Dept. of Ecology"
120291,99007-97675,99007,FE,17579,Melissa M Gombosky,Employer,97675,"Ardon Health, LLC",22-Dec,1/5/2023,97670.0,"Ardon Health, LLC",4000.0,0.0,4000.0,0.0,0.0,0.0,0.0,0.0,0.0,0.0,4000.0,97675.0,Direct,,,View report (https://accesshub.pdc.wa.gov/node/99007),,,
120292,99003-98366,99003,FE,46174,"Washington Government Relations, LLC",Employer,98366,"CR Hanna Midtown Communities, LLC",22-Dec,1/5/2023,98327.0,"CR Hanna Midtown Communities, LLC",2500.0,0.0,2500.0,0.0,0.0,0.0,0.0,0.0,0.0,0.0,2500.0,98366.0,Direct,,,View report (https://accesshub.pdc.wa.gov/node/99003),,,
120293,99065-51880,99065,FE,51878,Leah Rutman,Employer,51880,AMERICAN CIVIL LIBERTIES UNION OF WA,22-Sep,1/6/2023,16097.0,AMERICAN CIVIL LIBERTIES UNION OF WA,305.2,0.0,305.2,0.0,0.0,0.0,0.0,0.0,0.0,0.0,305.2,51880.0,Direct,,,View report (https://accesshub.pdc.wa.gov/node/99065),Health Care,health care,"Senate and House members, state health agencies"
120294,99066-51880,99066,FE,51878,Leah Rutman,Employer,51880,AMERICAN CIVIL LIBERTIES UNION OF WA,22-Oct,1/6/2023,16097.0,AMERICAN CIVIL LIBERTIES UNION OF WA,527.17,0.0,527.17,0.0,0.0,0.0,0.0,0.0,0.0,0.0,527.17,51880.0,Direct,,,View report (https://accesshub.pdc.wa.gov/node/99066),Health Care,Health Care,"Senate and House, Health care agencies"
120295,99057-84585,99057,FE,84584,Lauren Adler,Employer,84585,"Elevance Health, and its Affiliates",22-Dec,1/6/2023,16107.0,"Elevance Health, and its Affiliates",2000.0,0.0,2000.0,0.0,0.0,0.0,0.0,0.0,0.0,0.0,2000.0,84585.0,Direct,,,View report (https://accesshub.pdc.wa.gov/node/99057),Health Care,General Health Care Issues,Washington Health Care Authority
120296,99035-19172,99035,FE,17767,ROB MAKIN CONSULTING*,Employer,19172,BOEHRINGER INGELHEIM PHARMACEUTICALS INC,22-Dec,1/6/2023,16199.0,BOEHRINGER INGELHEIM PHARMACEUTICALS INC,3000.0,0.0,3000.0,0.0,0.0,0.0,0.0,0.0,0.0,0.0,3000.0,19172.0,Direct,,,View report (https://accesshub.pdc.wa.gov/node/99035),Health Care,Health Care,Senate and House Health Care
120297,97042-74601,97042,FE,17825,CAREY L MORRIS,Employer,74601,BUILDING CHANGES,22-Oct,1/6/2023,16214.0,BUILDING CHANGES,2475.0,0.0,2475.0,0.0,0.0,0.0,0.0,0.0,0.0,0.0,2475.0,74601.0,Direct,,,View report (https://accesshub.pdc.wa.gov/node/97042),Education,Students Experiencing Homelessness,"OSPI, DCYF, Commerce, fiscal committees, housing issues, health care"
120298,99071-74601,99071,FE,17825,CAREY L MORRIS,Employer,74601,BUILDING CHANGES,22-Nov,1/6/2023,16214.0,BUILDING CHANGES,2475.0,0.0,2475.0,0.0,0.0,0.0,0.0,0.0,0.0,0.0,2475.0,74601.0,Direct,,,View report (https://accesshub.pdc.wa.gov/node/99071),Education,Students Experiencing Homelessness,"OSPI, DCYF, Commerce, fiscal committees, housing issues, health care"
120299,99072-74601,99072,FE,17825,CAREY L MORRIS,Employer,74601,BUILDING CHANGES,22-Dec,1/6/2023,16214.0,BUILDING CHANGES,2475.0,0.0,2475.0,0.0,0.0,0.0,0.0,0.0,0.0,0.0,2475.0,74601.0,Direct,,,View report (https://accesshub.pdc.wa.gov/node/99072),Education,Students Experiencing Homelessness,"OSPI, DCYF, Commerce, fiscal committees, housing issues, health care"
120300,99082-70293,99082,FE,17587,JON GOULD,Employer,70293,CHILDHAVEN,22-Dec,1/6/2023,16257.0,CHILDHAVEN,1000.0,0.0,1000.0,0.0,0.0,0.0,0.0,0.0,0.0,0.0,1000.0,70293.0,Direct,,,View report (https://accesshub.pdc.wa.gov/node/99082),Human services,multiple health and human service,"multiple house and senate committees and Dept of Children, Youth, Families"
120301,99083-97625,99083,FE,97624,Fernanda Martinez Novoa,Employer,97625,CHILDHAVEN,22-Dec,1/6/2023,16257.0,CHILDHAVEN,500.0,0.0,500.0,0.0,0.0,0.0,0.0,0.0,0.0,0.0,500.0,97625.0,Direct,,,View report (https://accesshub.pdc.wa.gov/node/99083),Human services,multiple issues,"members of the legislature and the WA state department of children, youth and families"
120302,99035-19174,99035,FE,17767,ROB MAKIN CONSULTING*,Employer,19174,DELOITTE CONSULTING LLP,22-Dec,1/6/2023,16384.0,DELOITTE CONSULTING LLP,3750.0,0.0,3750.0,0.0,137.48,0.0,0.0,0.0,0.0,137.48,3887.48,19174.0,Direct,,,View report (https://accesshub.pdc.wa.gov/node/99035),Technology,Technology,House and Senate Technology
120303,97870-19290,97870,FE,17813,MILLENNIA PUBLIC AFFAIRS INC*,Employer,19290,DISH Network Corporation,22-Dec,1/6/2023,16390.0,DISH Network Corporation,3000.0,0.0,3000.0,0.0,0.0,0.0,0.0,0.0,0.0,0.0,3000.0,19290.0,Direct,,,View report (https://accesshub.pdc.wa.gov/node/97870),Business and consumer affairs,BUSINESS AND CONSUMER AFFAIRS,BUSINESS AND CONSUMER AFFAIRS
120304,99091-38874,99091,FE,38873,Aaron Czyzewski,Employer,38874,FOOD LIFELINE,22-Nov,1/6/2023,16448.0,FOOD LIFELINE,6575.0,0.0,6575.0,0.0,0.0,0.0,0.0,0.0,0.0,0.0,6575.0,38874.0,Direct,,,View report (https://accesshub.pdc.wa.gov/node/99091),Fiscal,Governor's budget,OFM
120306,99035-83082,99035,FE,17767,ROB MAKIN CONSULTING*,Employer,83082,HEALTHCARE DISTRIBUTION ALLIANCE c/o MultiState Associates Inc,22-Dec,1/6/2023,16496.0,HEALTHCARE DISTRIBUTION ALLIANCE c/o MultiState Associates Inc,2750.0,0.0,2750.0,0.0,0.0,0.0,0.0,0.0,0.0,0.0,2750.0,83082.0,Direct,,,View report (https://accesshub.pdc.wa.gov/node/99035),Fiscal,Health Care & Fiscal,"Health Care, Fiscal"
120307,97042-19321,97042,FE,17825,CAREY L MORRIS,Employer,19321,LEAGUE OF EDUCATION VOTERS,22-Oct,1/6/2023,16589.0,LEAGUE OF EDUCATION VOTERS,4000.0,0.0,4000.0,0.0,0.0,0.0,0.0,0.0,0.0,0.0,4000.0,19321.0,Direct,,,View report (https://accesshub.pdc.wa.gov/node/97042),,,
120308,99071-19321,99071,FE,17825,CAREY L MORRIS,Employer,19321,LEAGUE OF EDUCATION VOTERS,22-Nov,1/6/2023,16589.0,LEAGUE OF EDUCATION VOTERS,4000.0,0.0,4000.0,0.0,0.0,0.0,0.0,0.0,0.0,0.0,4000.0,19321.0,Direct,,,View report (https://accesshub.pdc.wa.gov/node/99071),,,
120309,99072-19321,99072,FE,17825,CAREY L MORRIS,Employer,19321,LEAGUE OF EDUCATION VOTERS,22-Dec,1/6/2023,16589.0,LEAGUE OF EDUCATION VOTERS,4000.0,0.0,4000.0,0.0,0.0,0.0,0.0,0.0,0.0,0.0,4000.0,19321.0,Direct,,,View report (https://accesshub.pdc.wa.gov/node/99072),,,
