,id,report_number,origin,filer_id,filer_name,type,funding_source_id,funding_source_name,filing_period,receipt_date,employer_id,employer_name,compensation,sub_lobbyist_compensation,net_compensation,personal_expenses,entertainment,contributions,advertising,political_ads,other,total_expenses,net_total,employment_registration_id,employment_type,contractor_id,contractor_name,url,legislation_subject_matter,issue_bill_number,committee_lobbied
10000,106910-97627,106910,FE,17830,ABBY G MOORE,Employer,97627,WA INDEPENDENT TELECOMMUNICATIONS ASSN,23-Jun,7/23/2023,17138,WA INDEPENDENT TELECOMMUNICATIONS ASSN,5500.0,0.0,5500.0,0.0,0.0,0.0,0.0,0.0,0.0,0.0,5500.0,97627,Direct,,,View report (https://accesshub.pdc.wa.gov/node/106910),,,
10001,105680-29099,105680,FE,17830,ABBY G MOORE,Employer,29099,Association for Accessible Medicines,23-May,7/23/2023,29098,Association for Accessible Medicines,10000.0,0.0,10000.0,0.0,0.0,0.0,0.0,0.0,0.0,0.0,10000.0,29099,Direct,,,View report (https://accesshub.pdc.wa.gov/node/105680),,,
10002,106910-29099,106910,FE,17830,ABBY G MOORE,Employer,29099,Association for Accessible Medicines,23-Jun,7/23/2023,29098,Association for Accessible Medicines,5000.0,0.0,5000.0,0.0,0.0,0.0,0.0,0.0,0.0,0.0,5000.0,29099,Direct,,,View report (https://accesshub.pdc.wa.gov/node/106910),,,
10003,105680-99749,105680,FE,17830,ABBY G MOORE,Employer,99749,"GM Cruise, LLC",23-May,7/23/2023,38509,"GM Cruise, LLC",7000.0,0.0,7000.0,0.0,0.0,0.0,0.0,0.0,0.0,0.0,7000.0,99749,Direct,,,View report (https://accesshub.pdc.wa.gov/node/105680),Transportation,SB 5594,House and Senate Transportation Committees
10004,106910-99749,106910,FE,17830,ABBY G MOORE,Employer,99749,"GM Cruise, LLC",23-Jun,7/23/2023,38509,"GM Cruise, LLC",7000.0,0.0,7000.0,0.0,0.0,0.0,0.0,0.0,0.0,0.0,7000.0,99749,Direct,,,View report (https://accesshub.pdc.wa.gov/node/106910),Transportation,SB 5594,House and Senate Transportation Committees
10005,105680-42257,105680,FE,17830,ABBY G MOORE,Employer,42257,Wireless Infrastructure Association (thru MultiState Associates LLC),23-May,7/23/2023,41737,Wireless Infrastructure Association (thru MultiState Associates LLC),7000.0,0.0,7000.0,0.0,0.0,0.0,0.0,0.0,0.0,0.0,7000.0,42257,Direct,,,View report (https://accesshub.pdc.wa.gov/node/105680),Technology,broadband deployment,Department of Commerce/ Energy and Environment Committee
10006,106910-42257,106910,FE,17830,ABBY G MOORE,Employer,42257,Wireless Infrastructure Association (thru MultiState Associates LLC),23-Jun,7/23/2023,41737,Wireless Infrastructure Association (thru MultiState Associates LLC),7000.0,0.0,7000.0,0.0,0.0,0.0,0.0,0.0,0.0,0.0,7000.0,42257,Direct,,,View report (https://accesshub.pdc.wa.gov/node/106910),Technology,broadband deployment,Department of Commerce/ Energy and Environment Committee
10007,105680-46715,105680,FE,17830,ABBY G MOORE,Employer,46715,Public Libraries of Washington,23-May,7/23/2023,46248,Public Libraries of Washington,2500.0,0.0,2500.0,0.0,0.0,0.0,0.0,0.0,0.0,0.0,2500.0,46715,Direct,,,View report (https://accesshub.pdc.wa.gov/node/105680),,,
10008,106910-46715,106910,FE,17830,ABBY G MOORE,Employer,46715,Public Libraries of Washington,23-Jun,7/23/2023,46248,Public Libraries of Washington,2500.0,0.0,2500.0,0.0,0.0,0.0,0.0,0.0,0.0,0.0,2500.0,46715,Direct,,,View report (https://accesshub.pdc.wa.gov/node/106910),,,
10009,105680-102472,105680,FE,17830,ABBY G MOORE,Employer,102472,Recology,23-May,7/23/2023,57981,Recology,5000.0,0.0,5000.0,0.0,0.0,0.0,0.0,0.0,0.0,0.0,5000.0,102472,Direct,,,View report (https://accesshub.pdc.wa.gov/node/105680),,,
10010,106910-102472,106910,FE,17830,ABBY G MOORE,Employer,102472,Recology,23-Jun,7/23/2023,57981,Recology,5000.0,0.0,5000.0,0.0,0.0,0.0,0.0,0.0,0.0,0.0,5000.0,102472,Direct,,,View report (https://accesshub.pdc.wa.gov/node/106910),,,
10011,105680-71171,105680,FE,17830,ABBY G MOORE,Employer,71171,EMD Serono c/o MultiState Associates LLC,23-May,7/23/2023,71082,EMD Serono c/o MultiState Associates LLC,4583.33,0.0,4583.33,0.0,0.0,0.0,0.0,0.0,0.0,0.0,4583.33,71171,Direct,,,View report (https://accesshub.pdc.wa.gov/node/105680),Health Care,1151/5204,OIC/Health Care Committees
10012,106910-71171,106910,FE,17830,ABBY G MOORE,Employer,71171,EMD Serono c/o MultiState Associates LLC,23-Jun,7/23/2023,71082,EMD Serono c/o MultiState Associates LLC,4583.33,0.0,4583.33,0.0,0.0,0.0,0.0,0.0,0.0,0.0,4583.33,71171,Direct,,,View report (https://accesshub.pdc.wa.gov/node/106910),Health Care,1151/5204,OIC/Health Care Committees
10013,105680-102481,105680,FE,17830,ABBY G MOORE,Employer,102481,Pacific Association for Medical Equipment Services (PAMES) thru MultiState Associates LLC,23-May,7/23/2023,102469,Pacific Association for Medical Equipment Services (PAMES) thru MultiState Associates LLC,5666.66,0.0,5666.66,0.0,0.0,0.0,0.0,0.0,0.0,0.0,5666.66,102481,Direct,,,View report (https://accesshub.pdc.wa.gov/node/105680),,,
10014,107039-84292,107039,FE,17693,Water Street Public Affairs LLC,Employer,84292,AMAZON.COM SERVICES LLC,23-Jun,7/24/2023,16088,AMAZON.COM SERVICES LLC,2500.0,0.0,2500.0,0.0,0.0,0.0,0.0,0.0,0.0,0.0,2500.0,84292,Direct,,,View report (https://accesshub.pdc.wa.gov/node/107039),Energy and utilities,"Climate Policy, Sustainable Aviation Fuels, Medium and Heavy Duty ZEV Trucks","Environment, Energy & Technology (S); Environment & Energy (H); Transportation (H & S)"
10016,107039-26056,107039,FE,17693,Water Street Public Affairs LLC,Employer,26056,BENTON PUD,23-Jun,7/24/2023,16188,BENTON PUD,6500.0,0.0,6500.0,0.0,0.0,0.0,0.0,0.0,0.0,0.0,6500.0,26056,Direct,,,View report (https://accesshub.pdc.wa.gov/node/107039),Energy and utilities,"Wildfire mitigation, utility disconnections, Clean Energy Transformation Act","Environment, Energy & Technology (S); Environment & Energy (H); Dept. Commerce"
10017,106770-86500,106770,FE,86499,Christopher Finarelli,Employer,86500,Household and Commercial Products Assn,23-Jun,7/24/2023,16361,Household and Commercial Products Assn,500.0,0.0,500.0,0.0,0.0,0.0,0.0,0.0,0.0,0.0,500.0,86500,Direct,,,View report (https://accesshub.pdc.wa.gov/node/106770),Environmental Affairs - natural resources - parks,postconsumer recycled content,Department of Ecology
10018,107039-25369,107039,FE,17693,Water Street Public Affairs LLC,Employer,25369,FRANKLIN CO PUBLIC UTILITY DIST,23-Jun,7/24/2023,16454,FRANKLIN CO PUBLIC UTILITY DIST,3500.0,0.0,3500.0,0.0,0.0,0.0,0.0,0.0,0.0,0.0,3500.0,25369,Direct,,,View report (https://accesshub.pdc.wa.gov/node/107039),Energy and utilities,"Wildfire mitigation, utility disconnections, Clean Energy Transformation Act, Material supply chains","Environment, Energy & Technology (S); Environment & Energy (H); Dept. Commerce"
10019,107040-85791,107040,FE,50941,Lake City Consulting Services LLC,Employer,85791,"TOWING AND RECOVERY ASSN OF WA (Public Affairs Consulting, LLC)",23-May,7/24/2023,17205,TOWING AND RECOVERY ASSN OF WA,1594.0,0.0,1594.0,0.0,0.0,0.0,0.0,0.0,0.0,0.0,1594.0,85791,Subcontract,17358.0,"Public Affairs Consulting, LLC",View report (https://accesshub.pdc.wa.gov/node/107040),,,
10020,107041-85791,107041,FE,50941,Lake City Consulting Services LLC,Employer,85791,"TOWING AND RECOVERY ASSN OF WA (Public Affairs Consulting, LLC)",23-Jun,7/24/2023,17205,TOWING AND RECOVERY ASSN OF WA,1594.0,0.0,1594.0,0.0,0.0,0.0,0.0,0.0,0.0,0.0,1594.0,85791,Subcontract,17358.0,"Public Affairs Consulting, LLC",View report (https://accesshub.pdc.wa.gov/node/107041),,,
10022,107039-61670,107039,FE,17693,Water Street Public Affairs LLC,Employer,61670,"Prime Therapeutics, LLC",23-Jun,7/24/2023,36475,"Prime Therapeutics, LLC",4000.0,0.0,4000.0,0.0,0.0,0.0,0.0,0.0,0.0,0.0,4000.0,61670,Direct,,,View report (https://accesshub.pdc.wa.gov/node/107039),Health Care,Pharmacy Benefit Managers,Health Care & Wellness (H); Health Care & Long Term Care (S)
10023,107039-59225,107039,FE,17693,Water Street Public Affairs LLC,Employer,59225,WaBA dba Clean and Prosperous WA,23-Jun,7/24/2023,50980,WaBA dba Clean and Prosperous WA,10000.0,0.0,10000.0,0.0,0.0,0.0,0.0,0.0,0.0,0.0,10000.0,59225,Direct,,,View report (https://accesshub.pdc.wa.gov/node/107039),Energy and utilities,Cap & Invest; Climate Policy; Medium and Heavy Duty ZEV Trucks,"Environment, Energy & Technology (S); Environment & Energy (H); Transportation (H & S); Office of the Governor"
10024,107039-63454,107039,FE,17693,Water Street Public Affairs LLC,Employer,63454,Yakima Basin Joint Board,23-Jun,7/24/2023,51434,Yakima Basin Joint Board,4000.0,0.0,4000.0,0.0,0.0,0.0,0.0,0.0,0.0,0.0,4000.0,63454,Direct,,,View report (https://accesshub.pdc.wa.gov/node/107039),Environmental Affairs - natural resources - parks,"Yakima Basin Integrated Plan Appropriations, Trust Water Rights","Capital Budget (H); Ways & Means (S); Ag & Natural Resources (H); Ag Water & Natural Resources (S); Agriculture and Natural Resources (S), Department of Ecology"
10025,107038-71668,107038,FE,33757,Guillermo Rogel,Employer,71668,Front and Centered,23-May,7/24/2023,66260,Front and Centered,1096.15,0.0,1096.15,0.0,0.0,0.0,0.0,0.0,0.0,0.0,1096.15,71668,Direct,,,View report (https://accesshub.pdc.wa.gov/node/107038),Environmental Affairs - natural resources - parks,"Environmental justice, climate change policy, energy policy, transportation policy, land-use planning, , transportation, Working Families Tax Credit","WA House of Representative, WA State Senate, Department of Health, Commerce, Ecology, Transportation, Natural Resources, Senate Committee on Transportation, House Committee on Transportation, Senate Ways and Means, House Appropriations, Environment"
10027,107039-96994,107039,FE,17693,Water Street Public Affairs LLC,Employer,96994,Myno Carbon Corp.,23-Jun,7/24/2023,96984,Myno Carbon Corp.,3500.0,0.0,3500.0,0.0,0.0,0.0,0.0,0.0,0.0,0.0,3500.0,96994,Direct,,,View report (https://accesshub.pdc.wa.gov/node/107039),Energy and utilities,"Climate Policy, Clean Energy Fund, Sustainable Farms and Fields, Carbon Removal","Environment, Energy & Technology (S); Environment & Energy (H); Agriculture, Water, Natural Resources & Parks (S); Agriculture and Natural Resources (H); Department of Natural Resources; Department of Commerce"
10028,107046-61635,107046,FE,61629,Hannah Woerner,Employer,61635,COLUMBIA LEGAL SERVICES,23-Jan,7/25/2023,16338,COLUMBIA LEGAL SERVICES,520.32,0.0,520.32,0.0,0.0,0.0,0.0,0.0,0.0,0.0,520.32,61635,Direct,,,View report (https://accesshub.pdc.wa.gov/node/107046),Law and justice,HB 1169,Rep. Goodman; Rep. Simmons; House Civil Rights & Judiciary; Sen Rolfes
10029,107037-99975,107037,FE,99293,Lauren McCloy,Employer,99975,NORTHWEST ENERGY COALITION,23-Jan,7/25/2023,16700,NORTHWEST ENERGY COALITION,461.52,0.0,461.52,0.0,0.0,0.0,0.0,0.0,0.0,0.0,461.52,99975,Direct,,,View report (https://accesshub.pdc.wa.gov/node/107037),Energy and utilities,siting transmission climate policy,"Senate Environment, Energy & Technology Committee and House Environment & Energy Committee and Governor's office"
10030,107043-99975,107043,FE,99293,Lauren McCloy,Employer,99975,NORTHWEST ENERGY COALITION,23-Feb,7/25/2023,16700,NORTHWEST ENERGY COALITION,653.82,0.0,653.82,0.0,0.0,0.0,0.0,0.0,0.0,0.0,653.82,99975,Direct,,,View report (https://accesshub.pdc.wa.gov/node/107043),Energy and utilities,"siting, transmission, climate policy","Senate Energy, Environment & Technology Committee, House Energy & Environment Committee, Governor's office, Utilities and Transportation Commission"
10031,107044-99975,107044,FE,99293,Lauren McCloy,Employer,99975,NORTHWEST ENERGY COALITION,23-Mar,7/25/2023,16700,NORTHWEST ENERGY COALITION,769.2,0.0,769.2,0.0,0.0,0.0,0.0,0.0,0.0,0.0,769.2,99975,Direct,,,View report (https://accesshub.pdc.wa.gov/node/107044),Energy and utilities,"siting, transmission, climate policy","Senate Energy, Environment & Technology Committee, House Energy & Environment Committee, Governor's office, Utilities and Transportation Commission"
10032,106806-19901,106806,FE,18096,BRUCE WISHART,Employer,19901,PUGET SOUND KEEPER ALLIANCE,23-Jun,7/25/2023,16829,PUGET SOUND KEEPER ALLIANCE,1500.0,0.0,1500.0,0.0,0.0,0.0,0.0,0.0,0.0,0.0,1500.0,19901,Direct,,,View report (https://accesshub.pdc.wa.gov/node/106806),Environmental Affairs - natural resources - parks,water quality issues,Department of Ecology
10033,106835-19901,106835,FE,18096,BRUCE WISHART,Employer,19901,PUGET SOUND KEEPER ALLIANCE,23-Jul,7/25/2023,16829,PUGET SOUND KEEPER ALLIANCE,1500.0,0.0,1500.0,0.0,0.0,0.0,0.0,0.0,0.0,0.0,1500.0,19901,Direct,,,View report (https://accesshub.pdc.wa.gov/node/106835),Environmental Affairs - natural resources - parks,water quality and solid waste /recycling,"Department of Ecology, Department of Natural Resources"
10034,106806-19902,106806,FE,18096,BRUCE WISHART,Employer,19902,Sierra Club,23-Jun,7/25/2023,16915,Sierra Club,1600.0,0.0,1600.0,0.0,0.0,0.0,0.0,0.0,0.0,0.0,1600.0,19902,Direct,,,View report (https://accesshub.pdc.wa.gov/node/106806),Environmental Affairs - natural resources - parks,"Water Resources, Salmon protection","Department of Fish and Wildlife, Department of Ecology"
10035,106835-19902,106835,FE,18096,BRUCE WISHART,Employer,19902,Sierra Club,23-Jul,7/25/2023,16915,Sierra Club,1600.0,0.0,1600.0,0.0,0.0,0.0,0.0,0.0,0.0,0.0,1600.0,19902,Direct,,,View report (https://accesshub.pdc.wa.gov/node/106835),Environmental Affairs - natural resources - parks,"Water Resources, Salmon protection",Department of Ecology
10036,107049-97742,107049,FE,97741,Daniel Goodman,Employer,97742,WA ST ASSN FOR JUSTICE,23-Jun,7/26/2023,17289,WA ST ASSN FOR JUSTICE,7333.33,0.0,7333.33,0.0,0.0,0.0,0.0,0.0,0.0,0.0,7333.33,97742,Direct,,,View report (https://accesshub.pdc.wa.gov/node/107049),Labor,Labor,Labor and Commerce Senate Committee
10037,107057-19127,107057,FE,17739,JUSTIN D LEIGHTON,Employer,19127,WA ST TRANSIT ASSN,23-Jan,7/27/2023,17288,WA ST TRANSIT ASSN,1400.0,0.0,1400.0,0.0,0.0,0.0,0.0,0.0,0.0,0.0,1400.0,19127,Direct,,,View report (https://accesshub.pdc.wa.gov/node/107057),,,
10038,107058-19127,107058,FE,17739,JUSTIN D LEIGHTON,Employer,19127,WA ST TRANSIT ASSN,23-Feb,7/27/2023,17288,WA ST TRANSIT ASSN,1400.0,0.0,1400.0,0.0,0.0,0.0,0.0,0.0,0.0,0.0,1400.0,19127,Direct,,,View report (https://accesshub.pdc.wa.gov/node/107058),,,
10039,107059-19127,107059,FE,17739,JUSTIN D LEIGHTON,Employer,19127,WA ST TRANSIT ASSN,23-Mar,7/27/2023,17288,WA ST TRANSIT ASSN,1400.0,0.0,1400.0,0.0,0.0,0.0,0.0,0.0,0.0,0.0,1400.0,19127,Direct,,,View report (https://accesshub.pdc.wa.gov/node/107059),,,
10040,107060-19127,107060,FE,17739,JUSTIN D LEIGHTON,Employer,19127,WA ST TRANSIT ASSN,23-Apr,7/27/2023,17288,WA ST TRANSIT ASSN,1400.0,0.0,1400.0,0.0,0.0,0.0,0.0,0.0,0.0,0.0,1400.0,19127,Direct,,,View report (https://accesshub.pdc.wa.gov/node/107060),,,
10041,107061-19127,107061,FE,17739,JUSTIN D LEIGHTON,Employer,19127,WA ST TRANSIT ASSN,23-May,7/27/2023,17288,WA ST TRANSIT ASSN,1400.0,0.0,1400.0,0.0,0.0,0.0,0.0,0.0,0.0,0.0,1400.0,19127,Direct,,,View report (https://accesshub.pdc.wa.gov/node/107061),,,
10042,107062-19127,107062,FE,17739,JUSTIN D LEIGHTON,Employer,19127,WA ST TRANSIT ASSN,21-Dec,7/27/2023,17288,WA ST TRANSIT ASSN,1400.0,0.0,1400.0,0.0,0.0,0.0,0.0,0.0,0.0,0.0,1400.0,19127,Direct,,,View report (https://accesshub.pdc.wa.gov/node/107062),,,
10043,107063-19127,107063,FE,17739,JUSTIN D LEIGHTON,Employer,19127,WA ST TRANSIT ASSN,23-Jun,7/27/2023,17288,WA ST TRANSIT ASSN,1400.0,0.0,1400.0,0.0,0.0,0.0,0.0,0.0,0.0,0.0,1400.0,19127,Direct,,,View report (https://accesshub.pdc.wa.gov/node/107063),,,
10044,107064-19127,107064,FE,17739,JUSTIN D LEIGHTON,Employer,19127,WA ST TRANSIT ASSN,23-Jul,7/27/2023,17288,WA ST TRANSIT ASSN,1400.0,0.0,1400.0,0.0,0.0,0.0,0.0,0.0,0.0,0.0,1400.0,19127,Direct,,,View report (https://accesshub.pdc.wa.gov/node/107064),,,
10045,107065-18236,107065,FE,17379,ERICA D HALLOCK,Employer,18236,EMPIRE HEALTH FOUNDATION,23-Jul,7/28/2023,16413,EMPIRE HEALTH FOUNDATION,500.0,0.0,500.0,0.0,0.0,0.0,0.0,0.0,0.0,0.0,500.0,18236,Direct,,,View report (https://accesshub.pdc.wa.gov/node/107065),Human services,Housing,"House Appropriations, Senate Ways and Means, OFM, DCYF, Governor's Office"
10046,107065-61436,107065,FE,17379,ERICA D HALLOCK,Employer,61436,Start Early,23-Jul,7/28/2023,61435,Start Early,500.0,0.0,500.0,0.0,0.0,0.0,0.0,0.0,0.0,0.0,500.0,61436,Direct,,,View report (https://accesshub.pdc.wa.gov/node/107065),Human services,early learning/home visiting,"House Appropriations, Senate Ways and Means, OFM, DCYF"
10047,107065-86047,107065,FE,17379,ERICA D HALLOCK,Employer,86047,Better Health Togehter,23-Jul,7/28/2023,86046,Better Health Togehter,500.0,0.0,500.0,0.0,0.0,0.0,0.0,0.0,0.0,0.0,500.0,86047,Direct,,,View report (https://accesshub.pdc.wa.gov/node/107065),Human services,Accountable Communities of Health,"House Appropriations, Senate Ways and Means, OFM, DCYF"
10048,107065-97053,107065,FE,17379,ERICA D HALLOCK,Employer,97053,Family Impact Network,23-Jul,7/28/2023,97048,Family Impact Network,500.0,0.0,500.0,0.0,0.0,0.0,0.0,0.0,0.0,0.0,500.0,97053,Direct,,,View report (https://accesshub.pdc.wa.gov/node/107065),Human services,"child welfare, HB 1227 implementation","House Appropriations, Senate Ways and Means, OFM, DCYF"
10049,107071-19863,107071,FE,18074,Waypoint Consulting Group,Employer,19863,CLIMATE SOLUTIONS,23-Jul,7/30/2023,16327,CLIMATE SOLUTIONS,5500.0,0.0,5500.0,0.0,0.0,0.0,0.0,0.0,0.0,0.0,5500.0,19863,Direct,,,View report (https://accesshub.pdc.wa.gov/node/107071),Environmental Affairs - natural resources - parks,Enviroment,"Environment, Transportation, TED, WEE, DOE, Finance"
10050,107071-19864,107071,FE,18074,Waypoint Consulting Group,Employer,19864,JOINT COUNCIL OF TEAMSTERS #28,23-Jul,7/30/2023,16564,JOINT COUNCIL OF TEAMSTERS #28,6250.0,0.0,6250.0,0.0,0.0,0.0,0.0,0.0,0.0,0.0,6250.0,19864,Direct,,,View report (https://accesshub.pdc.wa.gov/node/107071),Labor,Labor,"Labor & Commerce, W&M, Approps, Finance, Education"
10051,107071-19865,107071,FE,18074,Waypoint Consulting Group,Employer,19865,NON-PROFIT INSURANCE PROGRAM,23-Jul,7/30/2023,16691,NON-PROFIT INSURANCE PROGRAM,2500.0,0.0,2500.0,0.0,0.0,0.0,0.0,0.0,0.0,0.0,2500.0,19865,Direct,,,View report (https://accesshub.pdc.wa.gov/node/107071),Financial institutions and insurance,Insurance Pools,"BFS, FII, DES"
10052,107071-19866,107071,FE,18074,Waypoint Consulting Group,Employer,19866,Puget Sound Pilots,23-Jul,7/30/2023,16831,Puget Sound Pilots,6250.0,0.0,6250.0,0.0,0.0,0.0,0.0,0.0,0.0,0.0,6250.0,19866,Direct,,,View report (https://accesshub.pdc.wa.gov/node/107071),Transportation,Maritime transporation,"Environment, TED, BOPC, OFM"
10053,107071-19868,107071,FE,18074,Waypoint Consulting Group,Employer,19868,STATEWIDE POVERTY ACTION NETWORK,23-Jul,7/30/2023,16952,STATEWIDE POVERTY ACTION NETWORK,4000.0,0.0,4000.0,0.0,0.0,0.0,0.0,0.0,0.0,0.0,4000.0,19868,Direct,,,View report (https://accesshub.pdc.wa.gov/node/107071),Business and consumer affairs,Consumer Protection,"BFS, FII,GGIT, DFI,AGO, Judiciary"
10054,107071-47938,107071,FE,18074,Waypoint Consulting Group,Employer,47938,Delta Dental of WA,23-Jul,7/30/2023,17096,Delta Dental of WA,8000.0,0.0,8000.0,0.0,0.0,0.0,0.0,0.0,0.0,0.0,8000.0,47938,Direct,,,View report (https://accesshub.pdc.wa.gov/node/107071),Health Care,Health Care,Health Care
10055,107071-19870,107071,FE,18074,Waypoint Consulting Group,Employer,19870,WA WILDLIFE & RECREATION COALITION ACTION FUND,23-Jul,7/30/2023,17213,WA WILDLIFE & RECREATION COALITION ACTION FUND,4600.0,0.0,4600.0,0.0,0.0,0.0,0.0,0.0,0.0,0.0,4600.0,19870,Direct,,,View report (https://accesshub.pdc.wa.gov/node/107071),Environmental Affairs - natural resources - parks,Capital Budget,"Capital Budget, W&M, Nat Res, RCO, WDFW, DNR, State Parks"
10056,107071-48137,107071,FE,18074,Waypoint Consulting Group,Employer,48137,Cedar Grove,23-Jul,7/30/2023,28124,Cedar Grove,7000.0,0.0,7000.0,0.0,0.0,0.0,0.0,0.0,0.0,0.0,7000.0,48137,Direct,,,View report (https://accesshub.pdc.wa.gov/node/107071),Environmental Affairs - natural resources - parks,Enviroment / Business,Environment
10057,107071-31282,107071,FE,18074,Waypoint Consulting Group,Employer,31282,Washington State Opportunity Scholarship,23-Jul,7/30/2023,30931,Washington State Opportunity Scholarship,2000.0,0.0,2000.0,0.0,0.0,0.0,0.0,0.0,0.0,0.0,2000.0,31282,Direct,,,View report (https://accesshub.pdc.wa.gov/node/107071),Higher education,Higher Education,"Higher Ed, W&M, Approps, WSAC, PESB"
10058,107071-96353,107071,FE,18074,Waypoint Consulting Group,Employer,96353,Andrea Lee Wang,23-Jul,7/30/2023,96352,Andrea Lee Wang,5000.0,0.0,5000.0,0.0,0.0,0.0,0.0,0.0,0.0,0.0,5000.0,96353,Direct,,,View report (https://accesshub.pdc.wa.gov/node/107071),Business and consumer affairs,Crane safety,All House Senate
10059,107074-99947,107074,FE,97726,Veronica Vanslyke,Employer,99947,AMERICAN FAMILY MUTUAL INSURANCE,23-Jul,7/31/2023,16103,AMERICAN FAMILY MUTUAL INSURANCE,12500.0,0.0,12500.0,0.0,0.0,0.0,0.0,0.0,0.0,0.0,12500.0,99947,Direct,,,View report (https://accesshub.pdc.wa.gov/node/107074),Business and consumer affairs,Insurance,"House & Senate Committees on Insurance, Office of the Insurance Commissioner"
10060,107081-46893,107081,FE,17372,BRUCE K BECKETT,Employer,46893,AMERICAN FOREST RESOURCE CNCL,23-Jul,7/31/2023,16105,AMERICAN FOREST RESOURCE CNCL,3600.0,0.0,3600.0,0.0,0.0,0.0,0.0,0.0,0.0,0.0,3600.0,46893,Direct,,,View report (https://accesshub.pdc.wa.gov/node/107081),Environmental Affairs - natural resources - parks,DNR Sustainable Harvest;,Board of Natural Resources; House/Senate Capital Budget and Natural Resource Members
10061,107084-100092,107084,FE,17479,ROMAN M DANIELS-BROWN,Employer,100092,ASSN OF DENTAL SUPPORT ORGANIZATIONS,23-Jul,7/31/2023,16153,ASSN OF DENTAL SUPPORT ORGANIZATIONS,2500.0,0.0,2500.0,0.0,0.0,0.0,0.0,0.0,0.0,0.0,2500.0,100092,Direct,,,View report (https://accesshub.pdc.wa.gov/node/107084),Health Care,Dental Care,Health Care Committee
10062,106631-27763,106631,FE,17553,JESSICA FORTESCUE,Employer,27763,ASSN of WA Housing Authorities,23-Jun,7/31/2023,16155,ASSN of WA Housing Authorities,1600.0,0.0,1600.0,0.0,0.0,0.0,0.0,0.0,0.0,0.0,1600.0,27763,Direct,,,View report (https://accesshub.pdc.wa.gov/node/106631),Human services,"Housing, local government","Housing, Local Government, fiscal"
10063,106631-20012,106631,FE,17553,JESSICA FORTESCUE,Employer,20012,BRISTOL-MYERS SQUIBB CO (PIERCE CONSULTING SVCS LLC*),23-Jun,7/31/2023,16208,BRISTOL-MYERS SQUIBB CO,412.96,0.0,412.96,0.0,0.0,0.0,0.0,0.0,0.0,0.0,412.96,20012,Subcontract,17597.0,PIERCE CONSULTING SVCS LLC*,View report (https://accesshub.pdc.wa.gov/node/106631),,,
10064,107084-72966,107084,FE,17479,ROMAN M DANIELS-BROWN,Employer,72966,AMERICAN CANCER SOCIETY CANCER ACTION NETWORK,23-Jul,7/31/2023,16221,AMERICAN CANCER SOCIETY CANCER ACTION NETWORK,2208.33,0.0,2208.33,0.0,0.0,0.0,0.0,0.0,0.0,0.0,2208.33,72966,Direct,,,View report (https://accesshub.pdc.wa.gov/node/107084),Health Care,Biomarker Testing,"Health Care, Budget"
10065,107084-18529,107084,FE,17479,ROMAN M DANIELS-BROWN,Employer,18529,DaVita Inc.,23-Jul,7/31/2023,16380,DaVita Inc.,6000.0,0.0,6000.0,0.0,0.0,0.0,0.0,0.0,0.0,0.0,6000.0,18529,Direct,,,View report (https://accesshub.pdc.wa.gov/node/107084),Health Care,Health Care,Health Care
10066,106631-19975,106631,FE,17553,JESSICA FORTESCUE,Employer,19975,RUSSELL INVESTMENT GROUP (PIERCE CONSULTING SVCS LLC*),23-Jun,7/31/2023,16456,RUSSELL INVESTMENT GROUP,495.55,0.0,495.55,0.0,0.0,0.0,0.0,0.0,0.0,0.0,495.55,19975,Subcontract,17597.0,PIERCE CONSULTING SVCS LLC*,View report (https://accesshub.pdc.wa.gov/node/106631),,,
10067,106631-84678,106631,FE,17553,JESSICA FORTESCUE,Employer,84678,HEALTHCARE DISTRIBUTION ALLIANCE c/o MultiState Associates Inc (PIERCE CONSULTING SVCS LLC*),23-Jun,7/31/2023,16496,HEALTHCARE DISTRIBUTION ALLIANCE c/o MultiState Associates Inc,454.26,0.0,454.26,0.0,0.0,0.0,0.0,0.0,0.0,0.0,454.26,84678,Subcontract,17597.0,PIERCE CONSULTING SVCS LLC*,View report (https://accesshub.pdc.wa.gov/node/106631),,,
10068,106631-70206,106631,FE,17553,JESSICA FORTESCUE,Employer,70206,MICROSOFT CORP,23-Jun,7/31/2023,16636,MICROSOFT CORP,3750.0,0.0,3750.0,0.0,0.0,0.0,0.0,0.0,0.0,0.0,3750.0,70206,Direct,,,View report (https://accesshub.pdc.wa.gov/node/106631),Technology,Technology,"Governor's office, ESD, LegTech, OSPI"
10070,107084-95208,107084,FE,17479,ROMAN M DANIELS-BROWN,Employer,95208,NORTHWEST MARINE TRADE ASSN,23-Jul,7/31/2023,16714,NORTHWEST MARINE TRADE ASSN,5000.0,0.0,5000.0,525.0,0.0,0.0,0.0,0.0,0.0,525.0,5525.0,95208,Direct,,,View report (https://accesshub.pdc.wa.gov/node/107084),Environmental Affairs - natural resources - parks,Recreational Boating,"Environmental, business, taxes, budget"
10071,107084-18531,107084,FE,17479,ROMAN M DANIELS-BROWN,Employer,18531,"Novartis Services, Inc.",23-Jul,7/31/2023,16725,"Novartis Services, Inc.",4583.33,0.0,4583.33,0.0,0.0,0.0,0.0,0.0,0.0,0.0,4583.33,18531,Direct,,,View report (https://accesshub.pdc.wa.gov/node/107084),Health Care,pharmaceuticals,health care
10072,106631-83396,106631,FE,17553,JESSICA FORTESCUE,Employer,83396,PFIZER INC,23-Jun,7/31/2023,16774,PFIZER INC,4500.0,0.0,4500.0,0.0,0.0,0.0,0.0,0.0,0.0,0.0,4500.0,83396,Direct,,,View report (https://accesshub.pdc.wa.gov/node/106631),Health Care,Health care,Health care
10073,107081-27140,107081,FE,17372,BRUCE K BECKETT,Employer,27140,PORT OF MOSES LAKE,23-Jul,7/31/2023,16802,PORT OF MOSES LAKE,3500.0,0.0,3500.0,0.0,0.0,0.0,0.0,0.0,0.0,0.0,3500.0,27140,Direct,,,View report (https://accesshub.pdc.wa.gov/node/107081),Transportation,"Aviation; Economic Development, Tax Increment Financing",House/Senate Fiscal Committees; House/Senate Transportation Committees
10074,107084-39257,107084,FE,17479,ROMAN M DANIELS-BROWN,Employer,39257,Astria Health,23-Jul,7/31/2023,16957,Astria Health,6000.0,0.0,6000.0,25.0,0.0,0.0,0.0,0.0,0.0,25.0,6025.0,39257,Direct,,,View report (https://accesshub.pdc.wa.gov/node/107084),Health Care,Health care,Health care
10075,107084-18534,107084,FE,17479,ROMAN M DANIELS-BROWN,Employer,18534,TAKEDA PHARMACEUTICALS,23-Jul,7/31/2023,16970,TAKEDA PHARMACEUTICALS,5000.0,0.0,5000.0,0.0,0.0,0.0,0.0,0.0,0.0,0.0,5000.0,18534,Direct,,,View report (https://accesshub.pdc.wa.gov/node/107084),Health Care,Health Care,Health Care
10076,107084-73251,107084,FE,17479,ROMAN M DANIELS-BROWN,Employer,73251,WA AMBULATORY SURGERY CENTER ASSN,23-Jul,7/31/2023,17060,WA AMBULATORY SURGERY CENTER ASSN,4000.0,0.0,4000.0,0.0,0.0,0.0,0.0,0.0,0.0,0.0,4000.0,73251,Direct,,,View report (https://accesshub.pdc.wa.gov/node/107084),Health Care,Health Care,Health Care Committee
10077,106631-71915,106631,FE,17553,JESSICA FORTESCUE,Employer,71915,WA CHARTERS ACTION,23-Jun,7/31/2023,17071,WA CHARTERS ACTION,4000.0,0.0,4000.0,0.0,0.0,0.0,0.0,0.0,0.0,0.0,4000.0,71915,Direct,,,View report (https://accesshub.pdc.wa.gov/node/106631),Education,Education,"Education, fiscal"
10078,106631-20010,106631,FE,17553,JESSICA FORTESCUE,Employer,20010,Delta Dental of WA (PIERCE CONSULTING SVCS LLC*),23-Jun,7/31/2023,17096,Delta Dental of WA,495.55,0.0,495.55,0.0,0.0,0.0,0.0,0.0,0.0,0.0,495.55,20010,Subcontract,17597.0,PIERCE CONSULTING SVCS LLC*,View report (https://accesshub.pdc.wa.gov/node/106631),,,
10079,106631-19986,106631,FE,17553,JESSICA FORTESCUE,Employer,19986,WA FOREST PROTECTION ASSN (PIERCE CONSULTING SVCS LLC*),23-Jun,7/31/2023,17120,WA FOREST PROTECTION ASSN,330.37,0.0,330.37,0.0,0.0,0.0,0.0,0.0,0.0,0.0,330.37,19986,Subcontract,17597.0,PIERCE CONSULTING SVCS LLC*,View report (https://accesshub.pdc.wa.gov/node/106631),,,
10080,106631-27760,106631,FE,17553,JESSICA FORTESCUE,Employer,27760,Washington Mortgage Bankers Association,23-Jun,7/31/2023,17147,Washington Mortgage Bankers Association,2500.0,0.0,2500.0,0.0,0.0,0.0,0.0,0.0,0.0,0.0,2500.0,27760,Direct,,,View report (https://accesshub.pdc.wa.gov/node/106631),Financial institutions and insurance,"Banking, Housing","Fiscal, DFI, DOR"
10081,106631-19949,106631,FE,17553,JESSICA FORTESCUE,Employer,19949,WA ROUNDTABLE (PIERCE CONSULTING SVCS LLC*),23-Jun,7/31/2023,17178,WA ROUNDTABLE,359.28,0.0,359.28,0.0,0.0,0.0,0.0,0.0,0.0,0.0,359.28,19949,Subcontract,17597.0,PIERCE CONSULTING SVCS LLC*,View report (https://accesshub.pdc.wa.gov/node/106631),,,
10082,107081-38993,107081,FE,17372,BRUCE K BECKETT,Employer,38993,WA RETAIL ASSN,23-Jul,7/31/2023,17180,WA RETAIL ASSN,4800.0,0.0,4800.0,0.0,0.0,0.0,0.0,0.0,0.0,0.0,4800.0,38993,Direct,,,View report (https://accesshub.pdc.wa.gov/node/107081),Labor,"Employment Law Issues, UI, Return t Work HB 1137; SB 5368","House/Senate Labor Committees; Dept. of Labor and Industries; ESD, Unemployment Insurance Advisory Committee,"
10083,106631-95940,106631,FE,17553,JESSICA FORTESCUE,Employer,95940,WA REFUSE & RECYCLING ASSN,23-Jun,7/31/2023,17185,WA REFUSE & RECYCLING ASSN,4500.0,0.0,4500.0,0.0,0.0,0.0,0.0,0.0,0.0,0.0,4500.0,95940,Direct,,,View report (https://accesshub.pdc.wa.gov/node/106631),Environmental Affairs - natural resources - parks,Battery stewardship; EPR,"Environment, local government"
10084,107084-26046,107084,FE,17479,ROMAN M DANIELS-BROWN,Employer,26046,"U.S. Anesthesia Partners, Inc.",23-Jul,7/31/2023,26042,"U.S. Anesthesia Partners, Inc.",6000.0,0.0,6000.0,25.0,0.0,0.0,0.0,0.0,0.0,25.0,6025.0,26046,Direct,,,View report (https://accesshub.pdc.wa.gov/node/107084),Health Care,Health Care,Health Care
10085,107075-82677,107075,FE,70469,Johns-Brown Governmental Relations,Employer,82677,Quaker Voice on Washington Public Policy,23-Jul,7/31/2023,27328,Quaker Voice on Washington Public Policy,750.0,0.0,750.0,0.0,0.0,0.0,0.0,0.0,0.0,0.0,750.0,82677,Direct,,,View report (https://accesshub.pdc.wa.gov/node/107075),,,
10086,107081-29456,107081,FE,17372,BRUCE K BECKETT,Employer,29456,Wenatchee Valley Chamber of Commerce,23-Jul,7/31/2023,28448,Wenatchee Valley Chamber of Commerce,3750.0,0.0,3750.0,0.0,0.0,0.0,0.0,0.0,0.0,0.0,3750.0,29456,Direct,,,View report (https://accesshub.pdc.wa.gov/node/107081),State government,"Housing, wildfire; homeless",12th District legislators; House/Senate Housing; Tourism funding
10087,106631-35643,106631,FE,17553,JESSICA FORTESCUE,Employer,35643,Washington State Opportunity Scholarship (PIERCE CONSULTING SVCS LLC*),23-Jun,7/31/2023,30931,Washington State Opportunity Scholarship,330.37,0.0,330.37,0.0,0.0,0.0,0.0,0.0,0.0,0.0,330.37,35643,Subcontract,17597.0,PIERCE CONSULTING SVCS LLC*,View report (https://accesshub.pdc.wa.gov/node/106631),,,
10088,107081-32598,107081,FE,17372,BRUCE K BECKETT,Employer,32598,Port of Port Angeles,23-Jul,7/31/2023,32592,Port of Port Angeles,4000.0,0.0,4000.0,122.4,0.0,0.0,0.0,0.0,0.0,122.4,4122.4,32598,Direct,,,View report (https://accesshub.pdc.wa.gov/node/107081),Environmental Affairs - natural resources - parks,Stormwater; DNR Timber Supply,Dept. of Ecology; Dept of Archeology and Historic Preservation; DNR
10089,107081-93536,107081,FE,17372,BRUCE K BECKETT,Employer,93536,PUD No. 1 of Douglas County,23-Jul,7/31/2023,50686,PUD No. 1 of Douglas County,4800.0,0.0,4800.0,408.29,0.0,0.0,0.0,0.0,0.0,408.29,5208.29,93536,Direct,,,View report (https://accesshub.pdc.wa.gov/node/107081),Energy and utilities,CCA Implementation; Heat Shutoff; Hatcheries; Transportation;,House/Senate Energy Committees; 7th District Legislators ; Dept. of Ecology
10090,107075-94737,107075,FE,70469,Johns-Brown Governmental Relations,Employer,94737,HCFA-WA,23-Jul,7/31/2023,52891,HCFA-WA,3000.0,0.0,3000.0,0.0,0.0,0.0,0.0,0.0,0.0,0.0,3000.0,94737,Direct,,,View report (https://accesshub.pdc.wa.gov/node/107075),,,
10091,107084-61371,107084,FE,17479,ROMAN M DANIELS-BROWN,Employer,61371,Life Flight Network,23-Jul,7/31/2023,54375,Life Flight Network,4666.0,0.0,4666.0,25.0,0.0,0.0,0.0,0.0,0.0,25.0,4691.0,61371,Direct,,,View report (https://accesshub.pdc.wa.gov/node/107084),Health Care,Health Care,Health Care Committee
10092,107084-55789,107084,FE,17479,ROMAN M DANIELS-BROWN,Employer,55789,Confluence Health,23-Jul,7/31/2023,55787,Confluence Health,6000.0,0.0,6000.0,25.0,0.0,0.0,0.0,0.0,0.0,25.0,6025.0,55789,Direct,,,View report (https://accesshub.pdc.wa.gov/node/107084),Health Care,Health Care,Health Care Committee/Fiscal Committees
10093,107084-96792,107084,FE,17479,ROMAN M DANIELS-BROWN,Employer,96792,"Lucid USA, Inc",23-Jul,7/31/2023,69407,"Lucid USA, Inc",5500.0,0.0,5500.0,0.0,0.0,0.0,0.0,0.0,0.0,0.0,5500.0,96792,Direct,,,View report (https://accesshub.pdc.wa.gov/node/107084),Transportation,Direct Sales,"Consumer Protection & Business, Transportation, Environment, Labor & Commerce"
10094,106631-71332,106631,FE,17553,JESSICA FORTESCUE,Employer,71332,Mary's Place (PIERCE CONSULTING SVCS LLC*),23-Jun,7/31/2023,71253,Mary's Place,1250.0,0.0,1250.0,0.0,0.0,0.0,0.0,0.0,0.0,0.0,1250.0,71332,Subcontract,17597.0,PIERCE CONSULTING SVCS LLC*,View report (https://accesshub.pdc.wa.gov/node/106631),,,
10095,107081-87238,107081,FE,17372,BRUCE K BECKETT,Employer,87238,Port of Olympia,23-Jul,7/31/2023,74038,Port of Olympia,3500.0,0.0,3500.0,0.0,0.0,0.0,0.0,0.0,0.0,0.0,3500.0,87238,Direct,,,View report (https://accesshub.pdc.wa.gov/node/107081),Environmental Affairs - natural resources - parks,Budd Inlet/Deschutes Estuary; Port Immunity,Dept of Commerce; Dept of Ecology
10096,106631-83744,106631,FE,17553,JESSICA FORTESCUE,Employer,83744,Football Northwest LLC (PIERCE CONSULTING SVCS LLC*),23-Jun,7/31/2023,82450,Football Northwest LLC,371.66,0.0,371.66,0.0,0.0,0.0,0.0,0.0,0.0,0.0,371.66,83744,Subcontract,17597.0,PIERCE CONSULTING SVCS LLC*,View report (https://accesshub.pdc.wa.gov/node/106631),,,
10097,107075-84763,107075,FE,70469,Johns-Brown Governmental Relations,Employer,84763,Innovations Human Trafficking Collaborative,23-Jul,7/31/2023,84627,Innovations Human Trafficking Collaborative,2000.0,0.0,2000.0,0.0,0.0,0.0,0.0,0.0,0.0,0.0,2000.0,84763,Direct,,,View report (https://accesshub.pdc.wa.gov/node/107075),Human services,implentation of 5414,"Dept of Commerce, Sen. Human Services"
10098,107028-18813,107028,FE,17579,Melissa M Gombosky,Employer,18813,ASSN OF AMERICAN PUBLISHERS,23-Jul,8/1/2023,16116,ASSN OF AMERICAN PUBLISHERS,4000.0,0.0,4000.0,0.0,0.0,0.0,0.0,0.0,0.0,0.0,4000.0,18813,Direct,,,View report (https://accesshub.pdc.wa.gov/node/107028),Education,Education Issues,Education Committees
10099,107101-73925,107101,FE,17496,DOTY & ASSOC INC*,Employer,73925,CENTURYLINK,23-Jul,8/1/2023,16244,CENTURYLINK,6500.0,-3000.0,3500.0,0.0,0.0,0.0,0.0,0.0,0.0,0.0,3500.0,73925,Direct,,,View report (https://accesshub.pdc.wa.gov/node/107101),State government,,
10100,107101-39336,107101,FE,17496,DOTY & ASSOC INC*,Employer,39336,LAMAR ADVERTISING,23-Jul,8/1/2023,16325,LAMAR ADVERTISING,3500.0,0.0,3500.0,0.0,0.0,0.0,0.0,0.0,0.0,0.0,3500.0,39336,Direct,,,View report (https://accesshub.pdc.wa.gov/node/107101),State government,,
10101,107108-50912,107108,FE,50911,Leah Missik,Employer,50912,CLIMATE SOLUTIONS,23-Jul,8/1/2023,16327,CLIMATE SOLUTIONS,319.69,0.0,319.69,0.0,0.0,0.0,0.0,0.0,0.0,0.0,319.69,50912,Direct,,,View report (https://accesshub.pdc.wa.gov/node/107108),Transportation,School bus electrification,WA Leg
10102,107101-18566,107101,FE,17496,DOTY & ASSOC INC*,Employer,18566,ENTERPRISE HOLDINGS LLC,23-Jul,8/1/2023,16396,ENTERPRISE HOLDINGS LLC,2500.0,0.0,2500.0,0.0,0.0,0.0,0.0,0.0,0.0,0.0,2500.0,18566,Direct,,,View report (https://accesshub.pdc.wa.gov/node/107101),State government,,
10103,107028-18814,107028,FE,17579,Melissa M Gombosky,Employer,18814,EDUCATIONAL SERVICE DISTRICT 105,23-Jul,8/1/2023,16406,EDUCATIONAL SERVICE DISTRICT 105,3333.33,0.0,3333.33,0.0,0.0,0.0,0.0,0.0,0.0,0.0,3333.33,18814,Direct,,,View report (https://accesshub.pdc.wa.gov/node/107028),Education,Education Issues,Education Committees
10104,107028-34839,107028,FE,17579,Melissa M Gombosky,Employer,34839,EVERGREEN SCHOOL DIST #114,23-Jul,8/1/2023,16423,EVERGREEN SCHOOL DIST #114,6000.0,0.0,6000.0,0.0,0.0,0.0,0.0,0.0,0.0,0.0,6000.0,34839,Direct,,,View report (https://accesshub.pdc.wa.gov/node/107028),Environmental Affairs - natural resources - parks,education issues,Education Committees
10105,107120-19784,107120,FE,18036,SUSAN S TRACY,Employer,19784,EVERGREEN TREATMENT SERVICES,23-Jul,8/1/2023,16424,EVERGREEN TREATMENT SERVICES,1200.0,0.0,1200.0,0.0,0.0,0.0,0.0,0.0,0.0,0.0,1200.0,19784,Direct,,,View report (https://accesshub.pdc.wa.gov/node/107120),Human services,substance use disorder treatment,"hc, capital, approps, wm"
10106,107101-18567,107101,FE,17496,DOTY & ASSOC INC*,Employer,18567,FIRE SPRINKLER ADVISORY BD OF PUGET SOUND,23-Jul,8/1/2023,16444,FIRE SPRINKLER ADVISORY BD OF PUGET SOUND,2500.0,-1050.0,1450.0,35.0,0.0,0.0,0.0,0.0,0.0,35.0,1485.0,18567,Direct,,,View report (https://accesshub.pdc.wa.gov/node/107101),State government,,
10107,107028-18816,107028,FE,17579,Melissa M Gombosky,Employer,18816,INLAND EMPIRE PAPER,23-Jul,8/1/2023,16530,INLAND EMPIRE PAPER,3500.0,0.0,3500.0,0.0,0.0,0.0,0.0,0.0,0.0,0.0,3500.0,18816,Direct,,,View report (https://accesshub.pdc.wa.gov/node/107028),Environmental Affairs - natural resources - parks,environmental issues,environmental Committees
10108,107101-18568,107101,FE,17496,DOTY & ASSOC INC*,Employer,18568,KITSAP TRANSIT,23-Jul,8/1/2023,16581,KITSAP TRANSIT,5450.0,0.0,5450.0,35.0,0.0,0.0,0.0,0.0,0.0,35.0,5485.0,18568,Direct,,,View report (https://accesshub.pdc.wa.gov/node/107101),State government,,
10110,107101-18569,107101,FE,17496,DOTY & ASSOC INC*,Employer,18569,MUCKLESHOOT INDIAN TRIBE,23-Jul,8/1/2023,16650,MUCKLESHOOT INDIAN TRIBE,9782.5,0.0,9782.5,0.0,0.0,0.0,0.0,0.0,0.0,0.0,9782.5,18569,Direct,,,View report (https://accesshub.pdc.wa.gov/node/107101),State government,,
10111,107101-18571,107101,FE,17496,DOTY & ASSOC INC*,Employer,18571,PARATRANSIT SERVICES,23-Jul,8/1/2023,16762,PARATRANSIT SERVICES,1500.0,0.0,1500.0,35.0,0.0,0.0,0.0,0.0,0.0,35.0,1535.0,18571,Direct,,,View report (https://accesshub.pdc.wa.gov/node/107101),State government,,
10112,107028-83398,107028,FE,17579,Melissa M Gombosky,Employer,83398,ALTRIA CLIENT SERVICES LLC & ITS AFFILIATES,23-Jul,8/1/2023,16778,ALTRIA CLIENT SERVICES LLC & ITS AFFILIATES,6250.0,0.0,6250.0,0.0,0.0,0.0,0.0,0.0,0.0,0.0,6250.0,83398,Direct,,,View report (https://accesshub.pdc.wa.gov/node/107028),Business and consumer affairs,Nicotine,"H and S Comm and Labor, Business, Ways and Means"
10113,107028-84192,107028,FE,17579,Melissa M Gombosky,Employer,84192,PROCTER & GAMBLE CO,23-Jul,8/1/2023,16814,PROCTER & GAMBLE CO,3750.0,0.0,3750.0,0.0,0.0,0.0,0.0,0.0,0.0,0.0,3750.0,84192,Direct,,,View report (https://accesshub.pdc.wa.gov/node/107028),Business and consumer affairs,Consumer Affairs,"H and S Comm and Labor, Business, Ways and Means"
10114,107095-72174,107095,FE,72172,Janet Kelly,Employer,72174,PUGET SOUND ENERGY INC,23-Jul,8/1/2023,16828,PUGET SOUND ENERGY INC,14000.0,0.0,14000.0,0.0,0.0,0.0,0.0,0.0,0.0,0.0,14000.0,72174,Direct,,,View report (https://accesshub.pdc.wa.gov/node/107095),Energy and utilities,Energy related legislation,Legislature
10115,107028-70488,107028,FE,17579,Melissa M Gombosky,Employer,70488,Richland School District,23-Jul,8/1/2023,16860,Richland School District,3500.0,0.0,3500.0,0.0,0.0,0.0,0.0,0.0,0.0,0.0,3500.0,70488,Direct,,,View report (https://accesshub.pdc.wa.gov/node/107028),Education,Education,Education Committees
10116,107101-80005,107101,FE,17496,DOTY & ASSOC INC*,Employer,80005,"GB AUCTIONS, INC",23-Jul,8/1/2023,16940,"GB AUCTIONS, INC",2500.0,0.0,2500.0,35.0,0.0,0.0,0.0,0.0,0.0,35.0,2535.0,80005,Direct,,,View report (https://accesshub.pdc.wa.gov/node/107101),State government,,
10117,107093-19740,107093,FE,18019,MICHAEL TEMPLE,Employer,19740,SPOKANE TRIBE OF INDIANS,23-Jul,8/1/2023,16944,SPOKANE TRIBE OF INDIANS,5000.0,-2500.0,2500.0,0.0,0.0,0.0,0.0,0.0,0.0,0.0,2500.0,19740,Direct,,,View report (https://accesshub.pdc.wa.gov/node/107093),Environmental Affairs - natural resources - parks,Tribal Issues,"Governor, Legislsture,AG,DNR,WSGC, WSLCB"
10118,107120-19786,107120,FE,18036,SUSAN S TRACY,Employer,19786,WA ACADEMY OF EYE PHYSICIANS & SURGEONS,23-Jul,8/1/2023,17051,WA ACADEMY OF EYE PHYSICIANS & SURGEONS,3000.0,0.0,3000.0,0.0,0.0,0.0,0.0,0.0,0.0,0.0,3000.0,19786,Direct,,,View report (https://accesshub.pdc.wa.gov/node/107120),Health Care,eye care scope of practice,health care
10122,107117-49269,107117,FE,49268,Russell Gregrey Brown,Employer,49269,WA Assn of Prosecuting Attorneys,23-Jul,8/1/2023,17164,WA Assn of Prosecuting Attorneys,787.5,0.0,787.5,0.0,0.0,0.0,0.0,0.0,0.0,0.0,787.5,49269,Direct,,,View report (https://accesshub.pdc.wa.gov/node/107117),Law and justice,various,various
10123,107101-18574,107101,FE,17496,DOTY & ASSOC INC*,Employer,18574,WA REFLEXOLOGY ASSN,23-Jul,8/1/2023,17177,WA REFLEXOLOGY ASSN,250.0,-125.0,125.0,0.0,0.0,0.0,0.0,0.0,0.0,0.0,125.0,18574,Direct,,,View report (https://accesshub.pdc.wa.gov/node/107101),State government,,
10124,107101-18575,107101,FE,17496,DOTY & ASSOC INC*,Employer,18575,WA ST BAIL AGENTS ASSN,23-Jul,8/1/2023,17221,WA ST BAIL AGENTS ASSN,3000.0,0.0,3000.0,50.0,0.0,0.0,0.0,0.0,0.0,50.0,3050.0,18575,Direct,,,View report (https://accesshub.pdc.wa.gov/node/107101),State government,,
10125,107101-18577,107101,FE,17496,DOTY & ASSOC INC*,Employer,18577,WA ST ASSN OF FIRE CHIEFS,23-Jul,8/1/2023,17247,WA ST ASSN OF FIRE CHIEFS,5250.0,-1250.0,4000.0,50.0,0.0,0.0,0.0,0.0,0.0,50.0,4050.0,18577,Direct,,,View report (https://accesshub.pdc.wa.gov/node/107101),State government,,
10127,107120-19793,107120,FE,18036,SUSAN S TRACY,Employer,19793,WA ST SOC OF ORAL/MAXILLOFACIAL SURGERY,23-Jul,8/1/2023,17285,WA ST SOC OF ORAL/MAXILLOFACIAL SURGERY,2000.0,0.0,2000.0,0.0,0.0,0.0,0.0,0.0,0.0,0.0,2000.0,19793,Direct,,,View report (https://accesshub.pdc.wa.gov/node/107120),Health Care,oral surgery practice,health care
10128,107101-80006,107101,FE,17496,DOTY & ASSOC INC*,Employer,80006,ACTION DD,23-Jul,8/1/2023,27525,ACTION DD,3000.0,-1500.0,1500.0,0.0,0.0,0.0,0.0,0.0,0.0,0.0,1500.0,80006,Direct,,,View report (https://accesshub.pdc.wa.gov/node/107101),State government,,
10129,107028-29482,107028,FE,17579,Melissa M Gombosky,Employer,29482,Spokane Public Schools,23-Jul,8/1/2023,29481,Spokane Public Schools,4500.0,0.0,4500.0,0.0,0.0,0.0,0.0,0.0,0.0,0.0,4500.0,29482,Direct,,,View report (https://accesshub.pdc.wa.gov/node/107028),Education,education,Education Committees
10130,107101-30776,107101,FE,17496,DOTY & ASSOC INC*,Employer,30776,CCD Black Diamond Partners LLC,23-Jul,8/1/2023,30757,CCD Black Diamond Partners LLC,2500.0,0.0,2500.0,0.0,0.0,0.0,0.0,0.0,0.0,0.0,2500.0,30776,Direct,,,View report (https://accesshub.pdc.wa.gov/node/107101),State government,,
10131,107101-59573,107101,FE,17496,DOTY & ASSOC INC*,Employer,59573,Kitsap Mental Health Services,23-Jul,8/1/2023,59568,Kitsap Mental Health Services,1500.0,-750.0,750.0,0.0,0.0,0.0,0.0,0.0,0.0,0.0,750.0,59573,Direct,,,View report (https://accesshub.pdc.wa.gov/node/107101),State government,,
10132,107028-64586,107028,FE,17579,Melissa M Gombosky,Employer,64586,"Safelite Group, Inc.",23-Jul,8/1/2023,64584,"Safelite Group, Inc.",5000.0,0.0,5000.0,0.0,0.0,0.0,0.0,0.0,0.0,0.0,5000.0,64586,Direct,,,View report (https://accesshub.pdc.wa.gov/node/107028),Transportation,Transportation,S & H Transportation
10133,107113-76462,107113,FE,72202,Cascade AIDS Project,Employer,76462,Cascade AIDS Project,23-Jul,8/1/2023,76460,Cascade AIDS Project,3432.0,0.0,3432.0,0.0,0.0,0.0,0.0,0.0,0.0,0.0,3432.0,76462,Direct,,,View report (https://accesshub.pdc.wa.gov/node/107113),Health Care,HIV and LGBTQ+ health,Rep. Monica Stonier
10134,107121-83373,107121,FE,82833,Environmental and Energy Consulting,Employer,83373,Electric Vehicle Charging Association,23-Jul,8/1/2023,83372,Electric Vehicle Charging Association,1600.0,0.0,1600.0,0.0,0.0,0.0,0.0,0.0,0.0,0.0,1600.0,83373,Direct,,,View report (https://accesshub.pdc.wa.gov/node/107121),Transportation,"General ZEV topics, TES plan",Legislature
10135,107028-86535,107028,FE,17579,Melissa M Gombosky,Employer,86535,CTIA - The Wireless Assocation (JEFFREY S GOMBOSKY),23-Jul,8/1/2023,86382,CTIA - The Wireless Assocation,1000.0,0.0,1000.0,0.0,0.0,0.0,0.0,0.0,0.0,0.0,1000.0,86535,Subcontract,17578.0,JEFFREY S GOMBOSKY,View report (https://accesshub.pdc.wa.gov/node/107028),,,
10136,107028-95107,107028,FE,17579,Melissa M Gombosky,Employer,95107,The Baseball Club of Tacoma,23-Jul,8/1/2023,95106,The Baseball Club of Tacoma,6500.0,0.0,6500.0,0.0,0.0,0.0,0.0,0.0,0.0,0.0,6500.0,95107,Direct,,,View report (https://accesshub.pdc.wa.gov/node/107028),Local government,Stadium funding,All House All Senate
10137,107028-97675,107028,FE,17579,Melissa M Gombosky,Employer,97675,"Ardon Health, LLC",23-Jul,8/1/2023,97670,"Ardon Health, LLC",4000.0,0.0,4000.0,0.0,0.0,0.0,0.0,0.0,0.0,0.0,4000.0,97675,Direct,,,View report (https://accesshub.pdc.wa.gov/node/107028),,,
10138,107028-100530,107028,FE,17579,Melissa M Gombosky,Employer,100530,AESD,23-Jul,8/1/2023,100268,AESD,6069.0,0.0,6069.0,0.0,0.0,0.0,0.0,0.0,0.0,0.0,6069.0,100530,Direct,,,View report (https://accesshub.pdc.wa.gov/node/107028),Education,education policy,Education Committees
10139,107028-105929,107028,FE,17579,Melissa M Gombosky,Employer,105929,Qualtrics LLC (Ludeman Public Affairs),23-Jul,8/1/2023,103280,Qualtrics LLC,3000.0,0.0,3000.0,0.0,0.0,0.0,0.0,0.0,0.0,0.0,3000.0,105929,Subcontract,27377.0,Ludeman Public Affairs,View report (https://accesshub.pdc.wa.gov/node/107028),,,
10140,107126-97777,107126,FE,17659,HOLLY CHISA,Employer,97777,AMAROK,23-Jun,8/2/2023,97776,AMAROK,4000.0,0.0,4000.0,0.0,0.0,0.0,0.0,0.0,0.0,0.0,4000.0,97777,Direct,,,View report (https://accesshub.pdc.wa.gov/node/107126),Local government,Alarm system,Legislature
10141,107122-101978,107122,FE,17578,JEFFREY S GOMBOSKY,Employer,101978,ABBOTT LABORATORIES,23-Jul,8/2/2023,16060,ABBOTT LABORATORIES,3333.33,0.0,3333.33,0.0,0.0,0.0,0.0,0.0,0.0,0.0,3333.33,101978,Direct,,,View report (https://accesshub.pdc.wa.gov/node/107122),,,
10142,107089-82755,107089,FE,17653,BRANDON HOUSKEEPER,Employer,82755,American Family Life Assurance Company (AFLAC),23-Jul,8/2/2023,16074,American Family Life Assurance Company (AFLAC),1500.0,0.0,1500.0,0.0,0.0,0.0,0.0,0.0,0.0,0.0,1500.0,82755,Direct,,,View report (https://accesshub.pdc.wa.gov/node/107089),Financial institutions and insurance,Insurance,"Legislature, Office of Insurance Commissioner"
10143,107122-49713,107122,FE,17578,JEFFREY S GOMBOSKY,Employer,49713,"Graduation Alliance, Inc.",23-Jul,8/2/2023,16089,"Graduation Alliance, Inc.",4000.0,-400.0,3600.0,0.0,0.0,0.0,0.0,0.0,0.0,0.0,3600.0,49713,Direct,,,View report (https://accesshub.pdc.wa.gov/node/107122),,,
10144,107128-32170,107128,FE,17526,Arbutus Consulting LLC,Employer,32170,"Elevance Health, and its Affiliates",23-Jul,8/2/2023,16107,"Elevance Health, and its Affiliates",7000.0,0.0,7000.0,0.0,0.0,0.0,0.0,0.0,0.0,0.0,7000.0,32170,Direct,,,View report (https://accesshub.pdc.wa.gov/node/107128),Health Care,Health Care,Senate and House Health Care Committees
10146,107122-18801,107122,FE,17578,JEFFREY S GOMBOSKY,Employer,18801,ANHEUSER-BUSCH COMPANIES INC,23-Jul,8/2/2023,16128,ANHEUSER-BUSCH COMPANIES INC,5833.33,-400.0,5433.33,0.0,0.0,0.0,0.0,0.0,0.0,0.0,5433.33,18801,Direct,,,View report (https://accesshub.pdc.wa.gov/node/107122),,,
10147,107089-72771,107089,FE,17653,BRANDON HOUSKEEPER,Employer,72771,BOISE CASCADE COMPANY,23-Jul,8/2/2023,16202,BOISE CASCADE COMPANY,3000.0,0.0,3000.0,0.0,0.0,0.0,0.0,0.0,0.0,0.0,3000.0,72771,Direct,,,View report (https://accesshub.pdc.wa.gov/node/107089),Energy and utilities,"cap-and-trade, forestry, energy, employment law, taxes","Ecology, Commerce, DNR, Legislature"
10148,107089-72284,107089,FE,17653,BRANDON HOUSKEEPER,Employer,72284,PACKAGING CORP OF AMERICA,23-Jul,8/2/2023,16203,PACKAGING CORP OF AMERICA,3000.0,0.0,3000.0,0.0,0.0,0.0,0.0,0.0,0.0,0.0,3000.0,72284,Direct,,,View report (https://accesshub.pdc.wa.gov/node/107089),Energy and utilities,"cap-and-trade, energy costs, employment law, taxes","Ecology, Commerce, Legislature, Gov's office"
10149,107128-97737,107128,FE,17526,Arbutus Consulting LLC,Employer,97737,CITY OF KIRKLAND (BMcConsulting),23-Jul,8/2/2023,16289,CITY OF KIRKLAND,3000.0,0.0,3000.0,0.0,0.0,0.0,0.0,0.0,0.0,0.0,3000.0,97737,Subcontract,26001.0,BMcConsulting,View report (https://accesshub.pdc.wa.gov/node/107128),,,
10150,107128-54346,107128,FE,17526,Arbutus Consulting LLC,Employer,54346,CITY OF LACEY,23-Jul,8/2/2023,16294,CITY OF LACEY,3166.0,0.0,3166.0,0.0,0.0,0.0,0.0,0.0,0.0,0.0,3166.0,54346,Direct,,,View report (https://accesshub.pdc.wa.gov/node/107128),Local government,Local Government,House and Senate Local Government Committees
10151,107128-73458,107128,FE,17526,Arbutus Consulting LLC,Employer,73458,City of Vancouver,23-Jul,8/2/2023,16319,City of Vancouver,7500.0,0.0,7500.0,0.0,0.0,0.0,0.0,0.0,0.0,0.0,7500.0,73458,Direct,,,View report (https://accesshub.pdc.wa.gov/node/107128),Local government,Local Government,House and Senate Local Government Committees
10152,107126-103499,107126,FE,17659,HOLLY CHISA,Employer,103499,COMCAST CABLE COMMUNICATIONS,23-Jun,8/2/2023,16344,COMCAST CABLE COMMUNICATIONS,3000.0,0.0,3000.0,0.0,0.0,0.0,0.0,0.0,0.0,0.0,3000.0,103499,Direct,,,View report (https://accesshub.pdc.wa.gov/node/107126),Fiscal,Capitol Budget,Legislature
10153,107127-103499,107127,FE,17659,HOLLY CHISA,Employer,103499,COMCAST CABLE COMMUNICATIONS,23-Jul,8/2/2023,16344,COMCAST CABLE COMMUNICATIONS,3000.0,0.0,3000.0,0.0,0.0,0.0,0.0,0.0,0.0,0.0,3000.0,103499,Direct,,,View report (https://accesshub.pdc.wa.gov/node/107127),Fiscal,Capitol Budget,Legislature
10154,107122-18803,107122,FE,17578,JEFFREY S GOMBOSKY,Employer,18803,ENTERPRISE HOLDINGS LLC,23-Jul,8/2/2023,16396,ENTERPRISE HOLDINGS LLC,2500.0,-400.0,2100.0,0.0,0.0,0.0,0.0,0.0,0.0,0.0,2100.0,18803,Direct,,,View report (https://accesshub.pdc.wa.gov/node/107122),,,
10158,107089-71056,107089,FE,17653,BRANDON HOUSKEEPER,Employer,71056,ALLIANCE OF WESTERN ENERGY CONSUMERS,23-Jul,8/2/2023,16528,ALLIANCE OF WESTERN ENERGY CONSUMERS,9500.0,0.0,9500.0,0.0,0.0,0.0,0.0,0.0,0.0,0.0,9500.0,71056,Direct,,,View report (https://accesshub.pdc.wa.gov/node/107089),Energy and utilities,"cap-and-trade, clean electricity","UTC, Ecology, Commerce, Legislature"
10159,107126-18996,107126,FE,17659,HOLLY CHISA,Employer,18996,INSTITUTE OF SCRAP RECYCLING PACIFIC NW CHAPTER,23-Jun,8/2/2023,16535,INSTITUTE OF SCRAP RECYCLING PACIFIC NW CHAPTER,1666.67,0.0,1666.67,0.0,0.0,0.0,0.0,0.0,0.0,0.0,1666.67,18996,Direct,,,View report (https://accesshub.pdc.wa.gov/node/107126),Law and justice,All issues,Legislature
10160,107127-18996,107127,FE,17659,HOLLY CHISA,Employer,18996,INSTITUTE OF SCRAP RECYCLING PACIFIC NW CHAPTER,23-Jul,8/2/2023,16535,INSTITUTE OF SCRAP RECYCLING PACIFIC NW CHAPTER,1666.67,0.0,1666.67,0.0,0.0,0.0,0.0,0.0,0.0,0.0,1666.67,18996,Direct,,,View report (https://accesshub.pdc.wa.gov/node/107127),Law and justice,All issues,Legislature
10161,107122-18807,107122,FE,17578,JEFFREY S GOMBOSKY,Employer,18807,MULTICARE HEALTH SYSTEM,23-Jul,8/2/2023,16651,MULTICARE HEALTH SYSTEM,7500.0,-400.0,7100.0,0.0,0.0,0.0,0.0,0.0,0.0,0.0,7100.0,18807,Direct,,,View report (https://accesshub.pdc.wa.gov/node/107122),,,
10163,107089-96918,107089,FE,17653,BRANDON HOUSKEEPER,Employer,96918,NW GROCERY ASSN,23-Jul,8/2/2023,16707,NW GROCERY ASSN,7000.0,0.0,7000.0,0.0,0.0,0.0,0.0,0.0,0.0,0.0,7000.0,96918,Direct,,,View report (https://accesshub.pdc.wa.gov/node/107089),Business and consumer affairs,"Energy, Environment, Taxes, Retail Theft, Grocery Issues","Legislature, Executive Agencies, Attorney General"
10164,107122-18808,107122,FE,17578,JEFFREY S GOMBOSKY,Employer,18808,PHARMACEUTICAL RSRCH/MFG OF AMERICA,23-Jul,8/2/2023,16776,PHARMACEUTICAL RSRCH/MFG OF AMERICA,12083.33,-400.0,11683.33,0.0,0.0,0.0,0.0,0.0,0.0,0.0,11683.33,18808,Direct,,,View report (https://accesshub.pdc.wa.gov/node/107122),,,
10165,107128-39186,107128,FE,17526,Arbutus Consulting LLC,Employer,39186,PORT OF WALLA WALLA,23-Jul,8/2/2023,16809,PORT OF WALLA WALLA,3600.0,0.0,3600.0,0.0,0.0,0.0,0.0,0.0,0.0,0.0,3600.0,39186,Direct,,,View report (https://accesshub.pdc.wa.gov/node/107128),Local government,Local Government,House and Senate Local Government Committees
10166,107124-77327,107124,FE,77326,Cassie Bordelon,Employer,77327,PUGET SOUND ENERGY INC,23-Jul,8/2/2023,16828,PUGET SOUND ENERGY INC,3500.0,0.0,3500.0,0.0,0.0,0.0,0.0,0.0,0.0,0.0,3500.0,77327,Direct,,,View report (https://accesshub.pdc.wa.gov/node/107124),Energy and utilities,"Permitting and siting, decarb, solar and net metering, transmission","Governor's office, Dept. of Commerce, EFSEC"
10167,107122-72028,107122,FE,17578,JEFFREY S GOMBOSKY,Employer,72028,RENEWABLE NORTHWEST,23-Jul,8/2/2023,16854,RENEWABLE NORTHWEST,3900.0,-400.0,3500.0,0.0,0.0,0.0,0.0,0.0,0.0,0.0,3500.0,72028,Direct,,,View report (https://accesshub.pdc.wa.gov/node/107122),,,
10169,107122-39888,107122,FE,17578,JEFFREY S GOMBOSKY,Employer,39888,TESLA,23-Jul,8/2/2023,16979,TESLA,4000.0,-400.0,3600.0,0.0,0.0,0.0,0.0,0.0,0.0,0.0,3600.0,39888,Direct,,,View report (https://accesshub.pdc.wa.gov/node/107122),Transportation,Electric vehicle charging infrastructure,Office of the Governor
10170,107126-19000,107126,FE,17659,HOLLY CHISA,Employer,19000,UNITED TRUSTEES ASSN,23-Jun,8/2/2023,17015,UNITED TRUSTEES ASSN,1500.0,0.0,1500.0,0.0,0.0,0.0,0.0,0.0,0.0,0.0,1500.0,19000,Direct,,,View report (https://accesshub.pdc.wa.gov/node/107126),Financial institutions and insurance,Foreclosure,All Legislature
10171,107127-19000,107127,FE,17659,HOLLY CHISA,Employer,19000,UNITED TRUSTEES ASSN,23-Jul,8/2/2023,17015,UNITED TRUSTEES ASSN,1500.0,0.0,1500.0,0.0,0.0,0.0,0.0,0.0,0.0,0.0,1500.0,19000,Direct,,,View report (https://accesshub.pdc.wa.gov/node/107127),Financial institutions and insurance,Foreclosure,All Legislature
10172,107122-18811,107122,FE,17578,JEFFREY S GOMBOSKY,Employer,18811,WA HEALTH CARE ASSN,23-Jul,8/2/2023,17128,WA HEALTH CARE ASSN,9000.0,-400.0,8600.0,0.0,0.0,0.0,0.0,0.0,0.0,0.0,8600.0,18811,Direct,,,View report (https://accesshub.pdc.wa.gov/node/107122),,,
10176,107146-71854,107146,FE,17621,NEIL T HARTMAN,Employer,71854,WA State Assn of Plumbers & Pipefitters,23-Jul,8/2/2023,17275,WA State Assn of Plumbers & Pipefitters,4365.5,0.0,4365.5,0.0,0.0,0.0,0.0,0.0,0.0,0.0,4365.5,71854,Direct,,,View report (https://accesshub.pdc.wa.gov/node/107146),,,
10177,107125-73643,107125,FE,73642,Jeff Johnson,Employer,73643,REGIONAL WATER COOPERATIVE OF PIERCE CO,23-Jul,8/2/2023,17293,REGIONAL WATER COOPERATIVE OF PIERCE CO,3200.0,0.0,3200.0,100.0,0.0,0.0,0.0,0.0,0.0,100.0,3300.0,73643,Direct,,,View report (https://accesshub.pdc.wa.gov/node/107125),Energy and utilities,"DOE Policy 2030, DOH PFAS response, water rights, water treatment","DOE, DOH, various house and senate committees"
10178,107089-74110,107089,FE,17653,BRANDON HOUSKEEPER,Employer,74110,WESTERN WOOD PRESERVERS INSTITUTE,23-Jul,8/2/2023,17304,WESTERN WOOD PRESERVERS INSTITUTE,1750.0,0.0,1750.0,0.0,0.0,0.0,0.0,0.0,0.0,0.0,1750.0,74110,Direct,,,View report (https://accesshub.pdc.wa.gov/node/107089),Energy and utilities,"cap-and-trade / energy, pesticides, taxes","Ecology, Legislature"
10179,107128-27361,107128,FE,17526,Arbutus Consulting LLC,Employer,27361,City of Ferndale,23-Jul,8/2/2023,27359,City of Ferndale,2300.0,0.0,2300.0,0.0,0.0,0.0,0.0,0.0,0.0,0.0,2300.0,27361,Direct,,,View report (https://accesshub.pdc.wa.gov/node/107128),Local government,Local Government,House and Senate Local Government Committees
10180,107132-87156,107132,FE,86846,Anna Fahey,Employer,87156,Sightline Institute,23-Jul,8/2/2023,37788,Sightline Institute,539.61,0.0,539.61,0.0,0.0,0.0,0.0,0.0,0.0,0.0,539.61,87156,Direct,,,View report (https://accesshub.pdc.wa.gov/node/107132),Energy and utilities,Gas utilities decarbonization planning,"Rep. Doglio, Rep. Ramel"
10182,107126-63490,107126,FE,17659,HOLLY CHISA,Employer,63490,Juul Labs Inc.,23-Jun,8/2/2023,49226,Juul Labs Inc.,6000.0,0.0,6000.0,0.0,0.0,0.0,0.0,0.0,0.0,0.0,6000.0,63490,Direct,,,View report (https://accesshub.pdc.wa.gov/node/107126),Health Care,All issues,Legislature
10183,107127-63490,107127,FE,17659,HOLLY CHISA,Employer,63490,Juul Labs Inc.,23-Jul,8/2/2023,49226,Juul Labs Inc.,6000.0,0.0,6000.0,0.0,0.0,0.0,0.0,0.0,0.0,0.0,6000.0,63490,Direct,,,View report (https://accesshub.pdc.wa.gov/node/107127),Health Care,All issues,Legislature
10184,107126-50629,107126,FE,17659,HOLLY CHISA,Employer,50629,MALLINCKRODT PHARMACEUTICALS,23-Jun,8/2/2023,50628,MALLINCKRODT PHARMACEUTICALS,5500.0,0.0,5500.0,0.0,0.0,0.0,0.0,0.0,0.0,0.0,5500.0,50629,Direct,,,View report (https://accesshub.pdc.wa.gov/node/107126),Fiscal,All Issues,Legislature
10185,107127-50629,107127,FE,17659,HOLLY CHISA,Employer,50629,MALLINCKRODT PHARMACEUTICALS,23-Jul,8/2/2023,50628,MALLINCKRODT PHARMACEUTICALS,5500.0,0.0,5500.0,0.0,0.0,0.0,0.0,0.0,0.0,0.0,5500.0,50629,Direct,,,View report (https://accesshub.pdc.wa.gov/node/107127),Fiscal,All Issues,Legislature
10186,107142-103556,107142,FE,69692,Fernando Mejia-Ledesma,Employer,103556,Alliance for a Just Society,23-Jul,8/2/2023,51555,Alliance for a Just Society,7083.0,0.0,7083.0,0.0,0.0,0.0,0.0,0.0,0.0,0.0,7083.0,103556,Direct,,,View report (https://accesshub.pdc.wa.gov/node/107142),Higher education,Enrollment and wraparounds,"Higher Education Committees, WSAC"
10189,107122-64865,107122,FE,17578,JEFFREY S GOMBOSKY,Employer,64865,"Live Nation Entertainment, Inc.",23-Jul,8/2/2023,63596,"Live Nation Entertainment, Inc.",6000.0,-400.0,5600.0,0.0,0.0,0.0,0.0,0.0,0.0,0.0,5600.0,64865,Direct,,,View report (https://accesshub.pdc.wa.gov/node/107122),,,
10190,107089-79813,107089,FE,17653,BRANDON HOUSKEEPER,Employer,79813,HF Sinclair,23-Jul,8/2/2023,79704,HF Sinclair,5000.0,0.0,5000.0,0.0,0.0,0.0,0.0,0.0,0.0,0.0,5000.0,79813,Direct,,,View report (https://accesshub.pdc.wa.gov/node/107089),Energy and utilities,"LCFS, cap-and-trade, energy, employment law, taxes","Legislature, Ecology, Gov's office, Commerce"
10192,107122-99128,107122,FE,17578,JEFFREY S GOMBOSKY,Employer,99128,Aero-Flite Inc.,23-Jul,8/2/2023,82477,Aero-Flite Inc.,5000.0,0.0,5000.0,0.0,0.0,0.0,0.0,0.0,0.0,0.0,5000.0,99128,Direct,,,View report (https://accesshub.pdc.wa.gov/node/107122),,,
10194,107122-86418,107122,FE,17578,JEFFREY S GOMBOSKY,Employer,86418,CTIA - The Wireless Assocation,23-Jul,8/2/2023,86382,CTIA - The Wireless Assocation,7000.0,-1400.0,5600.0,0.0,0.0,0.0,0.0,0.0,0.0,0.0,5600.0,86418,Direct,,,View report (https://accesshub.pdc.wa.gov/node/107122),,,
10196,107089-88077,107089,FE,17653,BRANDON HOUSKEEPER,Employer,88077,CenTrio Energy,23-Jul,8/2/2023,88076,CenTrio Energy,4000.0,0.0,4000.0,0.0,0.0,0.0,0.0,0.0,0.0,0.0,4000.0,88077,Direct,,,View report (https://accesshub.pdc.wa.gov/node/107089),Energy and utilities,"Cap-and-trade, natural gas, energy, hydrogen, alt fuels","Legislature, Ecology, Commerce, Governor's office"
10199,107089-95124,107089,FE,17653,BRANDON HOUSKEEPER,Employer,95124,Southwest Washington Contractors Association,23-Jul,8/2/2023,95123,Southwest Washington Contractors Association,3500.0,0.0,3500.0,0.0,0.0,0.0,0.0,0.0,0.0,0.0,3500.0,95124,Direct,,,View report (https://accesshub.pdc.wa.gov/node/107089),Transportation,"Infrastructure, Taxes, building codes, energy / decarbonization, employment law, land use","Legislture, Executive Agencies, Building Code Council, Ecology, DNR"
10200,107127-97777,107127,FE,17659,HOLLY CHISA,Employer,97777,AMAROK,23-Jul,8/2/2023,97776,AMAROK,4000.0,0.0,4000.0,0.0,0.0,0.0,0.0,0.0,0.0,0.0,4000.0,97777,Direct,,,View report (https://accesshub.pdc.wa.gov/node/107127),Local government,Alarm system,Legislature
10201,107126-97832,107126,FE,17659,HOLLY CHISA,Employer,97832,Consumer Brands Association,23-Jun,8/2/2023,97831,Consumer Brands Association,4500.0,0.0,4500.0,0.0,0.0,0.0,0.0,0.0,0.0,0.0,4500.0,97832,Direct,,,View report (https://accesshub.pdc.wa.gov/node/107126),Environmental Affairs - natural resources - parks,All issues,Legislature
10202,107127-97832,107127,FE,17659,HOLLY CHISA,Employer,97832,Consumer Brands Association,23-Jul,8/2/2023,97831,Consumer Brands Association,4500.0,0.0,4500.0,0.0,0.0,0.0,0.0,0.0,0.0,0.0,4500.0,97832,Direct,,,View report (https://accesshub.pdc.wa.gov/node/107127),Environmental Affairs - natural resources - parks,All issues,Legislature
10203,107122-99540,107122,FE,17578,JEFFREY S GOMBOSKY,Employer,99540,Carvana,23-Jul,8/2/2023,99524,Carvana,4000.0,0.0,4000.0,0.0,0.0,0.0,0.0,0.0,0.0,0.0,4000.0,99540,Direct,,,View report (https://accesshub.pdc.wa.gov/node/107122),,,
10204,107089-102827,107089,FE,17653,BRANDON HOUSKEEPER,Employer,102827,HomeOptions,23-Jul,8/2/2023,102799,HomeOptions,2500.0,0.0,2500.0,0.0,0.0,0.0,0.0,0.0,0.0,0.0,2500.0,102827,Direct,,,View report (https://accesshub.pdc.wa.gov/node/107089),Business and consumer affairs,Listing Contracts,Legislature
10205,107153-35034,107153,FE,18045,Amber Ulvenes,Employer,35034,AMERICAN ACADEMY OF PEDIATRICS-WA CHAPTER,23-Jul,8/3/2023,16090,AMERICAN ACADEMY OF PEDIATRICS-WA CHAPTER,3400.0,0.0,3400.0,0.0,0.0,0.0,0.0,0.0,0.0,0.0,3400.0,35034,Direct,,,View report (https://accesshub.pdc.wa.gov/node/107153),Health Care,"Medicaid reimbursement, children's mental health","HCA, Health Care Committees, appropriation committees"
10207,107150-19172,107150,FE,17767,ROB MAKIN CONSULTING*,Employer,19172,BOEHRINGER INGELHEIM PHARMACEUTICALS INC,23-Jul,8/3/2023,16199,BOEHRINGER INGELHEIM PHARMACEUTICALS INC,3000.0,0.0,3000.0,0.0,0.0,0.0,0.0,0.0,0.0,0.0,3000.0,19172,Direct,,,View report (https://accesshub.pdc.wa.gov/node/107150),Health Care,Health Care,Senate and House Health Care
10208,107173-99284,107173,FE,49575,Silver Consulting,Employer,99284,Seattle Children's Hospital (SEIB POLICY & PUBLIC AFFAIRS*),23-Jul,8/3/2023,16259,Seattle Children's Hospital,1200.0,0.0,1200.0,0.0,0.0,0.0,0.0,0.0,0.0,0.0,1200.0,99284,Subcontract,17950.0,SEIB POLICY & PUBLIC AFFAIRS*,View report (https://accesshub.pdc.wa.gov/node/107173),,,
10209,107150-19174,107150,FE,17767,ROB MAKIN CONSULTING*,Employer,19174,DELOITTE CONSULTING LLP,23-Jul,8/3/2023,16384,DELOITTE CONSULTING LLP,3750.0,0.0,3750.0,0.0,0.0,0.0,0.0,0.0,0.0,0.0,3750.0,19174,Direct,,,View report (https://accesshub.pdc.wa.gov/node/107150),Technology,Technology,House and Senate Technology
10211,107150-83082,107150,FE,17767,ROB MAKIN CONSULTING*,Employer,83082,HEALTHCARE DISTRIBUTION ALLIANCE c/o MultiState Associates Inc,23-Jul,8/3/2023,16496,HEALTHCARE DISTRIBUTION ALLIANCE c/o MultiState Associates Inc,2750.0,0.0,2750.0,0.0,0.0,0.0,0.0,0.0,0.0,0.0,2750.0,83082,Direct,,,View report (https://accesshub.pdc.wa.gov/node/107150),Fiscal,Health Care & Fiscal,"Health Care, Fiscal"
10213,107164-18662,107164,FE,17522,ENGAGE STRATEGIES SPC*,Employer,18662,ISLANDWOOD,23-Jun,8/3/2023,16549,ISLANDWOOD,2000.0,0.0,2000.0,0.0,0.0,0.0,0.0,0.0,0.0,0.0,2000.0,18662,Direct,,,View report (https://accesshub.pdc.wa.gov/node/107164),Education,Environmental education--Outdoor school,"Ofm, ospi; H Ed; H Approps; Sen Ed; Sen W&M"
10214,107153-28555,107153,FE,18045,Amber Ulvenes,Employer,28555,Kaiser Foundation Health Plan of the Northwest,23-Jul,8/3/2023,16569,Kaiser Foundation Health Plan of the Northwest,1350.0,0.0,1350.0,0.0,0.0,0.0,0.0,0.0,0.0,0.0,1350.0,28555,Direct,,,View report (https://accesshub.pdc.wa.gov/node/107153),Health Care,Various health care issues,"Health Care Committees, HCA, OFM"
10215,107164-55709,107164,FE,17522,ENGAGE STRATEGIES SPC*,Employer,55709,KALISPEL TRIBE,23-Jun,8/3/2023,16570,KALISPEL TRIBE,4000.0,0.0,4000.0,0.0,0.0,0.0,0.0,0.0,0.0,0.0,4000.0,55709,Direct,,,View report (https://accesshub.pdc.wa.gov/node/107164),Environmental Affairs - natural resources - parks,Energy siting; natural resources funding; water,DOE; OFM; WDFW RCO
10216,106320-94166,106320,FE,18034,The Nichols Group Government Relations LLC,Employer,94166,KOCH CO PUBLIC SECTOR LLC & AFFILIATES,23-Jun,8/3/2023,16585,KOCH CO PUBLIC SECTOR LLC & AFFILIATES,5000.0,0.0,5000.0,0.0,0.0,0.0,0.0,0.0,0.0,0.0,5000.0,94166,Direct,,,View report (https://accesshub.pdc.wa.gov/node/106320),,,
10217,107171-94166,107171,FE,18034,The Nichols Group Government Relations LLC,Employer,94166,KOCH CO PUBLIC SECTOR LLC & AFFILIATES,23-Jul,8/3/2023,16585,KOCH CO PUBLIC SECTOR LLC & AFFILIATES,5000.0,0.0,5000.0,0.0,0.0,0.0,0.0,0.0,0.0,0.0,5000.0,94166,Direct,,,View report (https://accesshub.pdc.wa.gov/node/107171),,,
10218,107150-19176,107150,FE,17767,ROB MAKIN CONSULTING*,Employer,19176,LYNDEN INCORPORATED,23-Jul,8/3/2023,16613,LYNDEN INCORPORATED,3000.0,0.0,3000.0,0.0,0.0,0.0,0.0,0.0,0.0,0.0,3000.0,19176,Direct,,,View report (https://accesshub.pdc.wa.gov/node/107150),Transportation,Transportation,House and Senate Transportation
10219,107150-19177,107150,FE,17767,ROB MAKIN CONSULTING*,Employer,19177,MICROSOFT CORP,23-Jul,8/3/2023,16636,MICROSOFT CORP,8460.0,0.0,8460.0,0.0,0.0,0.0,0.0,0.0,0.0,0.0,8460.0,19177,Direct,,,View report (https://accesshub.pdc.wa.gov/node/107150),Technology,"Technology, Taxes","House and Senate Technology, Fiscal"
10220,107153-19818,107153,FE,18045,Amber Ulvenes,Employer,19818,MIDWIVES ASSOCIATION OF WA STATE,23-Jul,8/3/2023,16637,MIDWIVES ASSOCIATION OF WA STATE,1500.0,0.0,1500.0,0.0,0.0,0.0,0.0,0.0,0.0,0.0,1500.0,19818,Direct,,,View report (https://accesshub.pdc.wa.gov/node/107153),Health Care,"licensing fees, doula reimbursement","dept of health, HCA"
10221,107164-23615,107164,FE,17522,ENGAGE STRATEGIES SPC*,Employer,23615,NORTHWEST ENERGY COALITION,23-Jun,8/3/2023,16700,NORTHWEST ENERGY COALITION,1667.0,0.0,1667.0,0.0,0.0,0.0,0.0,0.0,0.0,0.0,1667.0,23615,Direct,,,View report (https://accesshub.pdc.wa.gov/node/107164),Energy and utilities,Energy Policy; Efficiency funding,"Ofm, Commerce, Env and Energy; EET"
10222,107173-50083,107173,FE,49575,Silver Consulting,Employer,50083,Northwest Health Law Advocates,23-Jul,8/3/2023,16709,Northwest Health Law Advocates,3000.0,0.0,3000.0,0.0,0.0,0.0,0.0,0.0,0.0,0.0,3000.0,50083,Direct,,,View report (https://accesshub.pdc.wa.gov/node/107173),Health Care,Health care and fiscal issues,"House and Senate Members, HCA, OIC, HBE, DSHS"
10223,107177-18881,107177,FE,17591,LINDSEY R GRAD,Employer,18881,SEIU HEALTHCARE 1199 NW,23-Jul,8/3/2023,16729,SEIU HEALTHCARE 1199 NW,12350.01,0.0,12350.01,0.0,0.0,38700.0,0.0,0.0,0.0,38700.0,51050.01,18881,Direct,,,View report (https://accesshub.pdc.wa.gov/node/107177),Health Care,Health Care,Legislature
10224,107176-76215,107176,FE,76213,DANE AUSTRENG,Employer,76215,SEIU HEALTHCARE 1199 NW,23-Jul,8/3/2023,16729,SEIU HEALTHCARE 1199 NW,10502.17,0.0,10502.17,0.0,0.0,0.0,0.0,0.0,0.0,0.0,10502.17,76215,Direct,,,View report (https://accesshub.pdc.wa.gov/node/107176),Health Care,Health Care,Legislature
10225,106320-95911,106320,FE,18034,The Nichols Group Government Relations LLC,Employer,95911,PHILLIPS 66,23-Jun,8/3/2023,16779,PHILLIPS 66,5500.0,0.0,5500.0,0.0,0.0,0.0,0.0,0.0,0.0,0.0,5500.0,95911,Direct,,,View report (https://accesshub.pdc.wa.gov/node/106320),Energy and utilities,"Business & Consumer Affairs, Energy & Utilities, Environmental Affairs, Natural Resources, Parks, Fiscal, Labor, Local Government, State Government, Technolog, Transportation","House Appropriations, Transportation, Environment & Energy, Commerce & Gaming, Finance, Labor & Workplace Standards, Senate Ways & Means,Transportation, Business & Workplace Standards, Environment, Energy & Technology, WA Dept. of Ecology"
10226,107171-95911,107171,FE,18034,The Nichols Group Government Relations LLC,Employer,95911,PHILLIPS 66,23-Jul,8/3/2023,16779,PHILLIPS 66,5500.0,0.0,5500.0,0.0,0.0,0.0,0.0,0.0,0.0,0.0,5500.0,95911,Direct,,,View report (https://accesshub.pdc.wa.gov/node/107171),Energy and utilities,"Business & Consumer Affairs, Energy & Utilities, Environmental Affairs, Natural Resources, Parks, Fiscal, Labor, Local Government, State Government, Technolog, Transportation","House Appropriations, Transportation, Environment & Energy, Commerce & Gaming, Finance, Labor & Workplace Standards, Senate Ways & Means,Transportation, Business & Workplace Standards, Environment, Energy & Technology, WA Dept. of Ecology"
10227,107153-19820,107153,FE,18045,Amber Ulvenes,Employer,19820,RESOLUTION WA,23-Jul,8/3/2023,16856,RESOLUTION WA,2500.0,0.0,2500.0,0.0,0.0,0.0,0.0,0.0,0.0,0.0,2500.0,19820,Direct,,,View report (https://accesshub.pdc.wa.gov/node/107153),Law and justice,DRC funding,"Dept of Commerce, Law & Justice and Judiciary Committees, OFM"
10228,107173-49640,107173,FE,49575,Silver Consulting,Employer,49640,RURAL HEALTH CLINIC ASSN (SEIB POLICY & PUBLIC AFFAIRS*),23-Jul,8/3/2023,16866,RURAL HEALTH CLINIC ASSN,900.0,0.0,900.0,0.0,0.0,0.0,0.0,0.0,0.0,0.0,900.0,49640,Subcontract,17950.0,SEIB POLICY & PUBLIC AFFAIRS*,View report (https://accesshub.pdc.wa.gov/node/107173),,,
10229,107150-19179,107150,FE,17767,ROB MAKIN CONSULTING*,Employer,19179,SABEY CORPORATION,23-Jul,8/3/2023,16867,SABEY CORPORATION,3000.0,0.0,3000.0,0.0,0.0,0.0,0.0,0.0,0.0,0.0,3000.0,19179,Direct,,,View report (https://accesshub.pdc.wa.gov/node/107150),Fiscal,Taxes,Senate & House Finance
10230,106320-19775,106320,FE,18034,The Nichols Group Government Relations LLC,Employer,19775,SCHNITZER STEEL INDUSTRIES INC,23-Jun,8/3/2023,16878,SCHNITZER STEEL INDUSTRIES INC,3804.0,0.0,3804.0,0.0,0.0,0.0,0.0,0.0,0.0,0.0,3804.0,19775,Direct,,,View report (https://accesshub.pdc.wa.gov/node/106320),Environmental Affairs - natural resources - parks,"Recycling, manufacturing","Environmental Committees, Dept. of Ecology, Governor's Office"
10231,107171-19775,107171,FE,18034,The Nichols Group Government Relations LLC,Employer,19775,SCHNITZER STEEL INDUSTRIES INC,23-Jul,8/3/2023,16878,SCHNITZER STEEL INDUSTRIES INC,3804.0,0.0,3804.0,0.0,0.0,0.0,0.0,0.0,0.0,0.0,3804.0,19775,Direct,,,View report (https://accesshub.pdc.wa.gov/node/107171),Environmental Affairs - natural resources - parks,"Recycling, manufacturing","Environmental Committees, Dept. of Ecology, Governor's Office"
10232,107178-37661,107178,FE,37660,Tim Strickland,Employer,37661,PEACEHEALTH,23-Jul,8/3/2023,16934,PEACEHEALTH,2400.0,0.0,2400.0,0.0,0.0,0.0,0.0,0.0,0.0,0.0,2400.0,37661,Direct,,,View report (https://accesshub.pdc.wa.gov/node/107178),Health Care,Complex discharge challenges and barriers,"Governor's office, DDA"
10233,107153-95575,107153,FE,18045,Amber Ulvenes,Employer,95575,TEAMCHILD,23-Jul,8/3/2023,16976,TEAMCHILD,3000.0,0.0,3000.0,0.0,0.0,0.0,0.0,0.0,0.0,0.0,3000.0,95575,Direct,,,View report (https://accesshub.pdc.wa.gov/node/107153),,,
10234,107173-61415,107173,FE,49575,Silver Consulting,Employer,61415,UNITED HEALTHCARE SERVICES INC,23-Jul,8/3/2023,17009,UNITED HEALTHCARE SERVICES INC,10000.0,0.0,10000.0,0.0,0.0,0.0,0.0,0.0,0.0,0.0,10000.0,61415,Direct,,,View report (https://accesshub.pdc.wa.gov/node/107173),Health Care,Health care and fiscal matters,"House and Senate Members, HCA, OIC, HBE, DOH"
10235,106320-19776,106320,FE,18034,The Nichols Group Government Relations LLC,Employer,19776,ARROW LAUNCH SERVICES INC,23-Jun,8/3/2023,17034,ARROW LAUNCH SERVICES INC,1000.0,0.0,1000.0,0.0,0.0,0.0,0.0,0.0,0.0,0.0,1000.0,19776,Direct,,,View report (https://accesshub.pdc.wa.gov/node/106320),Transportation,Marine transportation / services,"Transportation / environmental committees, UTC, Governor's Office"
10236,107171-19776,107171,FE,18034,The Nichols Group Government Relations LLC,Employer,19776,ARROW LAUNCH SERVICES INC,23-Jul,8/3/2023,17034,ARROW LAUNCH SERVICES INC,1000.0,0.0,1000.0,0.0,0.0,0.0,0.0,0.0,0.0,0.0,1000.0,19776,Direct,,,View report (https://accesshub.pdc.wa.gov/node/107171),Transportation,Marine transportation / services,"Transportation / environmental committees, UTC, Governor's Office"
10237,107150-89416,107150,FE,17767,ROB MAKIN CONSULTING*,Employer,89416,VIRGINIA MASON FRANCISCAN HEALTH,23-Jul,8/3/2023,17037,VIRGINIA MASON FRANCISCAN HEALTH,3750.0,0.0,3750.0,0.0,0.0,0.0,0.0,0.0,0.0,0.0,3750.0,89416,Direct,,,View report (https://accesshub.pdc.wa.gov/node/107150),Health Care,Health Care,Senate and House Health Care
10238,107173-98387,107173,FE,49575,Silver Consulting,Employer,98387,WA ACADEMY OF FAMILY PHYSICIANS,23-Jul,8/3/2023,17052,WA ACADEMY OF FAMILY PHYSICIANS,6000.0,0.0,6000.0,0.0,0.0,0.0,0.0,0.0,0.0,0.0,6000.0,98387,Direct,,,View report (https://accesshub.pdc.wa.gov/node/107173),Health Care,Various,House and Senate members
10239,107163-29092,107163,FE,17542,JACK FIELD,Employer,29092,WA CATTLE FEEDERS ASSN,23-Jul,8/3/2023,17078,WA CATTLE FEEDERS ASSN,1500.0,0.0,1500.0,0.0,0.0,0.0,0.0,0.0,0.0,0.0,1500.0,29092,Direct,,,View report (https://accesshub.pdc.wa.gov/node/107163),Agriculture,carbon fees on fuel and water quality,DOE
10240,106320-19778,106320,FE,18034,The Nichols Group Government Relations LLC,Employer,19778,WA CHRISTMAS TREE GROWERS,23-Jun,8/3/2023,17090,WA CHRISTMAS TREE GROWERS,750.0,0.0,750.0,0.0,0.0,0.0,0.0,0.0,0.0,0.0,750.0,19778,Direct,,,View report (https://accesshub.pdc.wa.gov/node/106320),Agriculture,"Land use, taxation","Agricultural committees, Dept of Agriculture, Governor's Office"
10241,107171-19778,107171,FE,18034,The Nichols Group Government Relations LLC,Employer,19778,WA CHRISTMAS TREE GROWERS,23-Jul,8/3/2023,17090,WA CHRISTMAS TREE GROWERS,750.0,0.0,750.0,0.0,0.0,0.0,0.0,0.0,0.0,0.0,750.0,19778,Direct,,,View report (https://accesshub.pdc.wa.gov/node/107171),Agriculture,"Land use, taxation","Agricultural committees, Dept of Agriculture, Governor's Office"
10243,106320-19779,106320,FE,18034,The Nichols Group Government Relations LLC,Employer,19779,COMMUNITY BANKERS OF WA,23-Jun,8/3/2023,17132,COMMUNITY BANKERS OF WA,3000.0,0.0,3000.0,0.0,0.0,0.0,0.0,0.0,0.0,0.0,3000.0,19779,Direct,,,View report (https://accesshub.pdc.wa.gov/node/106320),Financial institutions and insurance,Banking Issues,"Senate Financial Institutions & Insurance Committee; House Business & Financial Services Committee, WA Dept. of Financial Institutions, WA State Treasurer, Governor's Office"
10244,107171-19779,107171,FE,18034,The Nichols Group Government Relations LLC,Employer,19779,COMMUNITY BANKERS OF WA,23-Jul,8/3/2023,17132,COMMUNITY BANKERS OF WA,3000.0,0.0,3000.0,0.0,0.0,0.0,0.0,0.0,0.0,0.0,3000.0,19779,Direct,,,View report (https://accesshub.pdc.wa.gov/node/107171),Financial institutions and insurance,Banking Issues,"Senate Financial Institutions & Insurance Committee; House Business & Financial Services Committee, WA Dept. of Financial Institutions, WA State Treasurer, Governor's Office"
10245,106320-19780,106320,FE,18034,The Nichols Group Government Relations LLC,Employer,19780,WASHINGTON LIQUOR STORE ASSOCIATION,23-Jun,8/3/2023,17145,WASHINGTON LIQUOR STORE ASSOCIATION,2000.0,0.0,2000.0,0.0,0.0,0.0,0.0,0.0,0.0,0.0,2000.0,19780,Direct,,,View report (https://accesshub.pdc.wa.gov/node/106320),Business and consumer affairs,Liquor Issues,"House Commerce & Gaming Committee, Senate Labor & Commerce Committee, WA State Liquor & Cannabis Board, Governor's Office"
10246,107171-19780,107171,FE,18034,The Nichols Group Government Relations LLC,Employer,19780,WASHINGTON LIQUOR STORE ASSOCIATION,23-Jul,8/3/2023,17145,WASHINGTON LIQUOR STORE ASSOCIATION,2000.0,0.0,2000.0,0.0,0.0,0.0,0.0,0.0,0.0,0.0,2000.0,19780,Direct,,,View report (https://accesshub.pdc.wa.gov/node/107171),Business and consumer affairs,Liquor Issues,"House Commerce & Gaming Committee, Senate Labor & Commerce Committee, WA State Liquor & Cannabis Board, Governor's Office"
10247,107164-44980,107164,FE,17522,ENGAGE STRATEGIES SPC*,Employer,44980,WA State Community Action Partnership,23-Jun,8/3/2023,17226,WA State Community Action Partnership,3000.0,0.0,3000.0,0.0,0.0,0.0,0.0,0.0,0.0,0.0,3000.0,44980,Direct,,,View report (https://accesshub.pdc.wa.gov/node/107164),Human services,Budget,OFM; Commerce; DSHS; H Approps; S Ways and Means
10248,107150-19182,107150,FE,17767,ROB MAKIN CONSULTING*,Employer,19182,WA ST UNIVERSITY,23-Jul,8/3/2023,17290,WA ST UNIVERSITY,4000.0,0.0,4000.0,0.0,0.0,0.0,0.0,0.0,0.0,0.0,4000.0,19182,Direct,,,View report (https://accesshub.pdc.wa.gov/node/107150),Higher education,Education,House and Senate Education
10250,106320-48658,106320,FE,18034,The Nichols Group Government Relations LLC,Employer,48658,WILLAPA-GRAYS HARBOR OYSTER GROWERS ASSN,23-Jun,8/3/2023,23612,WILLAPA-GRAYS HARBOR OYSTER GROWERS ASSN,2000.0,0.0,2000.0,0.0,0.0,0.0,0.0,0.0,0.0,0.0,2000.0,48658,Direct,,,View report (https://accesshub.pdc.wa.gov/node/106320),Agriculture,Agriculture Issues,"House and Senate Agriculture Committees, Dept. of Ecology, Dept. of Natural Resources, Dept. of Agriculture, Governor's Office"
10251,107171-48658,107171,FE,18034,The Nichols Group Government Relations LLC,Employer,48658,WILLAPA-GRAYS HARBOR OYSTER GROWERS ASSN,23-Jul,8/3/2023,23612,WILLAPA-GRAYS HARBOR OYSTER GROWERS ASSN,2000.0,0.0,2000.0,0.0,0.0,0.0,0.0,0.0,0.0,0.0,2000.0,48658,Direct,,,View report (https://accesshub.pdc.wa.gov/node/107171),Agriculture,Agriculture Issues,"House and Senate Agriculture Committees, Dept. of Ecology, Dept. of Natural Resources, Dept. of Agriculture, Governor's Office"
10252,107153-48779,107153,FE,18045,Amber Ulvenes,Employer,48779,Kaiser Foundation Health Plan of Washington,23-Jul,8/3/2023,30206,Kaiser Foundation Health Plan of Washington,11000.0,0.0,11000.0,0.0,0.0,0.0,0.0,0.0,0.0,0.0,11000.0,48779,Direct,,,View report (https://accesshub.pdc.wa.gov/node/107153),Health Care,"PEBB, health insurance market","HCA, Health Care Committees, appropriation committees"
10253,107164-49833,107164,FE,17522,ENGAGE STRATEGIES SPC*,Employer,49833,Sightline Institute,23-Jun,8/3/2023,37788,Sightline Institute,2500.0,0.0,2500.0,0.0,0.0,0.0,0.0,0.0,0.0,0.0,2500.0,49833,Direct,,,View report (https://accesshub.pdc.wa.gov/node/107164),Local government,"Zoning, ADU's; Missing middle","Ofm; Local Government, Housing and Local Government"
10254,106320-38900,106320,FE,18034,The Nichols Group Government Relations LLC,Employer,38900,Cooke Aquaculture Pacific LLC,23-Jun,8/3/2023,38899,Cooke Aquaculture Pacific LLC,5000.0,0.0,5000.0,0.0,0.0,0.0,0.0,0.0,0.0,0.0,5000.0,38900,Direct,,,View report (https://accesshub.pdc.wa.gov/node/106320),Agriculture,Net-pen aquaculture issues,"Senate & House Agriculture Committees, Dept. of Ecology, Dept. of Fish & Wildlife, Dept. of Natural Resources, Dept. of Agriculture, Governor's Office"
10255,107171-38900,107171,FE,18034,The Nichols Group Government Relations LLC,Employer,38900,Cooke Aquaculture Pacific LLC,23-Jul,8/3/2023,38899,Cooke Aquaculture Pacific LLC,5000.0,0.0,5000.0,0.0,0.0,0.0,0.0,0.0,0.0,0.0,5000.0,38900,Direct,,,View report (https://accesshub.pdc.wa.gov/node/107171),Agriculture,Net-pen aquaculture issues,"Senate & House Agriculture Committees, Dept. of Ecology, Dept. of Fish & Wildlife, Dept. of Natural Resources, Dept. of Agriculture, Governor's Office"
10256,106320-39130,106320,FE,18034,The Nichols Group Government Relations LLC,Employer,39130,City of Shelton,23-Jun,8/3/2023,39118,City of Shelton,3000.0,0.0,3000.0,0.0,0.0,0.0,0.0,0.0,0.0,0.0,3000.0,39130,Direct,,,View report (https://accesshub.pdc.wa.gov/node/106320),Fiscal,Transportation and Capital Budget Requests,"Senate Ways & Means, Senate Transportation, House Capital Budget, House Transportation, WA State Patrol, WSDOT, Governor's Office"
10257,107171-39130,107171,FE,18034,The Nichols Group Government Relations LLC,Employer,39130,City of Shelton,23-Jul,8/3/2023,39118,City of Shelton,3000.0,0.0,3000.0,0.0,0.0,0.0,0.0,0.0,0.0,0.0,3000.0,39130,Direct,,,View report (https://accesshub.pdc.wa.gov/node/107171),Fiscal,Transportation and Capital Budget Requests,"Senate Ways & Means, Senate Transportation, House Capital Budget, House Transportation, WA State Patrol, WSDOT, Governor's Office"
10258,106320-45630,106320,FE,18034,The Nichols Group Government Relations LLC,Employer,45630,Capital Region ESD 113,23-Jun,8/3/2023,45627,Capital Region ESD 113,4000.0,0.0,4000.0,0.0,0.0,0.0,0.0,0.0,0.0,0.0,4000.0,45630,Direct,,,View report (https://accesshub.pdc.wa.gov/node/106320),Education,Education Funding and Policy Issues,"House and Senate Education Committees, House Appropriations Committee, Senate Ways & Means Committee, Superintendent of Public Instruction, Governor's Office"
10259,107171-45630,107171,FE,18034,The Nichols Group Government Relations LLC,Employer,45630,Capital Region ESD 113,23-Jul,8/3/2023,45627,Capital Region ESD 113,4000.0,0.0,4000.0,0.0,0.0,0.0,0.0,0.0,0.0,0.0,4000.0,45630,Direct,,,View report (https://accesshub.pdc.wa.gov/node/107171),Education,Education Funding and Policy Issues,"House and Senate Education Committees, House Appropriations Committee, Senate Ways & Means Committee, Superintendent of Public Instruction, Governor's Office"
10260,107164-106265,107164,FE,17522,ENGAGE STRATEGIES SPC*,Employer,106265,FairVote Washington,23-Jun,8/3/2023,48094,FairVote Washington,3000.0,0.0,3000.0,0.0,0.0,0.0,0.0,0.0,0.0,0.0,3000.0,106265,Direct,,,View report (https://accesshub.pdc.wa.gov/node/107164),Constitutions and elections,Rank choice voting; voter education,State Gov and Tribal Relations
10261,107153-49486,107153,FE,18045,Amber Ulvenes,Employer,49486,Open Arms Perinatal Services,23-Jul,8/3/2023,49474,Open Arms Perinatal Services,1000.0,0.0,1000.0,0.0,0.0,0.0,0.0,0.0,0.0,0.0,1000.0,49486,Direct,,,View report (https://accesshub.pdc.wa.gov/node/107153),Health Care,Health Care,"HCA, Health Care Committees,"
10262,107166-50640,107166,FE,50601,David Sawyer,Employer,50640,The gallery glass & wares,23-Jan,8/3/2023,50633,The gallery glass & wares,750.0,0.0,750.0,0.0,0.0,0.0,0.0,0.0,0.0,0.0,750.0,50640,Direct,,,View report (https://accesshub.pdc.wa.gov/node/107166),Business and consumer affairs,Cannabis regulation,Legislature
10263,107167-50640,107167,FE,50601,David Sawyer,Employer,50640,The gallery glass & wares,23-Feb,8/3/2023,50633,The gallery glass & wares,750.0,0.0,750.0,0.0,0.0,0.0,0.0,0.0,0.0,0.0,750.0,50640,Direct,,,View report (https://accesshub.pdc.wa.gov/node/107167),Business and consumer affairs,Cannabis regulation,Legislature
10264,107150-61726,107150,FE,17767,ROB MAKIN CONSULTING*,Employer,61726,Schweitzer Engineering Laboratories,23-Jul,8/3/2023,55691,Schweitzer Engineering Laboratories,4000.0,0.0,4000.0,0.0,0.0,0.0,0.0,0.0,0.0,0.0,4000.0,61726,Direct,,,View report (https://accesshub.pdc.wa.gov/node/107150),Health Care,Fiscal,"House Finance, Senate Ways & Means"
10265,107173-96519,107173,FE,49575,Silver Consulting,Employer,96519,Tobacco-Free Action Fund,23-Jul,8/3/2023,60200,Tobacco-Free Action Fund,2000.0,0.0,2000.0,0.0,0.0,0.0,0.0,0.0,0.0,0.0,2000.0,96519,Direct,,,View report (https://accesshub.pdc.wa.gov/node/107173),Health Care,Public health,House and Senate members
10266,106320-62174,106320,FE,18034,The Nichols Group Government Relations LLC,Employer,62174,American Promotional Events Northwest Inc. DBA TNT Fireworks,23-Jun,8/3/2023,62169,American Promotional Events Northwest Inc. DBA TNT Fireworks,5000.0,0.0,5000.0,0.0,0.0,0.0,0.0,0.0,0.0,0.0,5000.0,62174,Direct,,,View report (https://accesshub.pdc.wa.gov/node/106320),Local government,Consumer Fireworks-related issues,"House and Senate Local Government Committee, WA State Fire Marshall, Governor's Office"
10267,107171-62174,107171,FE,18034,The Nichols Group Government Relations LLC,Employer,62174,American Promotional Events Northwest Inc. DBA TNT Fireworks,23-Jul,8/3/2023,62169,American Promotional Events Northwest Inc. DBA TNT Fireworks,5000.0,0.0,5000.0,0.0,0.0,0.0,0.0,0.0,0.0,0.0,5000.0,62174,Direct,,,View report (https://accesshub.pdc.wa.gov/node/107171),Local government,Consumer Fireworks-related issues,"House and Senate Local Government Committee, WA State Fire Marshall, Governor's Office"
10268,106320-74747,106320,FE,18034,The Nichols Group Government Relations LLC,Employer,74747,"National Shooting Sports Foundation, Inc.",23-Jun,8/3/2023,64804,"National Shooting Sports Foundation, Inc.",4000.0,-1500.0,2500.0,0.0,0.0,0.0,0.0,0.0,0.0,0.0,2500.0,74747,Direct,,,View report (https://accesshub.pdc.wa.gov/node/106320),Law and justice,"Firearm Manufacturer, Retailer, and Shooting Range Issues",House Civil Rights & Judiciary and Senate Law & Justice Committees
10269,107171-74747,107171,FE,18034,The Nichols Group Government Relations LLC,Employer,74747,"National Shooting Sports Foundation, Inc.",23-Jul,8/3/2023,64804,"National Shooting Sports Foundation, Inc.",4000.0,-1500.0,2500.0,0.0,0.0,0.0,0.0,0.0,0.0,0.0,2500.0,74747,Direct,,,View report (https://accesshub.pdc.wa.gov/node/107171),Law and justice,"Firearm Manufacturer, Retailer, and Shooting Range Issues",House Civil Rights & Judiciary and Senate Law & Justice Committees
10270,107164-65305,107164,FE,17522,ENGAGE STRATEGIES SPC*,Employer,65305,Washington Outdoor School Consortium on behalf Wa School Principals Education Foundation,23-Jun,8/3/2023,65012,Washington Outdoor School Consortium on behalf Wa School Principals Education Foundation,1000.0,0.0,1000.0,0.0,0.0,0.0,0.0,0.0,0.0,0.0,1000.0,65305,Direct,,,View report (https://accesshub.pdc.wa.gov/node/107164),Education,Budget,Ofm; OSPI; House Ed; House Approps; Sen Ed; Sen W&M
10271,107173-71085,107173,FE,49575,Silver Consulting,Employer,71085,Consumer Direct Care Network Washington LLC.,23-Jul,8/3/2023,71083,Consumer Direct Care Network Washington LLC.,8400.0,-3000.0,5400.0,0.0,0.0,0.0,0.0,0.0,0.0,0.0,5400.0,71085,Direct,,,View report (https://accesshub.pdc.wa.gov/node/107173),Health Care,Long-term care and fiscal issues,"House and Senate Members, DSHS"
10272,106320-85231,106320,FE,18034,The Nichols Group Government Relations LLC,Employer,85231,Commonwealth Real Estate Services,23-Jun,8/3/2023,85230,Commonwealth Real Estate Services,5000.0,0.0,5000.0,0.0,0.0,0.0,0.0,0.0,0.0,0.0,5000.0,85231,Direct,,,View report (https://accesshub.pdc.wa.gov/node/106320),Business and consumer affairs,Manufactured Park and Housing Issues,"House Housing, Human Services & Veterans Committee, Senate Housing & Local Government Committee"
10273,107171-85231,107171,FE,18034,The Nichols Group Government Relations LLC,Employer,85231,Commonwealth Real Estate Services,23-Jul,8/3/2023,85230,Commonwealth Real Estate Services,5000.0,0.0,5000.0,0.0,0.0,0.0,0.0,0.0,0.0,0.0,5000.0,85231,Direct,,,View report (https://accesshub.pdc.wa.gov/node/107171),Business and consumer affairs,Manufactured Park and Housing Issues,"House Housing, Human Services & Veterans Committee, Senate Housing & Local Government Committee"
10274,107173-94435,107173,FE,49575,Silver Consulting,Employer,94435,Behavioral Health Solutions,23-Jul,8/3/2023,94414,Behavioral Health Solutions,7000.0,0.0,7000.0,0.0,0.0,0.0,0.0,0.0,0.0,0.0,7000.0,94435,Direct,,,View report (https://accesshub.pdc.wa.gov/node/107173),Health Care,"Health care, long-term care, fiscal issues","House and Senate Members, DSHS, HCA"
10275,107173-96339,107173,FE,49575,Silver Consulting,Employer,96339,Samaritan Healthcare (Grant County Public Hospital District No. 1) (SEIB POLICY & PUBLIC AFFAIRS*),23-Jul,8/3/2023,94564,Samaritan Healthcare (Grant County Public Hospital District No. 1),2000.0,0.0,2000.0,0.0,0.0,0.0,0.0,0.0,0.0,0.0,2000.0,96339,Subcontract,17950.0,SEIB POLICY & PUBLIC AFFAIRS*,View report (https://accesshub.pdc.wa.gov/node/107173),,,
10276,106320-95877,106320,FE,18034,The Nichols Group Government Relations LLC,Employer,95877,Lewis County (GORDON THOMAS HONEYWELL GOV AFFAIRS*),23-Jun,8/3/2023,95289,Lewis County,2500.0,0.0,2500.0,0.0,0.0,0.0,0.0,0.0,0.0,0.0,2500.0,95877,Subcontract,17581.0,GORDON THOMAS HONEYWELL GOV AFFAIRS*,View report (https://accesshub.pdc.wa.gov/node/106320),,,
10277,107171-95877,107171,FE,18034,The Nichols Group Government Relations LLC,Employer,95877,Lewis County (GORDON THOMAS HONEYWELL GOV AFFAIRS*),23-Jul,8/3/2023,95289,Lewis County,2500.0,0.0,2500.0,0.0,0.0,0.0,0.0,0.0,0.0,0.0,2500.0,95877,Subcontract,17581.0,GORDON THOMAS HONEYWELL GOV AFFAIRS*,View report (https://accesshub.pdc.wa.gov/node/107171),,,
10278,107199-19578,107199,FE,17944,MICHAEL V SCHWISOW,Employer,19578,COLUMBIA BASIN DEVELOPMENT LEAGUE,23-Jul,8/4/2023,16335,COLUMBIA BASIN DEVELOPMENT LEAGUE,4166.66,0.0,4166.66,0.0,0.0,0.0,0.0,0.0,0.0,0.0,4166.66,19578,Direct,,,View report (https://accesshub.pdc.wa.gov/node/107199),Fiscal,Ground water replacement funding,House Capital Budget & Senate Ways & Means
10279,107199-19579,107199,FE,17944,MICHAEL V SCHWISOW,Employer,19579,Washington Winegrowers Association,23-Jul,8/4/2023,17210,Washington Winegrowers Association,2500.0,0.0,2500.0,0.0,0.0,0.0,0.0,0.0,0.0,0.0,2500.0,19579,Direct,,,View report (https://accesshub.pdc.wa.gov/node/107199),Labor,Overtime seasonality,"House Labor & Workplace Standards, Senate Labor & Commerce"
10280,107199-19580,107199,FE,17944,MICHAEL V SCHWISOW,Employer,19580,WA ST WATER RESOURCES ASSN,23-Jul,8/4/2023,17292,WA ST WATER RESOURCES ASSN,5313.41,0.0,5313.41,0.0,0.0,0.0,0.0,0.0,0.0,0.0,5313.41,19580,Direct,,,View report (https://accesshub.pdc.wa.gov/node/107199),Local government,Special purpose government administration,Senate Housing & Local Government - House State Govt & Tribal Affairs
10282,106754-47744,106754,FE,17967,Bud Sizemore,Employer,47744,WA ST COUNCIL OF FIRE FIGHTERS,23-Jun,8/4/2023,17232,WA ST COUNCIL OF FIRE FIGHTERS,3852.64,0.0,3852.64,0.0,0.0,0.0,0.0,0.0,0.0,0.0,3852.64,47744,Direct,,,View report (https://accesshub.pdc.wa.gov/node/106754),Labor,Fire Service Issues,House of Representatives/Senate
10283,107204-50205,107204,FE,28264,Randazzo LLC,Employer,50205,Snoqualmie Tribe ,23-Jun,8/4/2023,31273,Snoqualmie Tribe ,4000.0,0.0,4000.0,0.0,0.0,0.0,0.0,0.0,0.0,0.0,4000.0,50205,Direct,,,View report (https://accesshub.pdc.wa.gov/node/107204),,,
10284,107205-50205,107205,FE,28264,Randazzo LLC,Employer,50205,Snoqualmie Tribe ,23-Jul,8/4/2023,31273,Snoqualmie Tribe ,4000.0,0.0,4000.0,0.0,0.0,0.0,0.0,0.0,0.0,0.0,4000.0,50205,Direct,,,View report (https://accesshub.pdc.wa.gov/node/107205),,,
10285,107197-50931,107197,FE,50787,Serlin Haley LLP,Employer,50931,AMERIPEN,23-Jul,8/4/2023,50868,AMERIPEN,300.0,0.0,300.0,0.0,0.0,0.0,0.0,0.0,0.0,0.0,300.0,50931,Direct,,,View report (https://accesshub.pdc.wa.gov/node/107197),Environmental Affairs - natural resources - parks,"HB1131, SB5154","House and Senate Environment Committees, House Appropriations, Senate Ways and Means Committee"
10286,107196-35258,107196,FE,34688,Roz Thompson,Employer,35258,ASSN OF WA SCHOOL PRINCIPALS,23-Jul,8/4/2023,16173,ASSN OF WA SCHOOL PRINCIPALS,1410.18,0.0,1410.18,0.0,0.0,0.0,0.0,0.0,0.0,0.0,1410.18,35258,Direct,,,View report (https://accesshub.pdc.wa.gov/node/107196),Education,"Bills from the 2023 legislative session including budget, sped, transportation, TTK, mental health, various policy bills, dual credit, and workforce needs","State Board of Education, OSPI, WASA/WASBO, PESB, WSSDA, WEA, Governors Office, OFM, PTA, WSAC"
10287,107190-19857,107190,FE,18071,WA ST NURSES ASSN,Employer,19857,SCHOOL NURSES ORGANIZATION OF WA,23-Jul,8/4/2023,16882,SCHOOL NURSES ORGANIZATION OF WA,500.0,0.0,500.0,0.0,0.0,0.0,0.0,0.0,0.0,0.0,500.0,19857,Direct,,,View report (https://accesshub.pdc.wa.gov/node/107190),Health Care,Nursing/Health Care Issues,"Healthcare, Labor, Budget Committees, Dept of Health, Labor and Industries"
10288,107181-80023,107181,FE,49611,Devon S. Connor-Green,Employer,80023,GILEAD SCIENCES INC,23-Jul,8/4/2023,16471,GILEAD SCIENCES INC,5000.0,0.0,5000.0,0.0,0.0,0.0,0.0,0.0,0.0,0.0,5000.0,80023,Direct,,,View report (https://accesshub.pdc.wa.gov/node/107181),Health Care,Health Care,All House & Senate
10289,107191-40789,107191,FE,17847,LEE NEWGENT,Employer,40789,Pharmaceutical Industry Labor-Management Association,23-Aug,8/4/2023,40615,Pharmaceutical Industry Labor-Management Association,7500.0,0.0,7500.0,0.0,0.0,0.0,0.0,0.0,0.0,0.0,7500.0,40789,Direct,,,View report (https://accesshub.pdc.wa.gov/node/107191),Health Care,1269,House Wellness
10290,101995-40789,101995,FE,17847,LEE NEWGENT,Employer,40789,Pharmaceutical Industry Labor-Management Association,23-Jun,8/4/2023,40615,Pharmaceutical Industry Labor-Management Association,7500.0,0.0,7500.0,0.0,0.0,0.0,0.0,0.0,0.0,0.0,7500.0,40789,Direct,,,View report (https://accesshub.pdc.wa.gov/node/101995),Health Care,1269,House Wellness
10291,99614-40789,99614,FE,17847,LEE NEWGENT,Employer,40789,Pharmaceutical Industry Labor-Management Association,23-Jan,8/4/2023,40615,Pharmaceutical Industry Labor-Management Association,7500.0,0.0,7500.0,0.0,0.0,0.0,0.0,0.0,0.0,0.0,7500.0,40789,Direct,,,View report (https://accesshub.pdc.wa.gov/node/99614),Health Care,1269,25
10294,107181-49630,107181,FE,49611,Devon S. Connor-Green,Employer,49630,ARNPS UNITED OF WA ST,23-Jul,8/4/2023,16070,ARNPS UNITED OF WA ST,1500.0,0.0,1500.0,0.0,0.0,0.0,0.0,0.0,0.0,0.0,1500.0,49630,Direct,,,View report (https://accesshub.pdc.wa.gov/node/107181),Health Care,Health Care,"H Health Care, S Health Care"
10295,107181-70233,107181,FE,49611,Devon S. Connor-Green,Employer,70233,ASSN OF ADV PRACTICE PSYCHIATRIC NURSES,23-Jul,8/4/2023,16147,ASSN OF ADV PRACTICE PSYCHIATRIC NURSES,1250.0,0.0,1250.0,0.0,0.0,0.0,0.0,0.0,0.0,0.0,1250.0,70233,Direct,,,View report (https://accesshub.pdc.wa.gov/node/107181),Health Care,Health Care,"H Health Care, S Health Care"
10296,107181-86707,107181,FE,49611,Devon S. Connor-Green,Employer,86707,Children's Alliance,23-Jul,8/4/2023,16256,Children's Alliance,5500.0,0.0,5500.0,0.0,0.0,0.0,0.0,0.0,0.0,0.0,5500.0,86707,Direct,,,View report (https://accesshub.pdc.wa.gov/node/107181),,,
10297,107184-19730,107184,FE,18011,JOSHUA J SWANSON,Employer,19730,IUOE LOCAL 302,23-Jul,8/4/2023,16552,IUOE LOCAL 302,6193.56,0.0,6193.56,0.0,0.0,0.0,0.0,0.0,0.0,0.0,6193.56,19730,Direct,,,View report (https://accesshub.pdc.wa.gov/node/107184),Labor,"Public Safety, Prevailing Wage, Worker Comp, UI, Safety and Health, Transportation Capital Budget, Apprenticeship, Supplement Budget","Labor & Industries, Employment Security, Department of Transportation, House Appropriations, Senate Labor and Commerce, House Labor and Workforce Department, Senate and House Transportation, Senate Ways and Means, Senate and House Capital Budget."
10298,104324-84916,104324,FE,67155,FMS Global Strategies,Employer,84916,UNITED WAY OF KING CO,23-Apr,8/4/2023,17018,UNITED WAY OF KING CO,17000.0,0.0,17000.0,0.0,0.0,0.0,0.0,0.0,0.0,0.0,17000.0,84916,Direct,,,View report (https://accesshub.pdc.wa.gov/node/104324),,,
10299,106155-84916,106155,FE,67155,FMS Global Strategies,Employer,84916,UNITED WAY OF KING CO,23-May,8/4/2023,17018,UNITED WAY OF KING CO,17000.0,0.0,17000.0,0.0,0.0,0.0,0.0,0.0,0.0,0.0,17000.0,84916,Direct,,,View report (https://accesshub.pdc.wa.gov/node/106155),,,
10301,104324-73019,104324,FE,67155,FMS Global Strategies,Employer,73019,Doxiedor LLC,23-Apr,8/4/2023,72662,Doxiedor LLC,10000.0,0.0,10000.0,0.0,0.0,0.0,0.0,0.0,0.0,0.0,10000.0,73019,Direct,,,View report (https://accesshub.pdc.wa.gov/node/104324),,,
10302,106155-73019,106155,FE,67155,FMS Global Strategies,Employer,73019,Doxiedor LLC,23-May,8/4/2023,72662,Doxiedor LLC,10000.0,0.0,10000.0,0.0,0.0,0.0,0.0,0.0,0.0,0.0,10000.0,73019,Direct,,,View report (https://accesshub.pdc.wa.gov/node/106155),,,
10303,104324-73796,104324,FE,67155,FMS Global Strategies,Employer,73796,WA Build Back Black Alliance,23-Apr,8/4/2023,73022,WA Build Back Black Alliance,12000.0,0.0,12000.0,0.0,0.0,0.0,0.0,0.0,0.0,0.0,12000.0,73796,Direct,,,View report (https://accesshub.pdc.wa.gov/node/104324),Transportation,Various,Sen. Liias
10304,106155-73796,106155,FE,67155,FMS Global Strategies,Employer,73796,WA Build Back Black Alliance,23-May,8/4/2023,73022,WA Build Back Black Alliance,12000.0,0.0,12000.0,0.0,0.0,1000.0,0.0,0.0,0.0,1000.0,13000.0,73796,Direct,,,View report (https://accesshub.pdc.wa.gov/node/106155),Education,Appropriation,Rep. Debra Entenman
10305,107181-96464,107181,FE,49611,Devon S. Connor-Green,Employer,96464,Tubman Center for Health,23-Jul,8/4/2023,82670,Tubman Center for Health,2750.0,0.0,2750.0,0.0,0.0,0.0,0.0,0.0,0.0,0.0,2750.0,96464,Direct,,,View report (https://accesshub.pdc.wa.gov/node/107181),Health Care,Health Care,All House & Senate
10306,104324-91396,104324,FE,67155,FMS Global Strategies,Employer,91396,BTA Holdings LLC,23-Apr,8/4/2023,91395,BTA Holdings LLC,4166.67,0.0,4166.67,0.0,0.0,0.0,0.0,0.0,0.0,0.0,4166.67,91396,Direct,,,View report (https://accesshub.pdc.wa.gov/node/104324),,,
10307,106155-91396,106155,FE,67155,FMS Global Strategies,Employer,91396,BTA Holdings LLC,23-May,8/4/2023,91395,BTA Holdings LLC,4166.0,0.0,4166.0,0.0,0.0,0.0,0.0,0.0,0.0,0.0,4166.0,91396,Direct,,,View report (https://accesshub.pdc.wa.gov/node/106155),,,
10308,103191-73019,103191,FE,67155,FMS Global Strategies,Employer,73019,Doxiedor LLC,23-Mar,8/5/2023,72662,Doxiedor LLC,10000.0,0.0,10000.0,0.0,0.0,0.0,0.0,0.0,0.0,0.0,10000.0,73019,Direct,,,View report (https://accesshub.pdc.wa.gov/node/103191),,,
10309,103191-73796,103191,FE,67155,FMS Global Strategies,Employer,73796,WA Build Back Black Alliance,23-Mar,8/5/2023,73022,WA Build Back Black Alliance,12000.0,0.0,12000.0,0.0,0.0,0.0,0.0,0.0,0.0,0.0,12000.0,73796,Direct,,,View report (https://accesshub.pdc.wa.gov/node/103191),State government,5286,Labor and Commerce
10310,103191-84916,103191,FE,67155,FMS Global Strategies,Employer,84916,UNITED WAY OF KING CO,23-Mar,8/5/2023,17018,UNITED WAY OF KING CO,2000.0,0.0,2000.0,0.0,0.0,0.0,0.0,0.0,0.0,0.0,2000.0,84916,Direct,,,View report (https://accesshub.pdc.wa.gov/node/103191),,,
10311,103191-91396,103191,FE,67155,FMS Global Strategies,Employer,91396,BTA Holdings LLC,23-Mar,8/5/2023,91395,BTA Holdings LLC,4166.67,0.0,4166.67,0.0,0.0,0.0,0.0,0.0,0.0,0.0,4166.67,91396,Direct,,,View report (https://accesshub.pdc.wa.gov/node/103191),,,
10312,107214-95915,107214,FE,18007,JOHN STUHLMILLER,Employer,95915,WA ST WATER RESOURCES ASSN,23-Jul,8/6/2023,17292,WA ST WATER RESOURCES ASSN,1000.0,0.0,1000.0,0.0,0.0,0.0,0.0,0.0,0.0,0.0,1000.0,95915,Direct,,,View report (https://accesshub.pdc.wa.gov/node/107214),Agriculture,Various water resource issues,"Various state agencies including Ecology, Fish and Wildlife, and Agriculture"
10313,107214-95916,107214,FE,18007,JOHN STUHLMILLER,Employer,95916,SYNGENTA,23-Jul,8/6/2023,16964,SYNGENTA,2000.0,0.0,2000.0,0.0,0.0,0.0,0.0,0.0,0.0,0.0,2000.0,95916,Direct,,,View report (https://accesshub.pdc.wa.gov/node/107214),Environmental Affairs - natural resources - parks,Regulatory and environmental issues,"Various agencies including Ecology, Agriculture, and Health"
10314,107215-18636,107215,FE,17511,TOM ECHOLS,Employer,18636,CIGAR ASSN OF AMERICA,23-Jul,8/6/2023,16262,CIGAR ASSN OF AMERICA,3458.33,0.0,3458.33,0.0,0.0,0.0,0.0,0.0,0.0,0.0,3458.33,18636,Direct,,,View report (https://accesshub.pdc.wa.gov/node/107215),Business and consumer affairs,Cigars and Pipe Tobacco,H&S Business Committees
10315,107215-18637,107215,FE,17511,TOM ECHOLS,Employer,18637,COALITION OF COASTAL FISHERIES,23-Jul,8/6/2023,16331,COALITION OF COASTAL FISHERIES,1750.0,0.0,1750.0,0.0,0.0,0.0,0.0,0.0,0.0,0.0,1750.0,18637,Direct,,,View report (https://accesshub.pdc.wa.gov/node/107215),Environmental Affairs - natural resources - parks,Commercial Fishing,H&S Agriculture and Natural Resources Committees
10316,107215-18639,107215,FE,17511,TOM ECHOLS,Employer,18639,PURSE SEINE VESSEL OWNERS ASSN,23-Jul,8/6/2023,16834,PURSE SEINE VESSEL OWNERS ASSN,2000.0,0.0,2000.0,0.0,0.0,0.0,0.0,0.0,0.0,0.0,2000.0,18639,Direct,,,View report (https://accesshub.pdc.wa.gov/node/107215),Environmental Affairs - natural resources - parks,Commercial Fishing,H&S Agriculture and Natural Resources COmmittees
10317,107215-92588,107215,FE,17511,TOM ECHOLS,Employer,92588,7-ELEVEN INC,23-Jul,8/6/2023,16931,7-ELEVEN INC,6000.0,0.0,6000.0,0.0,0.0,0.0,0.0,0.0,0.0,0.0,6000.0,92588,Direct,,,View report (https://accesshub.pdc.wa.gov/node/107215),Business and consumer affairs,Consumer Retail,H&S Business Committees
