,id,report_number,origin,filer_id,filer_name,type,funding_source_id,funding_source_name,filing_period,receipt_date,employer_id,employer_name,compensation,sub_lobbyist_compensation,net_compensation,personal_expenses,entertainment,contributions,advertising,political_ads,other,total_expenses,net_total,employment_registration_id,employment_type,contractor_id,contractor_name,url,legislation_subject_matter,issue_bill_number,committee_lobbied
7683,25380-18730,25380,FE,17553,JESSICA FORTESCUE,Employer,18730,ABBVIE INC,16-Aug,9/13/2016,16061.0,ABBVIE INC,2500.0,0.0,2500.0,0.0,0.0,0.0,0.0,0.0,0.0,0.0,2500.0,18730.0,Direct,,,View report (https://accesshub.pdc.wa.gov/node/25380),Health Care,Health,"Health, FII, DOH, OIC"
7684,25282-18877,25282,FE,17589,GOVERNMENT RELATIONS SERVICES*,Employer,18877,ACTION FOR RHC'S,16-Aug,9/13/2016,16066.0,ACTION FOR RHC'S,3000.0,0.0,3000.0,0.0,0.0,0.0,0.0,0.0,1500.0,1500.0,4500.0,18877.0,Direct,,,View report (https://accesshub.pdc.wa.gov/node/25282),Human services,developmentally disabled issues,CAPITAL BUDGET OTHER FISCALS
7686,25359-18487,25359,FE,17461,JOHN S CONNIFF PLLC*,Employer,18487,Aetna,16-Jul,9/13/2016,16073.0,Aetna,5425.0,0.0,5425.0,0.0,0.0,0.0,0.0,0.0,0.0,0.0,5425.0,18487.0,Direct,,,View report (https://accesshub.pdc.wa.gov/node/25359),Health Care,Health Insurance,Insurance Commissioner
7687,25362-18487,25362,FE,17461,JOHN S CONNIFF PLLC*,Employer,18487,Aetna,16-Aug,9/13/2016,16073.0,Aetna,5425.0,0.0,5425.0,0.0,0.0,0.0,0.0,0.0,0.0,0.0,5425.0,18487.0,Direct,,,View report (https://accesshub.pdc.wa.gov/node/25362),Health Care,Health Insurance,Insurance Commissioner
7688,25032-19774,25032,FE,18034,The Nichols Group Government Relations LLC,Employer,19774,AMERICAN DEALER LICENSE INC,16-Aug,9/13/2016,16100.0,AMERICAN DEALER LICENSE INC,2000.0,0.0,2000.0,0.0,0.0,0.0,0.0,0.0,0.0,0.0,2000.0,19774.0,Direct,,,View report (https://accesshub.pdc.wa.gov/node/25032),Business and consumer affairs,Auto Wholesaler Licensing,"Transportation committees, Dept of Licensing"
7689,24608-18251,24608,FE,17393,Bogard & Johnson LLC,Employer,18251,AMERICAN EXPRESS TRAVEL RELATED SERVICES,16-Jul,9/13/2016,16102.0,AMERICAN EXPRESS TRAVEL RELATED SERVICES,2500.0,0.0,2500.0,0.0,0.0,0.0,0.0,0.0,0.0,0.0,2500.0,18251.0,Direct,,,View report (https://accesshub.pdc.wa.gov/node/24608),Financial institutions and insurance,Credit Cards,HFI; SFI
7690,25428-18673,25428,FE,17528,LUKE ESSER,Employer,18673,"Elevance Health, and its Affiliates",16-Aug,9/13/2016,16107.0,"Elevance Health, and its Affiliates",3000.0,0.0,3000.0,0.0,0.0,0.0,0.0,0.0,0.0,0.0,3000.0,18673.0,Direct,,,View report (https://accesshub.pdc.wa.gov/node/25428),Fiscal,Medicaid,Sen. Ways & Means; House Appropriations
7691,25380-20031,25380,FE,17553,JESSICA FORTESCUE,Employer,20031,ASSN of WA Housing Authorities (PIERCE CONSULTING SVCS LLC*),16-Aug,9/13/2016,16155.0,ASSN of WA Housing Authorities,252.5,0.0,252.5,0.0,0.0,0.0,0.0,0.0,0.0,0.0,252.5,20031.0,Subcontract,17597.0,PIERCE CONSULTING SVCS LLC*,View report (https://accesshub.pdc.wa.gov/node/25380),,,
7692,25363-18867,25363,FE,17582,GORDON THOMAS HONEYWELL LAW*,Employer,18867,ASSN OF WA SPIRITS & WINE DISTRIBUTORS,16-Aug,9/13/2016,16172.0,ASSN OF WA SPIRITS & WINE DISTRIBUTORS,4000.0,0.0,4000.0,0.0,0.0,0.0,0.0,0.0,0.0,0.0,4000.0,18867.0,Direct,,,View report (https://accesshub.pdc.wa.gov/node/25363),Business and consumer affairs,Alcohol,Alcohol regulations/Senate Ways Means House Gov Ac
7695,24376-19087,24376,FE,17710,TERRY KOHL,Employer,19087,BACK COUNTRY HORSEMEN OF WA,16-Jul,9/13/2016,16181.0,BACK COUNTRY HORSEMEN OF WA,625.0,0.0,625.0,13.74,0.0,0.0,0.0,0.0,0.0,13.74,638.74,19087.0,Direct,,,View report (https://accesshub.pdc.wa.gov/node/24376),Business and consumer affairs,recreation fees fuel tax refund,HS Natural Resources WM
7696,25429-19087,25429,FE,17710,TERRY KOHL,Employer,19087,BACK COUNTRY HORSEMEN OF WA,16-Aug,9/13/2016,16181.0,BACK COUNTRY HORSEMEN OF WA,625.0,0.0,625.0,13.74,0.0,0.0,0.0,0.0,0.0,13.74,638.74,19087.0,Direct,,,View report (https://accesshub.pdc.wa.gov/node/25429),Business and consumer affairs,Recreation fees fuel tax refund,HS Natural Resources WM
7697,25405-18791,25405,FE,17574,ADAM GITLIN,Employer,18791,BRENNAN CENTER FOR JUSTICE,16-Aug,9/13/2016,16207.0,BRENNAN CENTER FOR JUSTICE,297.0,0.0,297.0,0.0,0.0,0.0,0.0,0.0,0.0,0.0,297.0,18791.0,Direct,,,View report (https://accesshub.pdc.wa.gov/node/25405),Constitutions and elections,Automatic Voter Registration,House Democratic Legislative Caucus
7698,25322-20042,25322,FE,17935,Nancy Sapiro,Employer,20042,BUILDING CHANGES (PAM CRONE LEGISLATIVE CONSULTING SVCS*),16-Aug,9/13/2016,16214.0,BUILDING CHANGES,325.0,0.0,325.0,0.0,0.0,0.0,0.0,0.0,0.0,0.0,325.0,20042.0,Subcontract,17875.0,PAM CRONE LEGISLATIVE CONSULTING SVCS*,View report (https://accesshub.pdc.wa.gov/node/25322),,,
7702,25421-24639,25421,FE,24638,Recreational Services LLC,Employer,24639,CANNABIS ORGANIZATION OF RETAIL ESTABLISHMENTS,16-Aug,9/13/2016,16224.0,CANNABIS ORGANIZATION OF RETAIL ESTABLISHMENTS,3000.0,0.0,3000.0,0.0,0.0,0.0,0.0,0.0,0.0,0.0,3000.0,24639.0,Direct,,,View report (https://accesshub.pdc.wa.gov/node/25421),Business and consumer affairs,Taxation and Financial Services,Business and Financial Services
7704,25416-19648,25416,FE,17977,SOUND VIEW STRATEGIES LLC*,Employer,19648,CGI TECHNOLOGIES & SOLUTIONS INC,16-Aug,9/13/2016,16250.0,CGI TECHNOLOGIES & SOLUTIONS INC,5000.0,0.0,5000.0,0.0,0.0,0.0,0.0,0.0,0.0,0.0,5000.0,19648.0,Direct,,,View report (https://accesshub.pdc.wa.gov/node/25416),Technology,General Governement,Department of Revenue
7707,24852-19198,24852,FE,17775,DAVE MASTIN,Employer,19198,CITY OF WALLA WALLA,16-Jul,9/13/2016,16271.0,CITY OF WALLA WALLA,1000.0,0.0,1000.0,0.0,0.0,0.0,0.0,0.0,0.0,0.0,1000.0,19198.0,Direct,,,View report (https://accesshub.pdc.wa.gov/node/24852),Local government,Economic Development,Transportation
7709,24852-19199,24852,FE,17775,DAVE MASTIN,Employer,19199,CITY OF COLLEGE PLACE,16-Jul,9/13/2016,16279.0,CITY OF COLLEGE PLACE,1000.0,0.0,1000.0,0.0,0.0,0.0,0.0,0.0,0.0,0.0,1000.0,19199.0,Direct,,,View report (https://accesshub.pdc.wa.gov/node/24852),Local government,Economic Development,Transportation
7711,25272-19389,25272,FE,17870,OUTCOMES BY LEVY LLC*,Employer,19389,CITY OF EVERETT,16-Aug,9/13/2016,16281.0,CITY OF EVERETT,6000.0,0.0,6000.0,200.77,0.0,0.0,0.0,0.0,0.0,200.77,6200.77,19389.0,Direct,,,View report (https://accesshub.pdc.wa.gov/node/25272),Local government,Concerns coming out of the 2016 legislative session and some key issues heading into the 2017 session,"Stokesbary, Farrell, Nealey, Pearson, Billig, Short, Padden, Ormsby, Riccelli, Lytton, Harmsworth, Fain, Gregerson"
7712,25272-19390,25272,FE,17870,OUTCOMES BY LEVY LLC*,Employer,19390,CITY OF FIFE,16-Aug,9/13/2016,16283.0,CITY OF FIFE,3300.0,0.0,3300.0,106.36,0.0,0.0,0.0,0.0,0.0,106.36,3406.36,19390.0,Direct,,,View report (https://accesshub.pdc.wa.gov/node/25272),Local government,Concerns coming out of the 2016 legislative session and some key issues heading into the 2017 session,"Stokesbary, Farrell, Nealey, Pearson, Billig, Short, Padden, Ormsby, Riccelli, Lytton, Harmsworth, Fain, Gregerson"
7713,25272-19391,25272,FE,17870,OUTCOMES BY LEVY LLC*,Employer,19391,CITY OF ISSAQUAH,16-Aug,9/13/2016,16286.0,CITY OF ISSAQUAH,4300.0,0.0,4300.0,271.34,0.0,0.0,0.0,0.0,0.0,271.34,4571.34,19391.0,Direct,,,View report (https://accesshub.pdc.wa.gov/node/25272),Local government,Concerns coming out of the 2016 legislative session and some key issues heading into the 2017 session,"Stokesbary, Farrell, Nealey, Pearson, Billig, Short, Padden, Ormsby, Riccelli, Lytton, Harmsworth, Fain, Gregerson"
7714,25272-19392,25272,FE,17870,OUTCOMES BY LEVY LLC*,Employer,19392,CITY OF KENT,16-Aug,9/13/2016,16288.0,CITY OF KENT,5800.0,0.0,5800.0,257.25,0.0,0.0,0.0,0.0,0.0,257.25,6057.25,19392.0,Direct,,,View report (https://accesshub.pdc.wa.gov/node/25272),Local government,Concerns coming out of the 2016 legislative session and some key issues heading into the 2017 session,"Stokesbary, Farrell, Nealey, Pearson, Billig, Short, Padden, Ormsby, Riccelli, Lytton, Harmsworth, Fain, Gregerson"
7715,25427-18318,25427,FE,17413,MARK O BROWN,Employer,18318,CITY OF LACEY,16-Aug,9/13/2016,16294.0,CITY OF LACEY,2500.0,0.0,2500.0,0.0,0.0,0.0,0.0,0.0,0.0,0.0,2500.0,18318.0,Direct,,,View report (https://accesshub.pdc.wa.gov/node/25427),Fiscal,Local Goverment,Local Government
7716,25427-18319,25427,FE,17413,MARK O BROWN,Employer,18319,CITY OF LONGVIEW,16-Aug,9/13/2016,16295.0,CITY OF LONGVIEW,2000.0,0.0,2000.0,0.0,0.0,0.0,0.0,0.0,0.0,0.0,2000.0,18319.0,Direct,,,View report (https://accesshub.pdc.wa.gov/node/25427),Fiscal,Local Goverment,Local Government
7717,25272-19393,25272,FE,17870,OUTCOMES BY LEVY LLC*,Employer,19393,CITY OF LAKE STEVENS,16-Aug,9/13/2016,16297.0,CITY OF LAKE STEVENS,2600.0,0.0,2600.0,140.38,0.0,0.0,0.0,0.0,2754.44,2894.82,5494.82,19393.0,Direct,,,View report (https://accesshub.pdc.wa.gov/node/25272),Local government,Concerns coming out of the 2016 legislative session and some key issues heading into the 2017 session,"Stokesbary, Farrell, Nealey, Pearson, Billig, Short, Padden, Ormsby, Riccelli, Lytton, Harmsworth, Fain, Gregerson"
7718,25272-19394,25272,FE,17870,OUTCOMES BY LEVY LLC*,Employer,19394,CITY OF PUYALLUP,16-Aug,9/13/2016,16302.0,CITY OF PUYALLUP,4300.0,0.0,4300.0,111.76,0.0,0.0,0.0,0.0,0.0,111.76,4411.76,19394.0,Direct,,,View report (https://accesshub.pdc.wa.gov/node/25272),Local government,Concerns coming out of the 2016 legislative session and some key issues heading into the 2017 session,"Stokesbary, Farrell, Nealey, Pearson, Billig, Short, Padden, Ormsby, Riccelli, Lytton, Harmsworth, Fain, Gregerson"
7719,25272-19395,25272,FE,17870,OUTCOMES BY LEVY LLC*,Employer,19395,CITY OF RENTON,16-Aug,9/13/2016,16306.0,CITY OF RENTON,4000.0,0.0,4000.0,131.58,0.0,0.0,0.0,0.0,0.0,131.58,4131.58,19395.0,Direct,,,View report (https://accesshub.pdc.wa.gov/node/25272),Local government,Concerns coming out of the 2016 legislative session and some key issues heading into the 2017 session,"Stokesbary, Farrell, Nealey, Pearson, Billig, Short, Padden, Ormsby, Riccelli, Lytton, Harmsworth, Fain, Gregerson"
7720,25272-19396,25272,FE,17870,OUTCOMES BY LEVY LLC*,Employer,19396,CITY OF REDMOND,16-Aug,9/13/2016,16307.0,CITY OF REDMOND,5380.0,0.0,5380.0,212.97,0.0,0.0,0.0,0.0,0.0,212.97,5592.97,19396.0,Direct,,,View report (https://accesshub.pdc.wa.gov/node/25272),Local government,Concerns coming out of the 2016 legislative session and some key issues heading into the 2017 session,"Stokesbary, Farrell, Nealey, Pearson, Billig, Short, Padden, Ormsby, Riccelli, Lytton, Harmsworth, Fain, Gregerson"
7721,25427-18320,25427,FE,17413,MARK O BROWN,Employer,18320,CITY OF RIDGEFIELD,16-Aug,9/13/2016,16309.0,CITY OF RIDGEFIELD,1500.0,0.0,1500.0,0.0,0.0,0.0,0.0,0.0,0.0,0.0,1500.0,18320.0,Direct,,,View report (https://accesshub.pdc.wa.gov/node/25427),Fiscal,Local Goverment,Local Government
7722,25427-18321,25427,FE,17413,MARK O BROWN,Employer,18321,City of Vancouver,16-Aug,9/13/2016,16319.0,City of Vancouver,8500.0,0.0,8500.0,0.0,0.0,0.0,0.0,0.0,0.0,0.0,8500.0,18321.0,Direct,,,View report (https://accesshub.pdc.wa.gov/node/25427),Fiscal,Local Goverment,Local Government
7723,25380-19950,25380,FE,17553,JESSICA FORTESCUE,Employer,19950,CNSI (PIERCE CONSULTING SVCS LLC*),16-Aug,9/13/2016,16330.0,CNSI,301.0,0.0,301.0,0.0,0.0,0.0,0.0,0.0,0.0,0.0,301.0,19950.0,Subcontract,17597.0,PIERCE CONSULTING SVCS LLC*,View report (https://accesshub.pdc.wa.gov/node/25380),,,
7724,24608-18253,24608,FE,17393,Bogard & Johnson LLC,Employer,18253,WILLAMETTE DENTAL MANAGEMENT CORP,16-Jul,9/13/2016,16337.0,WILLAMETTE DENTAL MANAGEMENT CORP,2000.0,0.0,2000.0,0.0,0.0,0.0,0.0,0.0,0.0,0.0,2000.0,18253.0,Direct,,,View report (https://accesshub.pdc.wa.gov/node/24608),Health Care,Health Care,H HC; S HC
7726,25380-19984,25380,FE,17553,JESSICA FORTESCUE,Employer,19984,COMCAST CABLE COMMUNICATIONS (PIERCE CONSULTING SVCS LLC*),16-Aug,9/13/2016,16344.0,COMCAST CABLE COMMUNICATIONS,401.0,0.0,401.0,0.0,0.0,0.0,0.0,0.0,0.0,0.0,401.0,19984.0,Subcontract,17597.0,PIERCE CONSULTING SVCS LLC*,View report (https://accesshub.pdc.wa.gov/node/25380),,,
7727,24608-18254,24608,FE,17393,Bogard & Johnson LLC,Employer,18254,COMMUNITY RESIDENTIAL SERVICES ASSN,16-Jul,9/13/2016,16350.0,COMMUNITY RESIDENTIAL SERVICES ASSN,3100.0,0.0,3100.0,239.22,0.0,0.0,0.0,0.0,0.0,239.22,3339.22,18254.0,Direct,,,View report (https://accesshub.pdc.wa.gov/node/24608),Human services,Developmental Disabilities,H Approps; S W&M; H EL&HS; S HS
7728,25322-23620,25322,FE,17935,Nancy Sapiro,Employer,23620,End of Life Washington,16-Aug,9/13/2016,16352.0,End of Life Washington,1500.0,0.0,1500.0,0.0,0.0,0.0,0.0,0.0,0.0,0.0,1500.0,23620.0,Direct,,,View report (https://accesshub.pdc.wa.gov/node/25322),Health Care,Death With Dignity,Health Care Committees and Judiciary and Law and Justice; DOH
7729,24608-18255,24608,FE,17393,Bogard & Johnson LLC,Employer,18255,WA STATE CONVENTION CENTER PUBLIC FACILITIES DIST,16-Jul,9/13/2016,16364.0,WA STATE CONVENTION CENTER PUBLIC FACILITIES DIST,3500.0,0.0,3500.0,0.0,0.0,0.0,0.0,0.0,0.0,0.0,3500.0,18255.0,Direct,,,View report (https://accesshub.pdc.wa.gov/node/24608),Business and consumer affairs,Hotel Taxes,S W&M; H Fin
7730,24376-19088,24376,FE,17710,TERRY KOHL,Employer,19088,COPSYNC INC,16-Jul,9/13/2016,16368.0,COPSYNC INC,2000.0,0.0,2000.0,230.93,0.0,2000.0,0.0,0.0,0.0,2230.93,4230.93,19088.0,Direct,,,View report (https://accesshub.pdc.wa.gov/node/24376),Business and consumer affairs,Fiscal school security,WM Appropriations
7731,25429-19088,25429,FE,17710,TERRY KOHL,Employer,19088,COPSYNC INC,16-Aug,9/13/2016,16368.0,COPSYNC INC,2000.0,0.0,2000.0,193.98,0.0,0.0,0.0,0.0,0.0,193.98,2193.98,19088.0,Direct,,,View report (https://accesshub.pdc.wa.gov/node/25429),Business and consumer affairs,Fiscal school security,WM Appropriations
7732,24608-18256,24608,FE,17393,Bogard & Johnson LLC,Employer,18256,"CoreCivic, Inc.",16-Jul,9/13/2016,16369.0,"CoreCivic, Inc.",1500.0,0.0,1500.0,0.0,0.0,0.0,0.0,0.0,0.0,0.0,1500.0,18256.0,Direct,,,View report (https://accesshub.pdc.wa.gov/node/24608),Law and justice,Private Prisons,H PS; S HS
7733,24608-18257,24608,FE,17393,Bogard & Johnson LLC,Employer,18257,CULTURAL ACCESS WA,16-Jul,9/13/2016,16376.0,CULTURAL ACCESS WA,1500.0,0.0,1500.0,0.0,0.0,0.0,0.0,0.0,0.0,0.0,1500.0,18257.0,Direct,,,View report (https://accesshub.pdc.wa.gov/node/24608),Business and consumer affairs,Arts Funding,H CDH&TA; S WM
7734,24376-19089,24376,FE,17710,TERRY KOHL,Employer,19089,FAMILY WINERIES OF WA ST,16-Jul,9/13/2016,16434.0,FAMILY WINERIES OF WA ST,208.33,0.0,208.33,7.63,0.0,0.0,0.0,0.0,0.0,7.63,215.96,19089.0,Direct,,,View report (https://accesshub.pdc.wa.gov/node/24376),Business and consumer affairs,Washington Wineries,HS Senate Commerce Law
7735,25429-19089,25429,FE,17710,TERRY KOHL,Employer,19089,FAMILY WINERIES OF WA ST,16-Aug,9/13/2016,16434.0,FAMILY WINERIES OF WA ST,208.33,0.0,208.33,7.63,0.0,0.0,0.0,0.0,0.0,7.63,215.96,19089.0,Direct,,,View report (https://accesshub.pdc.wa.gov/node/25429),Business and consumer affairs,Washington Wineries,HS Senate Commere Law
7736,25322-19968,25322,FE,17935,Nancy Sapiro,Employer,19968,CEDAR RIVER CLINICS (PAM CRONE LEGISLATIVE CONSULTING SVCS*),16-Aug,9/13/2016,16439.0,CEDAR RIVER CLINICS,375.0,0.0,375.0,0.0,0.0,0.0,0.0,0.0,0.0,0.0,375.0,19968.0,Subcontract,17875.0,PAM CRONE LEGISLATIVE CONSULTING SVCS*,View report (https://accesshub.pdc.wa.gov/node/25322),,,
7737,25380-19975,25380,FE,17553,JESSICA FORTESCUE,Employer,19975,RUSSELL INVESTMENT GROUP (PIERCE CONSULTING SVCS LLC*),16-Aug,9/13/2016,16456.0,RUSSELL INVESTMENT GROUP,301.0,0.0,301.0,0.0,0.0,0.0,0.0,0.0,0.0,0.0,301.0,19975.0,Subcontract,17597.0,PIERCE CONSULTING SVCS LLC*,View report (https://accesshub.pdc.wa.gov/node/25380),,,
7739,24608-18258,24608,FE,17393,Bogard & Johnson LLC,Employer,18258,GENERAL MOTORS LLC,16-Jul,9/13/2016,16466.0,GENERAL MOTORS LLC,3000.0,0.0,3000.0,0.0,0.0,0.0,0.0,0.0,0.0,0.0,3000.0,18258.0,Direct,,,View report (https://accesshub.pdc.wa.gov/node/24608),Environmental Affairs - natural resources - parks,"Electric Vehicles, Auto Franchies",H Env; S E&E
7741,24608-18259,24608,FE,17393,Bogard & Johnson LLC,Employer,18259,IGT GLOBAL SOLUTIONS AND ITS AFFILIATES,16-Jul,9/13/2016,16486.0,IGT GLOBAL SOLUTIONS AND ITS AFFILIATES,6000.0,0.0,6000.0,0.0,0.0,0.0,0.0,0.0,0.0,0.0,6000.0,18259.0,Direct,,,View report (https://accesshub.pdc.wa.gov/node/24608),Technology,Lottery,"WA Lottery; H ComGaming, S Com"
7742,25428-18674,25428,FE,17528,LUKE ESSER,Employer,18674,H2VTECH LLC,16-Aug,9/13/2016,16488.0,H2VTECH LLC,5000.0,0.0,5000.0,0.0,0.0,0.0,0.0,0.0,0.0,0.0,5000.0,18674.0,Direct,,,View report (https://accesshub.pdc.wa.gov/node/25428),Technology,Hydrogen Technology,"Sen. Energy, Env. & Telecom.; House Technology & Econ. Devpmt."
7743,24608-18260,24608,FE,17393,Bogard & Johnson LLC,Employer,18260,WA ST ASSN OF HEADSTART ECEAP,16-Jul,9/13/2016,16495.0,WA ST ASSN OF HEADSTART ECEAP,1000.0,0.0,1000.0,32.4,0.0,0.0,0.0,0.0,0.0,32.4,1032.4,18260.0,Direct,,,View report (https://accesshub.pdc.wa.gov/node/24608),Education,Early Learning,H EL&HS; H Approps; S W&M; H Cap B
7744,25380-20053,25380,FE,17553,JESSICA FORTESCUE,Employer,20053,HONDA NORTH AMERICA (THRU MULTISTATE ASSOCIATES LLC) (MCBRIDE PUBLIC AFFAIRS LLC*),16-Aug,9/13/2016,16510.0,HONDA NORTH AMERICA (THRU MULTISTATE ASSOCIATES LLC),875.0,0.0,875.0,0.0,0.0,0.0,0.0,0.0,0.0,0.0,875.0,20053.0,Subcontract,17779.0,MCBRIDE PUBLIC AFFAIRS LLC*,View report (https://accesshub.pdc.wa.gov/node/25380),,,
7746,25282-18878,25282,FE,17589,GOVERNMENT RELATIONS SERVICES*,Employer,18878,IRON WORKERS DIST CNCL OF THE PNW,16-Aug,9/13/2016,16547.0,IRON WORKERS DIST CNCL OF THE PNW,2000.0,0.0,2000.0,0.0,0.0,0.0,0.0,0.0,0.0,0.0,2000.0,18878.0,Direct,,,View report (https://accesshub.pdc.wa.gov/node/25282),Transportation,transportation,TRANSPORTATION
7747,25428-18675,25428,FE,17528,LUKE ESSER,Employer,18675,KALISPEL TRIBE,16-Aug,9/13/2016,16570.0,KALISPEL TRIBE,4000.0,0.0,4000.0,0.0,0.0,0.0,0.0,0.0,0.0,0.0,4000.0,18675.0,Direct,,,View report (https://accesshub.pdc.wa.gov/node/25428),Environmental Affairs - natural resources - parks,Natural Resources,Sen. Natural Resources & Parks; House Environment
7750,25380-19965,25380,FE,17553,JESSICA FORTESCUE,Employer,19965,McDonalds Corporation (MCBRIDE PUBLIC AFFAIRS LLC*),16-Aug,9/13/2016,16625.0,McDonalds Corporation,875.0,0.0,875.0,0.0,0.0,0.0,0.0,0.0,0.0,0.0,875.0,19965.0,Subcontract,17779.0,MCBRIDE PUBLIC AFFAIRS LLC*,View report (https://accesshub.pdc.wa.gov/node/25380),,,
7751,24608-18261,24608,FE,17393,Bogard & Johnson LLC,Employer,18261,MEDTRONIC INC,16-Jul,9/13/2016,16631.0,MEDTRONIC INC,4000.0,0.0,4000.0,0.0,0.0,0.0,0.0,0.0,0.0,0.0,4000.0,18261.0,Direct,,,View report (https://accesshub.pdc.wa.gov/node/24608),Health Care,Medical Devices,"HCA, H HC, S HC"
7752,25380-20041,25380,FE,17553,JESSICA FORTESCUE,Employer,20041,MICROSOFT CORP (PIERCE CONSULTING SVCS LLC*),16-Aug,9/13/2016,16636.0,MICROSOFT CORP,401.0,0.0,401.0,0.0,0.0,0.0,0.0,0.0,0.0,0.0,401.0,20041.0,Subcontract,17597.0,PIERCE CONSULTING SVCS LLC*,View report (https://accesshub.pdc.wa.gov/node/25380),,,
7753,25314-19587,25314,FE,17950,SEIB POLICY & PUBLIC AFFAIRS*,Employer,19587,Molina Healthcare Inc,16-Aug,9/13/2016,16641.0,Molina Healthcare Inc,4000.0,0.0,4000.0,1746.87,0.0,0.0,0.0,0.0,0.0,1746.87,5746.87,19587.0,Direct,,,View report (https://accesshub.pdc.wa.gov/node/25314),Health Care,,
7754,24852-19200,24852,FE,17775,DAVE MASTIN,Employer,19200,MUCKLESHOOT INDIAN TRIBE,16-Jul,9/13/2016,16650.0,MUCKLESHOOT INDIAN TRIBE,6000.0,0.0,6000.0,0.0,0.0,0.0,0.0,0.0,0.0,0.0,6000.0,19200.0,Direct,,,View report (https://accesshub.pdc.wa.gov/node/24852),State government,Tribal issues,"Education, Fiscal, Natural Resources"
7756,24852-19201,24852,FE,17775,DAVE MASTIN,Employer,19201,Viatris Inc.,16-Jul,9/13/2016,16653.0,Viatris Inc.,4000.0,0.0,4000.0,0.0,0.0,0.0,0.0,0.0,0.0,0.0,4000.0,19201.0,Direct,,,View report (https://accesshub.pdc.wa.gov/node/24852),Health Care,Medicine,Health Care
7759,25322-19990,25322,FE,17935,Nancy Sapiro,Employer,19990,LEGAL VOICE (PAM CRONE LEGISLATIVE CONSULTING SVCS*),16-Aug,9/13/2016,16723.0,LEGAL VOICE,1000.0,0.0,1000.0,0.0,0.0,0.0,0.0,0.0,0.0,0.0,1000.0,19990.0,Subcontract,17875.0,PAM CRONE LEGISLATIVE CONSULTING SVCS*,View report (https://accesshub.pdc.wa.gov/node/25322),,,
7761,25423-19673,25423,FE,17985,DONALD STECHER,Employer,19673,"Novartis Services, Inc.",16-Aug,9/13/2016,16725.0,"Novartis Services, Inc.",1000.0,0.0,1000.0,584.92,153.42,0.0,0.0,0.0,0.0,738.34,1738.34,19673.0,Direct,,,View report (https://accesshub.pdc.wa.gov/node/25423),Health Care,Value of Pharmaceuticals,Entire Legislature
7762,25361-18919,25361,FE,17604,TOBY M GUEVIN,Employer,18919,ONE AMERICA VOTES,16-Aug,9/13/2016,16739.0,ONE AMERICA VOTES,225.12,0.0,225.12,0.0,0.0,0.0,0.0,0.0,0.0,0.0,225.12,18919.0,Direct,,,View report (https://accesshub.pdc.wa.gov/node/25361),State government,WA Voting Rights Act,State Government and Elections
7763,25426-19721,25426,FE,18005,KELLI STROTHER,Employer,19721,OTSUKA AMERICA PHARMACEUTICAL INC,16-Aug,9/13/2016,16743.0,OTSUKA AMERICA PHARMACEUTICAL INC,408.15,0.0,408.15,444.49,0.0,0.0,0.0,0.0,0.0,444.49,852.64,19721.0,Direct,,,View report (https://accesshub.pdc.wa.gov/node/25426),Health Care,"SB 6569, Patient OOP Task Force",Department of Health
7765,25314-19588,25314,FE,17950,SEIB POLICY & PUBLIC AFFAIRS*,Employer,19588,Paradigm Outcomes,16-Aug,9/13/2016,16761.0,Paradigm Outcomes,5000.0,0.0,5000.0,39.96,0.0,0.0,0.0,0.0,0.0,39.96,5039.96,19588.0,Direct,,,View report (https://accesshub.pdc.wa.gov/node/25314),,,
7766,25427-18323,25427,FE,17413,MARK O BROWN,Employer,18323,PARTNERS IN CAREERS,16-Aug,9/13/2016,16764.0,PARTNERS IN CAREERS,750.0,0.0,750.0,0.0,0.0,0.0,0.0,0.0,0.0,0.0,750.0,18323.0,Direct,,,View report (https://accesshub.pdc.wa.gov/node/25427),Fiscal,Local Goverment,Local Government
7767,25336-19045,25336,FE,17684,PATRICK JONES,Employer,19045,PORT OF MOSES LAKE,16-Aug,9/13/2016,16802.0,PORT OF MOSES LAKE,3000.0,0.0,3000.0,0.0,0.0,0.0,0.0,0.0,0.0,0.0,3000.0,19045.0,Direct,,,View report (https://accesshub.pdc.wa.gov/node/25336),Transportation,Transportation,Legislature
7768,24852-19202,24852,FE,17775,DAVE MASTIN,Employer,19202,PORT OF WALLA WALLA,16-Jul,9/13/2016,16809.0,PORT OF WALLA WALLA,1500.0,0.0,1500.0,554.16,0.0,0.0,0.0,0.0,0.0,554.16,2054.16,19202.0,Direct,,,View report (https://accesshub.pdc.wa.gov/node/24852),Local government,Economic Development,Transportation
7770,25326-19646,25326,FE,17975,LEONARD SORRIN,Employer,19646,PREMERA BLUE CROSS,16-Aug,9/13/2016,16812.0,PREMERA BLUE CROSS,202.88,0.0,202.88,0.0,0.0,5000.0,0.0,0.0,0.0,5000.0,5202.88,19646.0,Direct,,,View report (https://accesshub.pdc.wa.gov/node/25326),Health Care,Health Care Reform,Governor's Policy Office
7771,25325-19734,25325,FE,18014,SHEELA TALLMAN,Employer,19734,PREMERA BLUE CROSS,16-Aug,9/13/2016,16812.0,PREMERA BLUE CROSS,291.12,0.0,291.12,0.0,0.0,0.0,0.0,0.0,0.0,0.0,291.12,19734.0,Direct,,,View report (https://accesshub.pdc.wa.gov/node/25325),Health Care,"Opioids, Health Reform",WA Legislature and OIC
7772,24608-18263,24608,FE,17393,Bogard & Johnson LLC,Employer,18263,PROCTER & GAMBLE CO,16-Jul,9/13/2016,16814.0,PROCTER & GAMBLE CO,3250.0,0.0,3250.0,0.0,0.0,0.0,0.0,0.0,0.0,0.0,3250.0,18263.0,Direct,,,View report (https://accesshub.pdc.wa.gov/node/24608),Health Care,Product Stewardship,H Env; S Enery and Env
7773,24608-18264,24608,FE,17393,Bogard & Johnson LLC,Employer,18264,REPUBLIC SERVICES,16-Jul,9/13/2016,16839.0,REPUBLIC SERVICES,4200.0,0.0,4200.0,0.0,0.0,0.0,0.0,0.0,0.0,0.0,4200.0,18264.0,Direct,,,View report (https://accesshub.pdc.wa.gov/node/24608),Business and consumer affairs,Solid Waste,H Env; S E and E; DOE
7774,25272-19397,25272,FE,17870,OUTCOMES BY LEVY LLC*,Employer,19397,RECREATIONAL BOATING ASSN OF WA,16-Aug,9/13/2016,16844.0,RECREATIONAL BOATING ASSN OF WA,1000.0,0.0,1000.0,196.26,0.0,0.0,0.0,0.0,0.0,196.26,1196.26,19397.0,Direct,,,View report (https://accesshub.pdc.wa.gov/node/25272),Law and justice,Potential vessel impound authority legislation,State Parks
7775,25314-19589,25314,FE,17950,SEIB POLICY & PUBLIC AFFAIRS*,Employer,19589,RURAL HEALTH CLINIC ASSN,16-Aug,9/13/2016,16866.0,RURAL HEALTH CLINIC ASSN,2000.0,0.0,2000.0,0.0,0.0,0.0,0.0,0.0,0.0,0.0,2000.0,19589.0,Direct,,,View report (https://accesshub.pdc.wa.gov/node/25314),,,
7776,25032-19775,25032,FE,18034,The Nichols Group Government Relations LLC,Employer,19775,SCHNITZER STEEL INDUSTRIES INC,16-Aug,9/13/2016,16878.0,SCHNITZER STEEL INDUSTRIES INC,3804.0,0.0,3804.0,33.86,0.0,0.0,0.0,0.0,0.0,33.86,3837.86,19775.0,Direct,,,View report (https://accesshub.pdc.wa.gov/node/25032),Environmental Affairs - natural resources - parks,"Recycling, manufacturing","Environmental committees, Dept of Ecology"
7777,24608-24883,24608,FE,17393,Bogard & Johnson LLC,Employer,24883,SCHOOLS OUT WA,16-Jul,9/13/2016,16883.0,SCHOOLS OUT WA,2750.0,0.0,2750.0,0.0,0.0,0.0,0.0,0.0,0.0,0.0,2750.0,24883.0,Direct,,,View report (https://accesshub.pdc.wa.gov/node/24608),,,
7778,24608-18265,24608,FE,17393,Bogard & Johnson LLC,Employer,18265,SEATTLE KING CO CONVENTION & VISITORS BUREAU,16-Jul,9/13/2016,16895.0,SEATTLE KING CO CONVENTION & VISITORS BUREAU,2500.0,0.0,2500.0,0.0,0.0,0.0,0.0,0.0,0.0,0.0,2500.0,18265.0,Direct,,,View report (https://accesshub.pdc.wa.gov/node/24608),Business and consumer affairs,Tourism,S T & ED; H CDH&TA
7779,25428-18676,25428,FE,17528,LUKE ESSER,Employer,18676,SEIU 775,16-Aug,9/13/2016,16905.0,SEIU 775,4250.0,0.0,4250.0,0.0,0.0,0.0,0.0,0.0,0.0,0.0,4250.0,18676.0,Direct,,,View report (https://accesshub.pdc.wa.gov/node/25428),Fiscal,Medicaid,Sen. Ways & Means; House Appropriations
7780,25428-25026,25428,FE,17528,LUKE ESSER,Employer,25026,SIGNATURE HEALTHCARE SERVICES LLC (THOMAS M PARKER),16-Aug,9/13/2016,16917.0,SIGNATURE HEALTHCARE SERVICES LLC,2000.0,0.0,2000.0,0.0,0.0,0.0,0.0,0.0,0.0,0.0,2000.0,25026.0,Subcontract,17879.0,THOMAS M PARKER,View report (https://accesshub.pdc.wa.gov/node/25428),,,
7782,25282-18879,25282,FE,17589,GOVERNMENT RELATIONS SERVICES*,Employer,18879,"GB AUCTIONS, INC",16-Aug,9/13/2016,16940.0,"GB AUCTIONS, INC",1250.0,0.0,1250.0,0.0,0.0,17000.0,0.0,0.0,0.0,17000.0,18250.0,18879.0,Direct,,,View report (https://accesshub.pdc.wa.gov/node/25282),Business and consumer affairs,automotive business,CAPITAL BUDGET
7783,25314-19590,25314,FE,17950,SEIB POLICY & PUBLIC AFFAIRS*,Employer,19590,Astria Health,16-Aug,9/13/2016,16957.0,Astria Health,4000.0,0.0,4000.0,595.03,0.0,0.0,0.0,0.0,0.0,595.03,4595.03,19590.0,Direct,,,View report (https://accesshub.pdc.wa.gov/node/25314),,,
7785,25296-19573,25296,FE,17939,JOHN SCHLATTER,Employer,19573,TAKEDA PHARMACEUTICALS,16-Aug,9/13/2016,16970.0,TAKEDA PHARMACEUTICALS,2500.0,0.0,2500.0,0.0,0.0,0.0,0.0,0.0,0.0,0.0,2500.0,19573.0,Direct,,,View report (https://accesshub.pdc.wa.gov/node/25296),Health Care,,
7786,24608-18266,24608,FE,17393,Bogard & Johnson LLC,Employer,18266,"Axon Enterprise, Inc.",16-Jul,9/13/2016,16972.0,"Axon Enterprise, Inc.",4500.0,0.0,4500.0,70.2,0.0,0.0,0.0,0.0,0.0,70.2,4570.2,18266.0,Direct,,,View report (https://accesshub.pdc.wa.gov/node/24608),Law and justice,"Body Cameras, Deadly Force",H Jud; S L&J; H PS
7787,24608-18267,24608,FE,17393,Bogard & Johnson LLC,Employer,18267,WA TOURISM ALLIANCE,16-Jul,9/13/2016,16987.0,WA TOURISM ALLIANCE,6000.0,0.0,6000.0,186.25,0.0,0.0,0.0,0.0,0.0,186.25,6186.25,18267.0,Direct,,,View report (https://accesshub.pdc.wa.gov/node/24608),Business and consumer affairs,Tourism,S T & ED; H CDH&TA
7789,25400-19105,25400,FE,17720,EDLIRA KUKA,Employer,19105,VULCAN INC,16-Aug,9/13/2016,17039.0,VULCAN INC,2000.0,0.0,2000.0,0.0,0.0,0.0,0.0,0.0,0.0,0.0,2000.0,19105.0,Direct,,,View report (https://accesshub.pdc.wa.gov/node/25400),Transportation,na,na
7790,25380-20007,25380,FE,17553,JESSICA FORTESCUE,Employer,20007,VULCAN INC (PIERCE CONSULTING SVCS LLC*),16-Aug,9/13/2016,17039.0,VULCAN INC,326.0,0.0,326.0,0.0,0.0,0.0,0.0,0.0,0.0,0.0,326.0,20007.0,Subcontract,17597.0,PIERCE CONSULTING SVCS LLC*,View report (https://accesshub.pdc.wa.gov/node/25380),,,
7792,25200-18242,25200,FE,17384,ROBERT G BERSCHAUER,Employer,18242,WA AMBULANCE ASSN,16-Aug,9/13/2016,17045.0,WA AMBULANCE ASSN,225.0,0.0,225.0,23.0,0.0,0.0,0.0,0.0,0.0,23.0,248.0,18242.0,Direct,,,View report (https://accesshub.pdc.wa.gov/node/25200),Health Care,Medicaid Reimbursement,OFM
7793,25314-19591,25314,FE,17950,SEIB POLICY & PUBLIC AFFAIRS*,Employer,19591,WA ACADEMY OF FAMILY PHYSICIANS,16-Aug,9/13/2016,17052.0,WA ACADEMY OF FAMILY PHYSICIANS,3000.0,0.0,3000.0,55.62,0.0,0.0,0.0,0.0,0.0,55.62,3055.62,19591.0,Direct,,,View report (https://accesshub.pdc.wa.gov/node/25314),,,
7794,25032-19777,25032,FE,18034,The Nichols Group Government Relations LLC,Employer,19777,OPTOMETRIC PHYSICIANS OF WA,16-Aug,9/13/2016,17057.0,OPTOMETRIC PHYSICIANS OF WA,5775.0,0.0,5775.0,308.3,0.0,0.0,0.0,0.0,0.0,308.3,6083.3,19777.0,Direct,,,View report (https://accesshub.pdc.wa.gov/node/25032),Health Care,Eye care,"Health care committees, Dept of Health, Insurance Commissioner"
7795,25380-19974,25380,FE,17553,JESSICA FORTESCUE,Employer,19974,WA BANKERS ASSN (PIERCE CONSULTING SVCS LLC*),16-Aug,9/13/2016,17061.0,WA BANKERS ASSN,326.0,0.0,326.0,0.0,0.0,0.0,0.0,0.0,0.0,0.0,326.0,19974.0,Subcontract,17597.0,PIERCE CONSULTING SVCS LLC*,View report (https://accesshub.pdc.wa.gov/node/25380),,,
7797,25032-19778,25032,FE,18034,The Nichols Group Government Relations LLC,Employer,19778,WA CHRISTMAS TREE GROWERS,16-Aug,9/13/2016,17090.0,WA CHRISTMAS TREE GROWERS,750.0,0.0,750.0,0.0,0.0,0.0,0.0,0.0,0.0,0.0,750.0,19778.0,Direct,,,View report (https://accesshub.pdc.wa.gov/node/25032),Agriculture,"Land use, taxation","Agricultural committees, Dept of Agriculture"
7798,25380-20010,25380,FE,17553,JESSICA FORTESCUE,Employer,20010,Delta Dental of WA (PIERCE CONSULTING SVCS LLC*),16-Aug,9/13/2016,17096.0,Delta Dental of WA,301.0,0.0,301.0,0.0,0.0,0.0,0.0,0.0,0.0,0.0,301.0,20010.0,Subcontract,17597.0,PIERCE CONSULTING SVCS LLC*,View report (https://accesshub.pdc.wa.gov/node/25380),,,
7799,25380-19970,25380,FE,17553,JESSICA FORTESCUE,Employer,19970,COLLEGE SUCCESS FOUNDATION (PIERCE CONSULTING SVCS LLC*),16-Aug,9/13/2016,17104.0,COLLEGE SUCCESS FOUNDATION,250.0,0.0,250.0,0.0,0.0,0.0,0.0,0.0,0.0,0.0,250.0,19970.0,Subcontract,17597.0,PIERCE CONSULTING SVCS LLC*,View report (https://accesshub.pdc.wa.gov/node/25380),,,
7800,25329-19733,25329,FE,18013,DANIEL P SWECKER,Employer,19733,Northwest Aquaculture Alliance,16-Aug,9/13/2016,17115.0,Northwest Aquaculture Alliance,3800.0,0.0,3800.0,0.0,0.0,0.0,0.0,0.0,0.0,0.0,3800.0,19733.0,Direct,,,View report (https://accesshub.pdc.wa.gov/node/25329),Agriculture,Fish Farming,Dept of Agriculture
7801,25380-19986,25380,FE,17553,JESSICA FORTESCUE,Employer,19986,WA FOREST PROTECTION ASSN (PIERCE CONSULTING SVCS LLC*),16-Aug,9/13/2016,17120.0,WA FOREST PROTECTION ASSN,200.0,0.0,200.0,0.0,0.0,0.0,0.0,0.0,0.0,0.0,200.0,19986.0,Subcontract,17597.0,PIERCE CONSULTING SVCS LLC*,View report (https://accesshub.pdc.wa.gov/node/25380),,,
7802,25442-18188,25442,FE,17354,BERNAL C BACA,Employer,18188,AFT Washington,16-Aug,9/13/2016,17122.0,AFT Washington,5916.67,0.0,5916.67,0.0,0.0,0.0,0.0,0.0,0.0,0.0,5916.67,18188.0,Direct,,,View report (https://accesshub.pdc.wa.gov/node/25442),Education,Pay equity for part-time faculty,Education
7806,25032-19779,25032,FE,18034,The Nichols Group Government Relations LLC,Employer,19779,COMMUNITY BANKERS OF WA,16-Aug,9/13/2016,17132.0,COMMUNITY BANKERS OF WA,4200.0,0.0,4200.0,68.82,0.0,0.0,0.0,0.0,0.0,68.82,4268.82,19779.0,Direct,,,View report (https://accesshub.pdc.wa.gov/node/25032),Financial institutions and insurance,"Banking, business environment","Financial institutions committees, Dept of Financial Institutions, Office of State Treasurer"
7807,25380-19959,25380,FE,17553,JESSICA FORTESCUE,Employer,19959,Washington Mortgage Bankers Association (PIERCE CONSULTING SVCS LLC*),16-Aug,9/13/2016,17147.0,Washington Mortgage Bankers Association,250.0,0.0,250.0,0.0,0.0,0.0,0.0,0.0,0.0,0.0,250.0,19959.0,Subcontract,17597.0,PIERCE CONSULTING SVCS LLC*,View report (https://accesshub.pdc.wa.gov/node/25380),,,
7808,24608-18268,24608,FE,17393,Bogard & Johnson LLC,Employer,18268,WA ASSN OF NURSE ANESTHETISTS,16-Jul,9/13/2016,17152.0,WA ASSN OF NURSE ANESTHETISTS,1400.0,0.0,1400.0,21.6,0.0,0.0,0.0,0.0,0.0,21.6,1421.6,18268.0,Direct,,,View report (https://accesshub.pdc.wa.gov/node/24608),Health Care,Health Care,H HC; S HC
7809,24376-19091,24376,FE,17710,TERRY KOHL,Employer,19091,WA ASSN OF NATUROPATHIC PHYSICIANS,16-Jul,9/13/2016,17154.0,WA ASSN OF NATUROPATHIC PHYSICIANS,2000.0,0.0,2000.0,43.43,0.0,0.0,0.0,0.0,0.0,43.43,2043.43,19091.0,Direct,,,View report (https://accesshub.pdc.wa.gov/node/24376),Health Care,Naturopathic Health Care Insurance,HS SEN Healthcare
7810,25429-19091,25429,FE,17710,TERRY KOHL,Employer,19091,WA ASSN OF NATUROPATHIC PHYSICIANS,16-Aug,9/13/2016,17154.0,WA ASSN OF NATUROPATHIC PHYSICIANS,2000.0,0.0,2000.0,78.18,0.0,0.0,0.0,0.0,0.0,78.18,2078.18,19091.0,Direct,,,View report (https://accesshub.pdc.wa.gov/node/25429),Health Care,Naturopathic Health Care insurance,HS SEN Healthcare
7812,25380-19949,25380,FE,17553,JESSICA FORTESCUE,Employer,19949,WA ROUNDTABLE (PIERCE CONSULTING SVCS LLC*),16-Aug,9/13/2016,17178.0,WA ROUNDTABLE,218.0,0.0,218.0,0.0,0.0,0.0,0.0,0.0,0.0,0.0,218.0,19949.0,Subcontract,17597.0,PIERCE CONSULTING SVCS LLC*,View report (https://accesshub.pdc.wa.gov/node/25380),,,
7814,25272-19398,25272,FE,17870,OUTCOMES BY LEVY LLC*,Employer,19398,WA RECREATION & PARKS ASSN,16-Aug,9/13/2016,17183.0,WA RECREATION & PARKS ASSN,1100.0,0.0,1100.0,114.84,0.0,0.0,0.0,0.0,0.0,114.84,1214.84,19398.0,Direct,,,View report (https://accesshub.pdc.wa.gov/node/25272),Environmental Affairs - natural resources - parks,Synthetic turf and crumb rubber issues,Department of Health
7818,25323-19074,25323,FE,17703,CAROLINE KING,Employer,19074,WA STEM CENTER,16-Aug,9/13/2016,17189.0,WA STEM CENTER,437.15,0.0,437.15,0.0,0.0,0.0,0.0,0.0,0.0,0.0,437.15,19074.0,Direct,,,View report (https://accesshub.pdc.wa.gov/node/25323),Education,STEM,Governor's Office
7819,24608-18269,24608,FE,17393,Bogard & Johnson LLC,Employer,18269,WSLHA,16-Jul,9/13/2016,17192.0,WSLHA,1500.0,0.0,1500.0,48.6,0.0,0.0,0.0,0.0,0.0,48.6,1548.6,18269.0,Direct,,,View report (https://accesshub.pdc.wa.gov/node/24608),Health Care,Health Care,H HC; S HC
7820,25364-18211,25364,FE,17362,MITCH BARKER,Employer,18211,WA ASSN OF SHERIFFS & POLICE CHIEFS,16-Aug,9/13/2016,17196.0,WA ASSN OF SHERIFFS & POLICE CHIEFS,404.25,0.0,404.25,0.0,0.0,0.0,0.0,0.0,0.0,0.0,404.25,18211.0,Direct,,,View report (https://accesshub.pdc.wa.gov/node/25364),Law and justice,Budget,State Legislature
7821,25356-19253,25356,FE,17796,JAMES MCMAHAN,Employer,19253,WA ASSN OF SHERIFFS & POLICE CHIEFS,16-Aug,9/13/2016,17196.0,WA ASSN OF SHERIFFS & POLICE CHIEFS,679.97,0.0,679.97,0.0,0.0,0.0,0.0,0.0,0.0,0.0,679.97,19253.0,Direct,,,View report (https://accesshub.pdc.wa.gov/node/25356),Law and justice,School Safety,State Legislature
7823,24852-19203,24852,FE,17775,DAVE MASTIN,Employer,19203,TOXIC-FREE FUTURE,16-Jul,9/13/2016,17201.0,TOXIC-FREE FUTURE,3000.0,0.0,3000.0,0.0,0.0,0.0,0.0,0.0,0.0,0.0,3000.0,19203.0,Direct,,,View report (https://accesshub.pdc.wa.gov/node/24852),,,
7825,25380-19995,25380,FE,17553,JESSICA FORTESCUE,Employer,19995,WA WHOLESALE DRUGGIST ASSN (PIERCE CONSULTING SVCS LLC*),16-Aug,9/13/2016,17208.0,WA WHOLESALE DRUGGIST ASSN,250.0,0.0,250.0,0.0,0.0,0.0,0.0,0.0,0.0,0.0,250.0,19995.0,Subcontract,17597.0,PIERCE CONSULTING SVCS LLC*,View report (https://accesshub.pdc.wa.gov/node/25380),,,
7827,25322-20044,25322,FE,17935,Nancy Sapiro,Employer,20044,WA ST COALITION  AGAINST DOMESTIC VIOLENCE (PAM CRONE LEGISLATIVE CONSULTING SVCS*),16-Aug,9/13/2016,17227.0,WA ST COALITION  AGAINST DOMESTIC VIOLENCE,600.0,0.0,600.0,0.0,0.0,0.0,0.0,0.0,0.0,0.0,600.0,20044.0,Subcontract,17875.0,PAM CRONE LEGISLATIVE CONSULTING SVCS*,View report (https://accesshub.pdc.wa.gov/node/25322),,,
7828,24608-18270,24608,FE,17393,Bogard & Johnson LLC,Employer,18270,WA ST DESTINATION MARKETING ORGANIZATIONS ASSN,16-Jul,9/13/2016,17237.0,WA ST DESTINATION MARKETING ORGANIZATIONS ASSN,1600.0,0.0,1600.0,0.0,0.0,0.0,0.0,0.0,0.0,0.0,1600.0,18270.0,Direct,,,View report (https://accesshub.pdc.wa.gov/node/24608),Business and consumer affairs,Tourism,S T & ED; H CDH&TA
7829,25032-19781,25032,FE,18034,The Nichols Group Government Relations LLC,Employer,19781,WA ST DENTAL ASSN,16-Aug,9/13/2016,17238.0,WA ST DENTAL ASSN,5500.0,0.0,5500.0,258.9,50.0,0.0,0.0,0.0,0.0,308.9,5808.9,19781.0,Direct,,,View report (https://accesshub.pdc.wa.gov/node/25032),Health Care,Dental,"Health Care Cmtes, Dept of Health, Health Care Authority"
7830,24608-18271,24608,FE,17393,Bogard & Johnson LLC,Employer,18271,WA ST DENTAL HYGIENISTS ASSN,16-Jul,9/13/2016,17241.0,WA ST DENTAL HYGIENISTS ASSN,2500.0,0.0,2500.0,67.8,0.0,0.0,0.0,0.0,0.0,67.8,2567.8,18271.0,Direct,,,View report (https://accesshub.pdc.wa.gov/node/24608),Health Care,Health Care,H HC; S HC
7831,25341-19722,25341,FE,18007,JOHN STUHLMILLER,Employer,19722,WA ST FARM BUREAU,16-Aug,9/13/2016,17246.0,WA ST FARM BUREAU,2000.0,0.0,2000.0,0.0,0.0,0.0,0.0,0.0,0.0,0.0,2000.0,19722.0,Direct,,,View report (https://accesshub.pdc.wa.gov/node/25341),Agriculture,general ag issues,Various agencies as issues arise
7832,25360-19062,25360,FE,17689,Trevor Justin Government Relations,Employer,19062,WA ST MEDICAL ASSN,16-Aug,9/13/2016,17261.0,WA ST MEDICAL ASSN,1500.0,0.0,1500.0,0.0,0.0,0.0,0.0,0.0,0.0,0.0,1500.0,19062.0,Direct,,,View report (https://accesshub.pdc.wa.gov/node/25360),Health Care,Health Care,"DOH, HCA, OIC, L&CB"
7833,24298-19448,24298,FE,17884,Robert Perna,Employer,19448,WA ST MEDICAL ASSN,16-Jul,9/13/2016,17261.0,WA ST MEDICAL ASSN,234.61,0.0,234.61,32.0,0.0,0.0,0.0,0.0,0.0,32.0,266.61,19448.0,Direct,,,View report (https://accesshub.pdc.wa.gov/node/24298),Health Care,Medicaid - Apple Health,State Health Care Authority
7834,24608-18272,24608,FE,17393,Bogard & Johnson LLC,Employer,18272,WA ST NURSES ASSN,16-Jul,9/13/2016,17265.0,WA ST NURSES ASSN,2600.0,0.0,2600.0,0.0,0.0,0.0,0.0,0.0,0.0,0.0,2600.0,18272.0,Direct,,,View report (https://accesshub.pdc.wa.gov/node/24608),,,
7835,24608-18273,24608,FE,17393,Bogard & Johnson LLC,Employer,18273,PHYSICAL THERAPY ASSN OF WA,16-Jul,9/13/2016,17279.0,PHYSICAL THERAPY ASSN OF WA,4968.83,0.0,4968.83,284.35,0.0,0.0,0.0,0.0,0.0,284.35,5253.18,18273.0,Direct,,,View report (https://accesshub.pdc.wa.gov/node/24608),Health Care,Health Care,H HC; S HC; H Ed; S Ed
7836,24376-19093,24376,FE,17710,TERRY KOHL,Employer,19093,WA ST SNOWMOBILE ASSN,16-Jul,9/13/2016,17282.0,WA ST SNOWMOBILE ASSN,718.63,0.0,718.63,15.26,0.0,0.0,0.0,0.0,0.0,15.26,733.89,19093.0,Direct,,,View report (https://accesshub.pdc.wa.gov/node/24376),Environmental Affairs - natural resources - parks,Snowmobile recreation,HS SEN Labor Commerce Healthcare DOL DOH
7837,25429-19093,25429,FE,17710,TERRY KOHL,Employer,19093,WA ST SNOWMOBILE ASSN,16-Aug,9/13/2016,17282.0,WA ST SNOWMOBILE ASSN,718.63,0.0,718.63,15.26,0.0,0.0,0.0,0.0,0.0,15.26,733.89,19093.0,Direct,,,View report (https://accesshub.pdc.wa.gov/node/25429),Environmental Affairs - natural resources - parks,Snowmobile Recreation,HS SEN Labor Commerce Healthcare DOL DOH
7839,24376-19094,24376,FE,17710,TERRY KOHL,Employer,19094,WA ST SELF STORAGE ASSN,16-Jul,9/13/2016,17287.0,WA ST SELF STORAGE ASSN,1172.41,0.0,1172.41,66.94,0.0,0.0,0.0,0.0,0.0,66.94,1239.35,19094.0,Direct,,,View report (https://accesshub.pdc.wa.gov/node/24376),Business and consumer affairs,Real Estate self Storage Law,HS SEN Judicial Commerce Labor HS Business Finance
7840,25429-19094,25429,FE,17710,TERRY KOHL,Employer,19094,WA ST SELF STORAGE ASSN,16-Aug,9/13/2016,17287.0,WA ST SELF STORAGE ASSN,1172.41,0.0,1172.41,24.42,0.0,0.0,0.0,0.0,0.0,24.42,1196.83,19094.0,Direct,,,View report (https://accesshub.pdc.wa.gov/node/25429),Business and consumer affairs,Real Estate Self Storage Law,HS SEN Judicial Commerce Labor HS Business Finance
7841,25420-18430,25420,FE,17442,ANTHONY CHAVEZ,Employer,18430,WEYERHAEUSER CO,16-Aug,9/13/2016,17305.0,WEYERHAEUSER CO,2782.55,0.0,2782.55,0.0,41.8,11500.0,0.0,0.0,0.0,11541.8,14324.35,18430.0,Direct,,,View report (https://accesshub.pdc.wa.gov/node/25420),Environmental Affairs - natural resources - parks,Natural Resources,Legislature
7842,25175-19241,25175,FE,17787,Patricia McDaid-O'Neill,Employer,19241,ASTRAZENECA PHARMACEUTICALS LP,16-Aug,9/13/2016,17328.0,ASTRAZENECA PHARMACEUTICALS LP,2800.0,0.0,2800.0,0.0,84.46,7500.0,0.0,0.0,0.0,7584.46,10384.46,19241.0,Direct,,,View report (https://accesshub.pdc.wa.gov/node/25175),Health Care,,Health Care Authority and Department of Health
7844,25425-19617,25425,FE,17964,SCOTT C SIGMON,Employer,19617,WA ST CHAPTER OF ASSOC PUBLIC SAFETY COMMUNICATIONS OFFICIALS,16-Aug,9/14/2016,16158.0,WA ST CHAPTER OF ASSOC PUBLIC SAFETY COMMUNICATIONS OFFICIALS,1600.0,0.0,1600.0,0.0,0.0,0.0,0.0,0.0,0.0,0.0,1600.0,19617.0,Direct,,,View report (https://accesshub.pdc.wa.gov/node/25425),Local government,911 Telecommunicators Certification,Public Safety Committee
7845,24488-18709,24488,FE,17543,H2 Government Relations,Employer,18709,ASSN OF WA ST PUBLIC FACILITIES DISTS,16-Jul,9/14/2016,16171.0,ASSN OF WA ST PUBLIC FACILITIES DISTS,1000.0,0.0,1000.0,0.0,0.0,0.0,0.0,0.0,0.0,0.0,1000.0,18709.0,Direct,,,View report (https://accesshub.pdc.wa.gov/node/24488),Fiscal,Taxes,"H Finance, S W&M"
7846,25445-18709,25445,FE,17543,H2 Government Relations,Employer,18709,ASSN OF WA ST PUBLIC FACILITIES DISTS,16-Aug,9/14/2016,16171.0,ASSN OF WA ST PUBLIC FACILITIES DISTS,1000.0,0.0,1000.0,0.0,0.0,0.0,0.0,0.0,0.0,0.0,1000.0,18709.0,Direct,,,View report (https://accesshub.pdc.wa.gov/node/25445),Fiscal,Taxes,"H Finance, S W&M"
7847,25438-19049,25438,FE,17688,James P Justin (Government Relations Consulting Inc.),Employer,19049,AT&T SERVICES INC,16-Aug,9/14/2016,16175.0,AT&T SERVICES INC,3000.0,0.0,3000.0,0.0,0.0,0.0,0.0,0.0,0.0,0.0,3000.0,19049.0,Direct,,,View report (https://accesshub.pdc.wa.gov/node/25438),Technology,Siting Issues,House Tech and Senate Energy
7848,25488-19136,25488,FE,17743,FAYE LINCOLN,Employer,19136,AVALON HEALTH CARE INC,16-Aug,9/14/2016,16177.0,AVALON HEALTH CARE INC,5333.0,0.0,5333.0,0.0,0.0,0.0,0.0,0.0,0.0,0.0,5333.0,19136.0,Direct,,,View report (https://accesshub.pdc.wa.gov/node/25488),Health Care,Medicaid Rates SNF,
7850,24488-24882,24488,FE,17543,H2 Government Relations,Employer,24882,CANNABIS ORGANIZATION OF RETAIL ESTABLISHMENTS (Recreational Services LLC),16-Jul,9/14/2016,16224.0,CANNABIS ORGANIZATION OF RETAIL ESTABLISHMENTS,2500.0,0.0,2500.0,0.0,0.0,0.0,0.0,0.0,0.0,0.0,2500.0,24882.0,Subcontract,24638.0,Recreational Services LLC,View report (https://accesshub.pdc.wa.gov/node/24488),,,
7851,25445-24882,25445,FE,17543,H2 Government Relations,Employer,24882,CANNABIS ORGANIZATION OF RETAIL ESTABLISHMENTS (Recreational Services LLC),16-Aug,9/14/2016,16224.0,CANNABIS ORGANIZATION OF RETAIL ESTABLISHMENTS,2000.0,0.0,2000.0,0.0,0.0,0.0,0.0,0.0,0.0,0.0,2000.0,24882.0,Subcontract,24638.0,Recreational Services LLC,View report (https://accesshub.pdc.wa.gov/node/25445),,,
7852,24488-20013,24488,FE,17543,H2 Government Relations,Employer,20013,CITY OF EVERETT (Leonard A Mc Comb),16-Jul,9/14/2016,16281.0,CITY OF EVERETT,2000.0,0.0,2000.0,0.0,0.0,0.0,0.0,0.0,0.0,0.0,2000.0,20013.0,Subcontract,17786.0,Leonard A Mc Comb,View report (https://accesshub.pdc.wa.gov/node/24488),,,
7853,25445-20013,25445,FE,17543,H2 Government Relations,Employer,20013,CITY OF EVERETT (Leonard A Mc Comb),16-Aug,9/14/2016,16281.0,CITY OF EVERETT,2000.0,0.0,2000.0,0.0,0.0,0.0,0.0,0.0,0.0,0.0,2000.0,20013.0,Subcontract,17786.0,Leonard A Mc Comb,View report (https://accesshub.pdc.wa.gov/node/25445),,,
7854,24488-18710,24488,FE,17543,H2 Government Relations,Employer,18710,City of Maple Valley,16-Jul,9/14/2016,16300.0,City of Maple Valley,3000.0,0.0,3000.0,0.0,0.0,0.0,0.0,0.0,0.0,0.0,3000.0,18710.0,Direct,,,View report (https://accesshub.pdc.wa.gov/node/24488),Local government,Transportation and Land Use,"H Local Government, S Gov Ops, H Trans, S Trans"
7855,25445-18710,25445,FE,17543,H2 Government Relations,Employer,18710,City of Maple Valley,16-Aug,9/14/2016,16300.0,City of Maple Valley,3000.0,0.0,3000.0,0.0,0.0,0.0,0.0,0.0,0.0,0.0,3000.0,18710.0,Direct,,,View report (https://accesshub.pdc.wa.gov/node/25445),Local government,Transportation and Land Use,"H Local Government, S Gov Ops, H Trans, S Trans"
7856,25438-19050,25438,FE,17688,James P Justin (Government Relations Consulting Inc.),Employer,19050,CITY OF YAKIMA,16-Aug,9/14/2016,16321.0,CITY OF YAKIMA,1500.0,0.0,1500.0,0.0,0.0,0.0,0.0,0.0,0.0,0.0,1500.0,19050.0,Direct,,,View report (https://accesshub.pdc.wa.gov/node/25438),Local government,Public Records,Senate Gov Ops and House State Gov
7857,25425-19619,25425,FE,17964,SCOTT C SIGMON,Employer,19619,COASTAL CONSERVATION ASSN WA,16-Aug,9/14/2016,16333.0,COASTAL CONSERVATION ASSN WA,4000.0,0.0,4000.0,0.0,0.0,0.0,0.0,0.0,0.0,0.0,4000.0,19619.0,Direct,,,View report (https://accesshub.pdc.wa.gov/node/25425),Environmental Affairs - natural resources - parks,License Fees,WDFW
7859,24488-18711,24488,FE,17543,H2 Government Relations,Employer,18711,COMMUNITY ASSOC INSTITUTE,16-Jul,9/14/2016,16346.0,COMMUNITY ASSOC INSTITUTE,3000.0,0.0,3000.0,0.0,0.0,0.0,0.0,0.0,0.0,0.0,3000.0,18711.0,Direct,,,View report (https://accesshub.pdc.wa.gov/node/24488),Business and consumer affairs,Condo and Homeowner,"House Judiciary, Senate FII, Ways & Means, Senate Judiciary"
7860,25445-18711,25445,FE,17543,H2 Government Relations,Employer,18711,COMMUNITY ASSOC INSTITUTE,16-Aug,9/14/2016,16346.0,COMMUNITY ASSOC INSTITUTE,3000.0,0.0,3000.0,0.0,0.0,0.0,0.0,0.0,0.0,0.0,3000.0,18711.0,Direct,,,View report (https://accesshub.pdc.wa.gov/node/25445),Business and consumer affairs,Condo and Homeowner,"House Judiciary, Senate FII, Ways & Means, Senate Judiciary"
7861,25478-19639,25478,FE,17974,MELANIE J SMITH,Employer,19639,COMMITTEE FOR CHILDREN,16-Aug,9/14/2016,16347.0,COMMITTEE FOR CHILDREN,1000.0,0.0,1000.0,0.0,0.0,0.0,0.0,0.0,0.0,0.0,1000.0,19639.0,Direct,,,View report (https://accesshub.pdc.wa.gov/node/25478),,,
7862,25438-19052,25438,FE,17688,James P Justin (Government Relations Consulting Inc.),Employer,19052,EDUCATION REFORM NOW ADVOCACY,16-Aug,9/14/2016,16405.0,EDUCATION REFORM NOW ADVOCACY,2500.0,0.0,2500.0,0.0,0.0,0.0,0.0,0.0,0.0,0.0,2500.0,19052.0,Direct,,,View report (https://accesshub.pdc.wa.gov/node/25438),Education,Charter Schools,House Education and Senate Education
7863,25425-19621,25425,FE,17964,SCOTT C SIGMON,Employer,19621,EISAI INC,16-Aug,9/14/2016,16407.0,EISAI INC,3000.0,0.0,3000.0,93.37,0.0,0.0,0.0,0.0,0.0,93.37,3093.37,19621.0,Direct,,,View report (https://accesshub.pdc.wa.gov/node/25425),Environmental Affairs - natural resources - parks,Out of Pocket Drug Costs,Department of Health
7864,25425-19622,25425,FE,17964,SCOTT C SIGMON,Employer,19622,GILEAD SCIENCES INC,16-Aug,9/14/2016,16471.0,GILEAD SCIENCES INC,4000.0,0.0,4000.0,236.02,0.0,0.0,0.0,0.0,0.0,236.02,4236.02,19622.0,Direct,,,View report (https://accesshub.pdc.wa.gov/node/25425),Health Care,Out of Pocket Drug Costs,Department of Health
7865,25438-19053,25438,FE,17688,James P Justin (Government Relations Consulting Inc.),Employer,19053,INVENERGY,16-Aug,9/14/2016,16546.0,INVENERGY,2000.0,0.0,2000.0,0.0,0.0,0.0,0.0,0.0,0.0,0.0,2000.0,19053.0,Direct,,,View report (https://accesshub.pdc.wa.gov/node/25438),Energy and utilities,Natural Gas,House Tech and Senate Energy Coms
7867,25425-19623,25425,FE,17964,SCOTT C SIGMON,Employer,19623,LEADINGAGE WA,16-Aug,9/14/2016,16588.0,LEADINGAGE WA,5000.0,0.0,5000.0,106.87,0.0,0.0,0.0,0.0,0.0,106.87,5106.87,19623.0,Direct,,,View report (https://accesshub.pdc.wa.gov/node/25425),Health Care,Long Term Care Funding,DSHS
7868,25479-19907,25479,FE,18100,KYLE WOODRING,Employer,19907,Manufactured Housing Communities of WA,16-Aug,9/14/2016,16614.0,Manufactured Housing Communities of WA,1105.0,0.0,1105.0,0.0,0.0,0.0,0.0,0.0,0.0,0.0,1105.0,19907.0,Direct,,,View report (https://accesshub.pdc.wa.gov/node/25479),,,
7869,25480-19907,25480,FE,18100,KYLE WOODRING,Employer,19907,Manufactured Housing Communities of WA,16-Jul,9/14/2016,16614.0,Manufactured Housing Communities of WA,1105.0,0.0,1105.0,0.0,0.0,0.0,0.0,0.0,0.0,0.0,1105.0,19907.0,Direct,,,View report (https://accesshub.pdc.wa.gov/node/25480),,,
7870,25366-19205,25366,FE,17777,JAMES A MATTEUCCI JR,Employer,19205,MERCK SHARP & DOHME LLC & AFFILIATES,16-Aug,9/14/2016,16632.0,MERCK SHARP & DOHME LLC & AFFILIATES,4200.0,0.0,4200.0,0.0,0.0,0.0,0.0,0.0,0.0,0.0,4200.0,19205.0,Direct,,,View report (https://accesshub.pdc.wa.gov/node/25366),Health Care,Medicaid,Washington State Health Care Authority Pharmacy and Therapeutics Committee
7871,25438-19054,25438,FE,17688,James P Justin (Government Relations Consulting Inc.),Employer,19054,MUNICIPAL RESEARCH & SERVICES CENTER,16-Aug,9/14/2016,16652.0,MUNICIPAL RESEARCH & SERVICES CENTER,1500.0,0.0,1500.0,0.0,0.0,0.0,0.0,0.0,0.0,0.0,1500.0,19054.0,Direct,,,View report (https://accesshub.pdc.wa.gov/node/25438),Local government,Budget,OFM
7872,25478-19641,25478,FE,17974,MELANIE J SMITH,Employer,19641,PRO-CHOICE WASHINGTON,16-Aug,9/14/2016,16656.0,PRO-CHOICE WASHINGTON,1500.0,0.0,1500.0,0.0,0.0,0.0,0.0,0.0,0.0,0.0,1500.0,19641.0,Direct,,,View report (https://accesshub.pdc.wa.gov/node/25478),,,
7873,25425-19624,25425,FE,17964,SCOTT C SIGMON,Employer,19624,CONSUMER HEALTHCARE PRODUCTS ASSN,16-Aug,9/14/2016,16692.0,CONSUMER HEALTHCARE PRODUCTS ASSN,4000.0,0.0,4000.0,93.37,0.0,0.0,0.0,0.0,0.0,93.37,4093.37,19624.0,Direct,,,View report (https://accesshub.pdc.wa.gov/node/25425),Health Care,OTC Drugs,Department of Health
7874,25438-19056,25438,FE,17688,James P Justin (Government Relations Consulting Inc.),Employer,19056,GoWest Credit Union Association,16-Aug,9/14/2016,16703.0,GoWest Credit Union Association,3500.0,0.0,3500.0,0.0,0.0,0.0,0.0,0.0,0.0,0.0,3500.0,19056.0,Direct,,,View report (https://accesshub.pdc.wa.gov/node/25438),Fiscal,Tax Status,Senate Ways and House Approps
7875,24488-18714,24488,FE,17543,H2 Government Relations,Employer,18714,NORTHWEST YACHT BROKERS ASSN,16-Jul,9/14/2016,16724.0,NORTHWEST YACHT BROKERS ASSN,1100.0,0.0,1100.0,0.0,0.0,0.0,0.0,0.0,0.0,0.0,1100.0,18714.0,Direct,,,View report (https://accesshub.pdc.wa.gov/node/24488),Fiscal,Taxes,"S W&M, H Finance"
7876,25445-18714,25445,FE,17543,H2 Government Relations,Employer,18714,NORTHWEST YACHT BROKERS ASSN,16-Aug,9/14/2016,16724.0,NORTHWEST YACHT BROKERS ASSN,1100.0,0.0,1100.0,0.0,0.0,0.0,0.0,0.0,0.0,0.0,1100.0,18714.0,Direct,,,View report (https://accesshub.pdc.wa.gov/node/25445),Fiscal,Taxes,"S W&M, H Finance"
7878,25425-19625,25425,FE,17964,SCOTT C SIGMON,Employer,19625,PARTNERS IN CAREERS,16-Aug,9/14/2016,16764.0,PARTNERS IN CAREERS,1000.0,0.0,1000.0,0.0,0.0,0.0,0.0,0.0,0.0,0.0,1000.0,19625.0,Direct,,,View report (https://accesshub.pdc.wa.gov/node/25425),Labor,Work Force Training,DSHS
7879,24488-20011,24488,FE,17543,H2 Government Relations,Employer,20011,PORT OF EVERETT (Leonard A Mc Comb),16-Jul,9/14/2016,16797.0,PORT OF EVERETT,2000.0,0.0,2000.0,0.0,0.0,0.0,0.0,0.0,0.0,0.0,2000.0,20011.0,Subcontract,17786.0,Leonard A Mc Comb,View report (https://accesshub.pdc.wa.gov/node/24488),,,
7880,25445-20011,25445,FE,17543,H2 Government Relations,Employer,20011,PORT OF EVERETT (Leonard A Mc Comb),16-Aug,9/14/2016,16797.0,PORT OF EVERETT,2000.0,0.0,2000.0,0.0,0.0,0.0,0.0,0.0,0.0,0.0,2000.0,20011.0,Subcontract,17786.0,Leonard A Mc Comb,View report (https://accesshub.pdc.wa.gov/node/25445),,,
7881,24488-18715,24488,FE,17543,H2 Government Relations,Employer,18715,PROLIANCE SURGEONS,16-Jul,9/14/2016,16817.0,PROLIANCE SURGEONS,3500.0,0.0,3500.0,0.0,0.0,10100.0,0.0,0.0,0.0,10100.0,13600.0,18715.0,Direct,,,View report (https://accesshub.pdc.wa.gov/node/24488),Health Care,Health Care,"H Health Care, S Health Care"
7882,25445-18715,25445,FE,17543,H2 Government Relations,Employer,18715,PROLIANCE SURGEONS,16-Aug,9/14/2016,16817.0,PROLIANCE SURGEONS,3500.0,0.0,3500.0,0.0,0.0,0.0,0.0,0.0,0.0,0.0,3500.0,18715.0,Direct,,,View report (https://accesshub.pdc.wa.gov/node/25445),Health Care,Health Care,"H Health Care, S Health Care"
7883,25457-19340,25457,FE,17839,DOUGLAS D NELSON,Employer,19340,PUBLIC SCHOOL EMPLOYEES OF WA,16-Aug,9/14/2016,16824.0,PUBLIC SCHOOL EMPLOYEES OF WA,1117.03,0.0,1117.03,0.0,0.0,0.0,0.0,0.0,0.0,0.0,1117.03,19340.0,Direct,,,View report (https://accesshub.pdc.wa.gov/node/25457),Education,Unknown,Unknown
7884,25438-19057,25438,FE,17688,James P Justin (Government Relations Consulting Inc.),Employer,19057,Seattle Cancer Care Alliance,16-Aug,9/14/2016,16889.0,Seattle Cancer Care Alliance,2875.0,0.0,2875.0,0.0,0.0,0.0,0.0,0.0,0.0,0.0,2875.0,19057.0,Direct,,,View report (https://accesshub.pdc.wa.gov/node/25438),Health Care,Medicaid,OFM and Health Care Authority
7885,25479-19908,25479,FE,18100,KYLE WOODRING,Employer,19908,RENTAL HOUSING ASSN OF WA,16-Aug,9/14/2016,16894.0,RENTAL HOUSING ASSN OF WA,4025.0,0.0,4025.0,0.0,0.0,0.0,0.0,0.0,0.0,0.0,4025.0,19908.0,Direct,,,View report (https://accesshub.pdc.wa.gov/node/25479),Financial institutions and insurance,Rental Housing,Senate Financial institutions & Insurance Committee; House Housing Committee
7886,25480-19908,25480,FE,18100,KYLE WOODRING,Employer,19908,RENTAL HOUSING ASSN OF WA,16-Jul,9/14/2016,16894.0,RENTAL HOUSING ASSN OF WA,4025.0,0.0,4025.0,0.0,0.0,0.0,0.0,0.0,0.0,0.0,4025.0,19908.0,Direct,,,View report (https://accesshub.pdc.wa.gov/node/25480),Local government,Rental Housing,Senate Financial institutions & Insurance Committee; House Housing Committee
7887,25464-19902,25464,FE,18096,BRUCE WISHART,Employer,19902,Sierra Club,16-Aug,9/14/2016,16915.0,Sierra Club,1400.0,0.0,1400.0,0.0,0.0,0.0,0.0,0.0,0.0,0.0,1400.0,19902.0,Direct,,,View report (https://accesshub.pdc.wa.gov/node/25464),Environmental Affairs - natural resources - parks,"water resources, water quality matters",DOE
7888,25464-19903,25464,FE,18096,BRUCE WISHART,Employer,19903,SOUND ACTION,16-Aug,9/14/2016,16930.0,SOUND ACTION,500.0,0.0,500.0,0.0,0.0,0.0,0.0,0.0,0.0,0.0,500.0,19903.0,Direct,,,View report (https://accesshub.pdc.wa.gov/node/25464),Environmental Affairs - natural resources - parks,HPA Program,DFW
7889,24488-18716,24488,FE,17543,H2 Government Relations,Employer,18716,GREATER SPOKANE INC,16-Jul,9/14/2016,16938.0,GREATER SPOKANE INC,4000.0,0.0,4000.0,0.0,0.0,0.0,0.0,0.0,0.0,0.0,4000.0,18716.0,Direct,,,View report (https://accesshub.pdc.wa.gov/node/24488),Higher education,"Capital, Higher Education","H Cap, H Approps, H Finance, S W&M, H Higher Ed, S Higher Ed"
7890,25445-18716,25445,FE,17543,H2 Government Relations,Employer,18716,GREATER SPOKANE INC,16-Aug,9/14/2016,16938.0,GREATER SPOKANE INC,4000.0,0.0,4000.0,0.0,0.0,0.0,0.0,0.0,0.0,0.0,4000.0,18716.0,Direct,,,View report (https://accesshub.pdc.wa.gov/node/25445),Higher education,"Capital, Higher Education","H Cap, H Approps, H Finance, S W&M, H Higher Ed, S Higher Ed"
7891,25438-19058,25438,FE,17688,James P Justin (Government Relations Consulting Inc.),Employer,19058,TREEHOUSE,16-Aug,9/14/2016,16992.0,TREEHOUSE,1500.0,0.0,1500.0,0.0,0.0,0.0,0.0,0.0,0.0,0.0,1500.0,19058.0,Direct,,,View report (https://accesshub.pdc.wa.gov/node/25438),Education,Foster Kids,Governor's Office and OFM
7892,25425-19626,25425,FE,17964,SCOTT C SIGMON,Employer,19626,"UCB, INC",16-Aug,9/14/2016,17002.0,"UCB, INC",4000.0,0.0,4000.0,0.0,0.0,0.0,0.0,0.0,0.0,0.0,4000.0,19626.0,Direct,,,View report (https://accesshub.pdc.wa.gov/node/25425),Health Care,Out of Pocket Drug Costs,Department of Health
7893,25438-19059,25438,FE,17688,James P Justin (Government Relations Consulting Inc.),Employer,19059,UNIVERSITY OF WASHINGTON,16-Aug,9/14/2016,17021.0,UNIVERSITY OF WASHINGTON,6200.0,0.0,6200.0,0.0,0.0,0.0,0.0,0.0,0.0,0.0,6200.0,19059.0,Direct,,,View report (https://accesshub.pdc.wa.gov/node/25438),Health Care,Budget Issues,OFM
7894,24488-18717,24488,FE,17543,H2 Government Relations,Employer,18717,WALGREENS,16-Jul,9/14/2016,17040.0,WALGREENS,4750.0,0.0,4750.0,0.0,0.0,26500.0,0.0,0.0,0.0,26500.0,31250.0,18717.0,Direct,,,View report (https://accesshub.pdc.wa.gov/node/24488),Health Care,Health Care,"H Health Care, S Health Care"
7895,25445-18717,25445,FE,17543,H2 Government Relations,Employer,18717,WALGREENS,16-Aug,9/14/2016,17040.0,WALGREENS,4750.0,0.0,4750.0,0.0,0.0,0.0,0.0,0.0,0.0,0.0,4750.0,18717.0,Direct,,,View report (https://accesshub.pdc.wa.gov/node/25445),Health Care,Health Care,"H Health Care, S Health Care"
7896,24488-18718,24488,FE,17543,H2 Government Relations,Employer,18718,WA DISTILLERS GUILD,16-Jul,9/14/2016,17095.0,WA DISTILLERS GUILD,1500.0,0.0,1500.0,0.0,0.0,0.0,0.0,0.0,0.0,0.0,1500.0,18718.0,Direct,,,View report (https://accesshub.pdc.wa.gov/node/24488),Fiscal,Distilling,"House Commerce, Senate Ways & Means"
7897,25445-18718,25445,FE,17543,H2 Government Relations,Employer,18718,WA DISTILLERS GUILD,16-Aug,9/14/2016,17095.0,WA DISTILLERS GUILD,1500.0,0.0,1500.0,0.0,0.0,0.0,0.0,0.0,0.0,0.0,1500.0,18718.0,Direct,,,View report (https://accesshub.pdc.wa.gov/node/25445),Fiscal,Distilling,"House Commerce, Senate Ways & Means"
7898,25451-19327,25451,FE,17828,"Debora Munguia, Capitol Consulting",Employer,19327,WA FOREST PROTECTION ASSN,16-Aug,9/14/2016,17120.0,WA FOREST PROTECTION ASSN,500.0,0.0,500.0,0.0,0.0,0.0,0.0,0.0,0.0,0.0,500.0,19327.0,Direct,,,View report (https://accesshub.pdc.wa.gov/node/25451),Environmental Affairs - natural resources - parks,natural resources,House Senate
7899,24488-18719,24488,FE,17543,H2 Government Relations,Employer,18719,Washington Multi Family Housing Association,16-Jul,9/14/2016,17149.0,Washington Multi Family Housing Association,3150.0,0.0,3150.0,0.0,0.0,19000.0,0.0,0.0,0.0,19000.0,22150.0,18719.0,Direct,,,View report (https://accesshub.pdc.wa.gov/node/24488),Business and consumer affairs,Landlord Tenant Act,"House Judiciary, House CTHTA, Senate FII, S Ways & Means"
7900,25445-18719,25445,FE,17543,H2 Government Relations,Employer,18719,Washington Multi Family Housing Association,16-Aug,9/14/2016,17149.0,Washington Multi Family Housing Association,3150.0,0.0,3150.0,0.0,0.0,0.0,0.0,0.0,0.0,0.0,3150.0,18719.0,Direct,,,View report (https://accesshub.pdc.wa.gov/node/25445),Business and consumer affairs,Landlord Tenant Act,"House Judiciary, House CTHTA, Senate FII, S Ways & Means"
7901,25438-19060,25438,FE,17688,James P Justin (Government Relations Consulting Inc.),Employer,19060,WA ROUNDTABLE,16-Aug,9/14/2016,17178.0,WA ROUNDTABLE,1500.0,0.0,1500.0,0.0,0.0,0.0,0.0,0.0,0.0,0.0,1500.0,19060.0,Direct,,,View report (https://accesshub.pdc.wa.gov/node/25438),Education,Charters and Assessments,House and Senate Education Committees
7902,25487-18963,25487,FE,17635,Tammie Hetrick,Employer,18963,WA RETAIL ASSN,16-Aug,9/14/2016,17180.0,WA RETAIL ASSN,2000.0,0.0,2000.0,0.0,0.0,0.0,0.0,0.0,0.0,0.0,2000.0,18963.0,Direct,,,View report (https://accesshub.pdc.wa.gov/node/25487),Labor,Work Comp,Labor and Industries
7903,25438-19061,25438,FE,17688,James P Justin (Government Relations Consulting Inc.),Employer,19061,WA STEM CENTER,16-Aug,9/14/2016,17189.0,WA STEM CENTER,2000.0,0.0,2000.0,0.0,0.0,0.0,0.0,0.0,0.0,0.0,2000.0,19061.0,Direct,,,View report (https://accesshub.pdc.wa.gov/node/25438),Education,STEM Education,Governor's Office
7904,25473-18884,25473,FE,17594,ALISON R PHELAN,Employer,18884,WA ST BAR ASSN,16-Aug,9/14/2016,17220.0,WA ST BAR ASSN,7250.0,0.0,7250.0,0.0,0.0,0.0,0.0,0.0,0.0,0.0,7250.0,18884.0,Direct,,,View report (https://accesshub.pdc.wa.gov/node/25473),Law and justice,General,"Body Camera Task Force; Public Records Stakeholder Workgroup; Sen. Jamie Pedersen, Rep. Roger Goodman; Legal Voice, Columbia Legal Services."
7905,24850-19612,24850,FE,17959,EVAN SHEFFELS,Employer,19612,WA ST FARM BUREAU,16-Aug,9/14/2016,17246.0,WA ST FARM BUREAU,4000.0,0.0,4000.0,0.0,0.0,0.0,0.0,0.0,0.0,0.0,4000.0,19612.0,Direct,,,View report (https://accesshub.pdc.wa.gov/node/24850),Agriculture,Ag Issues,Ag and Environmental Agencies and Committees
7906,25489-19715,25489,FE,17999,MARK L STREULI,Employer,19715,WA ST FARM BUREAU,16-Aug,9/14/2016,17246.0,WA ST FARM BUREAU,4000.0,0.0,4000.0,0.0,0.0,0.0,0.0,0.0,0.0,0.0,4000.0,19715.0,Direct,,,View report (https://accesshub.pdc.wa.gov/node/25489),Agriculture,Ag Issues,"Ag, labor and transportation agencies"
7908,25456-19613,25456,FE,17960,JEB C SHEPARD,Employer,19613,WA ST MEDICAL ASSN,16-Aug,9/14/2016,17261.0,WA ST MEDICAL ASSN,4500.0,0.0,4500.0,0.0,0.0,0.0,0.0,0.0,0.0,0.0,4500.0,19613.0,Direct,,,View report (https://accesshub.pdc.wa.gov/node/25456),Health Care,health care,"OIC, HCA"
7911,25478-24482,25478,FE,17974,MELANIE J SMITH,Employer,24482,WA ST SOCIETY FOR CLINICAL SOCIAL WORK,16-Aug,9/14/2016,17284.0,WA ST SOCIETY FOR CLINICAL SOCIAL WORK,650.0,0.0,650.0,0.0,0.0,0.0,0.0,0.0,0.0,0.0,650.0,24482.0,Direct,,,View report (https://accesshub.pdc.wa.gov/node/25478),,,
7912,25478-19644,25478,FE,17974,MELANIE J SMITH,Employer,19644,WELLSPRING FAMILY SERVICES,16-Aug,9/14/2016,17297.0,WELLSPRING FAMILY SERVICES,1000.0,0.0,1000.0,0.0,0.0,0.0,0.0,0.0,0.0,0.0,1000.0,19644.0,Direct,,,View report (https://accesshub.pdc.wa.gov/node/25478),Human services,Childcare,Children's mental health taskforce
7913,25451-23618,25451,FE,17828,"Debora Munguia, Capitol Consulting",Employer,23618,BIG BROTHERS BIG SISTERS,16-Aug,9/14/2016,23606.0,BIG BROTHERS BIG SISTERS,500.0,0.0,500.0,0.0,0.0,0.0,0.0,0.0,0.0,0.0,500.0,23618.0,Direct,,,View report (https://accesshub.pdc.wa.gov/node/25451),Human services,Children's services,House Senate
7914,25425-25407,25425,FE,17964,SCOTT C SIGMON,Employer,25407,"bluebird bio, Inc.",16-Aug,9/14/2016,25383.0,"bluebird bio, Inc.",4000.0,0.0,4000.0,0.0,0.0,0.0,0.0,0.0,0.0,0.0,4000.0,25407.0,Direct,,,View report (https://accesshub.pdc.wa.gov/node/25425),Fiscal,Newborn Screening,Department of Health
7915,25510-18877,25510,FE,17589,GOVERNMENT RELATIONS SERVICES*,Employer,18877,ACTION FOR RHC'S,16-Jun,9/15/2016,16066.0,ACTION FOR RHC'S,3000.0,0.0,3000.0,0.0,0.0,500.0,0.0,0.0,1500.0,2000.0,5000.0,18877.0,Direct,,,View report (https://accesshub.pdc.wa.gov/node/25510),Human services,developmentally disabled issues,Capital Budget other fiscals
7919,24748-19144,24748,FE,17751,CAROLYN LOGUE,Employer,19144,AMERICAN CIVIL LIBERTIES UNION OF WA,16-Jul,9/15/2016,16097.0,AMERICAN CIVIL LIBERTIES UNION OF WA,2850.0,0.0,2850.0,0.0,0.0,0.0,0.0,0.0,0.0,0.0,2850.0,19144.0,Direct,,,View report (https://accesshub.pdc.wa.gov/node/24748),Law and justice,Death Penalty repeal,"AG, House Judiciary, Senate Law & Justice"
7926,25541-19129,25541,FE,17741,JEAN M LEONARD*,Employer,19129,AMERICAN INTERNATIONAL GROUP INC,16-Aug,9/15/2016,16112.0,AMERICAN INTERNATIONAL GROUP INC,3500.0,0.0,3500.0,0.0,0.0,0.0,0.0,0.0,0.0,0.0,3500.0,19129.0,Direct,,,View report (https://accesshub.pdc.wa.gov/node/25541),Financial institutions and insurance,"S FIH, S JUD, H FII, H JUD TR",na
7936,25503-18939,25503,FE,17616,Heather Hansen,Employer,18939,ASSN OF WA AERIAL APPLICATORS,16-Aug,9/15/2016,16166.0,ASSN OF WA AERIAL APPLICATORS,1000.0,0.0,1000.0,0.0,0.0,0.0,0.0,0.0,0.0,0.0,1000.0,18939.0,Direct,,,View report (https://accesshub.pdc.wa.gov/node/25503),,,
7938,25543-19727,25543,FE,18010,Brewer Public Affairs,Employer,19727,AVISTA CORP,16-Aug,9/15/2016,16180.0,AVISTA CORP,7500.0,0.0,7500.0,89.58,0.0,0.0,0.0,0.0,0.0,89.58,7589.58,19727.0,Direct,,,View report (https://accesshub.pdc.wa.gov/node/25543),Energy and utilities,Energy,UTC Energy & Environment Ecology WFPA
7939,25553-19803,25553,FE,18038,BLAKE TRASK,Employer,19803,WASHINGTON BIKES,16-Aug,9/15/2016,16191.0,WASHINGTON BIKES,300.0,0.0,300.0,72.36,0.0,0.0,0.0,0.0,0.0,72.36,372.36,19803.0,Direct,,,View report (https://accesshub.pdc.wa.gov/node/25553),Transportation,transportation budget,WSDOT
7940,25402-18427,25402,FE,17439,SUSAN W CHAMPLAIN,Employer,18427,BOEING,16-Aug,9/15/2016,16201.0,BOEING,2982.0,0.0,2982.0,325.12,63.9,0.0,0.0,0.0,0.0,389.02,3371.02,18427.0,Direct,,,View report (https://accesshub.pdc.wa.gov/node/25402),Fiscal,Aerospace tax incentives clawback legislation,House Finance Committee
7942,25466-19821,25466,FE,18046,JESSE D UMAN,Employer,19821,BOEING,16-Aug,9/15/2016,16201.0,BOEING,2979.0,0.0,2979.0,312.25,0.0,0.0,0.0,0.0,0.0,312.25,3291.25,19821.0,Direct,,,View report (https://accesshub.pdc.wa.gov/node/25466),Fiscal,Aerospace tax incentives clawback legislation,House Finance Committee
7949,25491-19915,25491,FE,18108,JENNIFER ZIEGLER,Employer,19915,CITY OF BURIEN,16-Aug,9/15/2016,16275.0,CITY OF BURIEN,3625.0,0.0,3625.0,0.0,0.0,0.0,0.0,0.0,0.0,0.0,3625.0,19915.0,Direct,,,View report (https://accesshub.pdc.wa.gov/node/25491),,,
7950,25491-19916,25491,FE,18108,JENNIFER ZIEGLER,Employer,19916,CITY OF CHENEY,16-Aug,9/15/2016,16277.0,CITY OF CHENEY,1500.0,0.0,1500.0,0.0,0.0,0.0,0.0,0.0,0.0,0.0,1500.0,19916.0,Direct,,,View report (https://accesshub.pdc.wa.gov/node/25491),Transportation,Rail Funding,Transportation
7951,25491-19917,25491,FE,18108,JENNIFER ZIEGLER,Employer,19917,CITY OF EDMONDS,16-Aug,9/15/2016,16280.0,CITY OF EDMONDS,3358.0,0.0,3358.0,0.0,0.0,0.0,0.0,0.0,0.0,0.0,3358.0,19917.0,Direct,,,View report (https://accesshub.pdc.wa.gov/node/25491),Transportation,Waterfront Crossing,WSDOT
7952,25491-20052,25491,FE,18108,JENNIFER ZIEGLER,Employer,20052,CITY OF LACEY (MARK O BROWN),16-Aug,9/15/2016,16294.0,CITY OF LACEY,500.0,0.0,500.0,0.0,0.0,0.0,0.0,0.0,0.0,0.0,500.0,20052.0,Subcontract,17413.0,MARK O BROWN,View report (https://accesshub.pdc.wa.gov/node/25491),,,
7953,25491-19987,25491,FE,18108,JENNIFER ZIEGLER,Employer,19987,CITY OF LONGVIEW (MARK O BROWN),16-Aug,9/15/2016,16295.0,CITY OF LONGVIEW,1000.0,0.0,1000.0,0.0,0.0,0.0,0.0,0.0,0.0,0.0,1000.0,19987.0,Subcontract,17413.0,MARK O BROWN,View report (https://accesshub.pdc.wa.gov/node/25491),,,
7954,25491-20035,25491,FE,18108,JENNIFER ZIEGLER,Employer,20035,CITY OF LAKE STEVENS (OUTCOMES BY LEVY LLC*),16-Aug,9/15/2016,16297.0,CITY OF LAKE STEVENS,2600.0,0.0,2600.0,0.0,0.0,0.0,0.0,0.0,0.0,0.0,2600.0,20035.0,Subcontract,17870.0,OUTCOMES BY LEVY LLC*,View report (https://accesshub.pdc.wa.gov/node/25491),,,
7956,25491-20055,25491,FE,18108,JENNIFER ZIEGLER,Employer,20055,City of Vancouver (MARK O BROWN),16-Aug,9/15/2016,16319.0,City of Vancouver,1000.0,0.0,1000.0,0.0,0.0,0.0,0.0,0.0,0.0,0.0,1000.0,20055.0,Subcontract,17413.0,MARK O BROWN,View report (https://accesshub.pdc.wa.gov/node/25491),,,
7957,25491-19985,25491,FE,18108,JENNIFER ZIEGLER,Employer,19985,CITY OF YAKIMA (James P Justin (Government Relations Consulting Inc.)),16-Aug,9/15/2016,16321.0,CITY OF YAKIMA,1500.0,0.0,1500.0,0.0,0.0,0.0,0.0,0.0,0.0,0.0,1500.0,19985.0,Subcontract,17688.0,James P Justin (Government Relations Consulting Inc.),View report (https://accesshub.pdc.wa.gov/node/25491),,,
7961,24768-19578,24768,FE,17944,MICHAEL V SCHWISOW,Employer,19578,COLUMBIA BASIN DEVELOPMENT LEAGUE,16-Jul,9/15/2016,16335.0,COLUMBIA BASIN DEVELOPMENT LEAGUE,4000.0,0.0,4000.0,0.0,0.0,0.0,0.0,0.0,0.0,0.0,4000.0,19578.0,Direct,,,View report (https://accesshub.pdc.wa.gov/node/24768),Environmental Affairs - natural resources - parks,Water resources,Senate Ways & Means; House Capital Budget
7963,25493-19871,25493,FE,18075,RHONDA WEAVER,Employer,19871,COMCAST CABLE COMMUNICATIONS,16-Aug,9/15/2016,16344.0,COMCAST CABLE COMMUNICATIONS,1300.0,0.0,1300.0,0.0,70.01,0.0,0.0,0.0,0.0,70.01,1370.01,19871.0,Direct,,,View report (https://accesshub.pdc.wa.gov/node/25493),Business and consumer affairs,,
7965,25541-19130,25541,FE,17741,JEAN M LEONARD*,Employer,19130,ENTERTAINMENT SOFTWARE ASSN,16-Aug,9/15/2016,16416.0,ENTERTAINMENT SOFTWARE ASSN,4333.33,0.0,4333.33,0.0,0.0,3500.0,0.0,0.0,0.0,3500.0,7833.33,19130.0,Direct,,,View report (https://accesshub.pdc.wa.gov/node/25541),Technology,"S CFS, S JUD, H JUD, H JJFJ",na
7972,25536-19977,25536,FE,18045,Amber Ulvenes,Employer,19977,GROUP HEALTH COOPERATIVE (CHRIS MARR),16-Aug,9/15/2016,16484.0,GROUP HEALTH COOPERATIVE,5250.0,0.0,5250.0,693.5,0.0,0.0,0.0,0.0,0.0,693.5,5943.5,19977.0,Subcontract,17773.0,CHRIS MARR,View report (https://accesshub.pdc.wa.gov/node/25536),,,
7973,25551-18464,25551,FE,17455,CLIFFORD TRAISMAN & ASSOC*,Employer,18464,HIGHLINE PUBLIC SCHOOLS,16-Aug,9/15/2016,16502.0,HIGHLINE PUBLIC SCHOOLS,500.0,0.0,500.0,0.0,0.0,0.0,0.0,0.0,0.0,0.0,500.0,18464.0,Direct,,,View report (https://accesshub.pdc.wa.gov/node/25551),Fiscal,K-12 Funding,Administration
7974,25491-19919,25491,FE,18108,JENNIFER ZIEGLER,Employer,19919,HNTB CORP,16-Aug,9/15/2016,16507.0,HNTB CORP,4000.0,0.0,4000.0,0.0,0.0,0.0,0.0,0.0,0.0,0.0,4000.0,19919.0,Direct,,,View report (https://accesshub.pdc.wa.gov/node/25491),Transportation,I-405,WSDOT
7975,25510-18878,25510,FE,17589,GOVERNMENT RELATIONS SERVICES*,Employer,18878,IRON WORKERS DIST CNCL OF THE PNW,16-Jun,9/15/2016,16547.0,IRON WORKERS DIST CNCL OF THE PNW,2000.0,0.0,2000.0,0.0,0.0,12400.0,0.0,0.0,0.0,12400.0,14400.0,18878.0,Direct,,,View report (https://accesshub.pdc.wa.gov/node/25510),Transportation,transportation,Transportation
7976,25538-18662,25538,FE,17522,ENGAGE STRATEGIES SPC*,Employer,18662,ISLANDWOOD,16-Aug,9/15/2016,16549.0,ISLANDWOOD,2000.0,0.0,2000.0,0.0,0.0,0.0,0.0,0.0,0.0,0.0,2000.0,18662.0,Direct,,,View report (https://accesshub.pdc.wa.gov/node/25538),Environmental Affairs - natural resources - parks,Outdoor rece and ed funding,"Sen Ways and Means, Parks, State Parks, RCO"
7977,25542-18662,25542,FE,17522,ENGAGE STRATEGIES SPC*,Employer,18662,ISLANDWOOD,16-Sep,9/15/2016,16549.0,ISLANDWOOD,2000.0,0.0,2000.0,0.0,0.0,0.0,0.0,0.0,0.0,0.0,2000.0,18662.0,Direct,,,View report (https://accesshub.pdc.wa.gov/node/25542),Environmental Affairs - natural resources - parks,Outdoor rec and ed funding,"State Parks, RCO, Gov's office, House Approps Sen Ways and Means"
7978,25565-18662,25565,FE,17522,ENGAGE STRATEGIES SPC*,Employer,18662,ISLANDWOOD,16-Jul,9/15/2016,16549.0,ISLANDWOOD,2000.0,0.0,2000.0,0.0,0.0,0.0,0.0,0.0,0.0,0.0,2000.0,18662.0,Direct,,,View report (https://accesshub.pdc.wa.gov/node/25565),Education,Outdoor education and recreation funding and policy,"Sen Ways and Means, House App, State Parks, RCO"
7980,25537-19366,25537,FE,17851,NANCY F NOE,Employer,19366,"JOHNSON & JOHNSON SERVICES, INC.",16-Aug,9/15/2016,16562.0,"JOHNSON & JOHNSON SERVICES, INC.",400.0,0.0,400.0,0.0,0.0,0.0,0.0,0.0,0.0,0.0,400.0,19366.0,Direct,,,View report (https://accesshub.pdc.wa.gov/node/25537),Health Care,mental health,legislators
7981,24748-19145,24748,FE,17751,CAROLYN LOGUE,Employer,19145,"Stride, Inc.",16-Jul,9/15/2016,16567.0,"Stride, Inc.",5000.0,0.0,5000.0,0.0,0.0,0.0,0.0,0.0,0.0,0.0,5000.0,19145.0,Direct,,,View report (https://accesshub.pdc.wa.gov/node/24748),Education,Online Learning/ALE issues,"OSPI, House Education Committee, Senate K12 and Early Learning"
7982,25506-19951,25506,FE,17554,DAVID S FOSTER,Employer,19951,KING CO COUNCIL (MICHAEL SHAW),16-Aug,9/15/2016,16575.0,KING CO COUNCIL,5465.0,0.0,5465.0,0.0,0.0,0.0,0.0,0.0,0.0,0.0,5465.0,19951.0,Subcontract,17957.0,MICHAEL SHAW,View report (https://accesshub.pdc.wa.gov/node/25506),,,
7983,25491-19931,25491,FE,18108,JENNIFER ZIEGLER,Employer,19931,LES SCHWAB TIRE CENTERS (PATRICK DUNN & ASSOCIATES LTD*),16-Aug,9/15/2016,16596.0,LES SCHWAB TIRE CENTERS,750.0,0.0,750.0,0.0,0.0,0.0,0.0,0.0,0.0,0.0,750.0,19931.0,Subcontract,17505.0,PATRICK DUNN & ASSOCIATES LTD*,View report (https://accesshub.pdc.wa.gov/node/25491),,,
7985,25538-18663,25538,FE,17522,ENGAGE STRATEGIES SPC*,Employer,18663,LUMMI TRIBE,16-Aug,9/15/2016,16610.0,LUMMI TRIBE,3000.0,0.0,3000.0,0.0,0.0,0.0,0.0,0.0,0.0,0.0,3000.0,18663.0,Direct,,,View report (https://accesshub.pdc.wa.gov/node/25538),Fiscal,Tax,House Finance Committee
7986,25542-18663,25542,FE,17522,ENGAGE STRATEGIES SPC*,Employer,18663,LUMMI TRIBE,16-Sep,9/15/2016,16610.0,LUMMI TRIBE,3000.0,0.0,3000.0,0.0,0.0,0.0,0.0,0.0,0.0,0.0,3000.0,18663.0,Direct,,,View report (https://accesshub.pdc.wa.gov/node/25542),Environmental Affairs - natural resources - parks,"Water, habitat restoration","Gov's office, AG&NR"
7987,25565-18663,25565,FE,17522,ENGAGE STRATEGIES SPC*,Employer,18663,LUMMI TRIBE,16-Jul,9/15/2016,16610.0,LUMMI TRIBE,3000.0,0.0,3000.0,0.0,0.0,0.0,0.0,0.0,0.0,0.0,3000.0,18663.0,Direct,,,View report (https://accesshub.pdc.wa.gov/node/25565),Transportation,Project funding,"House and Senate Trans Committees, WSDOT"
7988,24748-19146,24748,FE,17751,CAROLYN LOGUE,Employer,19146,WA INDEPENDENT MEDICAL EXAM COALITION,16-Jul,9/15/2016,16630.0,WA INDEPENDENT MEDICAL EXAM COALITION,2500.0,0.0,2500.0,0.0,0.0,0.0,0.0,0.0,0.0,0.0,2500.0,19146.0,Direct,,,View report (https://accesshub.pdc.wa.gov/node/24748),Labor,IME Issues,L&I
7989,25536-19818,25536,FE,18045,Amber Ulvenes,Employer,19818,MIDWIVES ASSOCIATION OF WA STATE,16-Aug,9/15/2016,16637.0,MIDWIVES ASSOCIATION OF WA STATE,1100.0,0.0,1100.0,0.0,0.0,0.0,0.0,0.0,0.0,0.0,1100.0,19818.0,Direct,,,View report (https://accesshub.pdc.wa.gov/node/25536),Health Care,birth center reimbursement,Health Care Authority
7992,25529-19334,25529,FE,17835,LINNEA NASMAN,Employer,19334,NATL MULTIPLE SCLEROSIS SOCIETY GREATER NW CHAPTER,16-Aug,9/15/2016,16670.0,NATL MULTIPLE SCLEROSIS SOCIETY GREATER NW CHAPTER,217.88,0.0,217.88,0.0,0.0,0.0,0.0,0.0,0.0,0.0,217.88,19334.0,Direct,,,View report (https://accesshub.pdc.wa.gov/node/25529),Health Care,Insurance and disability access,"OIC, DOH, SOS, HCA"
7993,25541-19132,25541,FE,17741,JEAN M LEONARD*,Employer,19132,NATIONWIDE INSURANCE,16-Aug,9/15/2016,16676.0,NATIONWIDE INSURANCE,3000.0,0.0,3000.0,0.0,0.0,0.0,0.0,0.0,0.0,0.0,3000.0,19132.0,Direct,,,View report (https://accesshub.pdc.wa.gov/node/25541),Financial institutions and insurance,"S FIH, S JUD, H FII, H JUD TR",na
7994,25541-19133,25541,FE,17741,JEAN M LEONARD*,Employer,19133,SPRINT NEXTEL,16-Aug,9/15/2016,16683.0,SPRINT NEXTEL,3000.0,0.0,3000.0,0.0,0.0,400.0,0.0,0.0,0.0,400.0,3400.0,19133.0,Direct,,,View report (https://accesshub.pdc.wa.gov/node/25541),Technology,"H APPROP, S CPH, S WET",na
7995,25509-19184,25509,FE,17769,Cyan Strategies,Employer,19184,NISSAN NORTH AMERICA,16-Aug,9/15/2016,16688.0,NISSAN NORTH AMERICA,1900.0,0.0,1900.0,0.0,0.0,0.0,0.0,0.0,0.0,0.0,1900.0,19184.0,Direct,,,View report (https://accesshub.pdc.wa.gov/node/25509),Transportation,EVs,WSDOT
7996,25538-23615,25538,FE,17522,ENGAGE STRATEGIES SPC*,Employer,23615,NORTHWEST ENERGY COALITION,16-Aug,9/15/2016,16700.0,NORTHWEST ENERGY COALITION,1667.0,0.0,1667.0,0.0,0.0,0.0,0.0,0.0,0.0,0.0,1667.0,23615.0,Direct,,,View report (https://accesshub.pdc.wa.gov/node/25538),Energy and utilities,"Energy efficiency, renewable energy","House TED, Commerce"
7997,25542-23615,25542,FE,17522,ENGAGE STRATEGIES SPC*,Employer,23615,NORTHWEST ENERGY COALITION,16-Sep,9/15/2016,16700.0,NORTHWEST ENERGY COALITION,1667.0,0.0,1667.0,0.0,0.0,0.0,0.0,0.0,0.0,0.0,1667.0,23615.0,Direct,,,View report (https://accesshub.pdc.wa.gov/node/25542),Energy and utilities,Broad energy policy,House Technology Energy Comm
7998,25552-24519,25552,FE,24518,Huma Zarif,Employer,24519,Northwest Health Law Advocates,16-Aug,9/15/2016,16709.0,Northwest Health Law Advocates,466.83,0.0,466.83,0.0,0.0,0.0,0.0,0.0,0.0,0.0,466.83,24519.0,Direct,,,View report (https://accesshub.pdc.wa.gov/node/25552),Health Care,gender dysphoria treatment,HCA
8002,25506-18738,25506,FE,17554,DAVID S FOSTER,Employer,18738,PACIFIC SCIENCE CENTER,16-Aug,9/15/2016,16758.0,PACIFIC SCIENCE CENTER,3150.0,0.0,3150.0,0.0,0.0,0.0,0.0,0.0,0.0,0.0,3150.0,18738.0,Direct,,,View report (https://accesshub.pdc.wa.gov/node/25506),Education,"Education, Cap Budget","Education, Cap Budget"
8003,25064-18921,25064,FE,17606,TOM GURR,Employer,18921,PACIFIC TECHNOLOGY ALLIANCE,16-Aug,9/15/2016,16759.0,PACIFIC TECHNOLOGY ALLIANCE,1650.0,0.0,1650.0,0.0,0.0,0.0,0.0,0.0,0.0,0.0,1650.0,18921.0,Direct,,,View report (https://accesshub.pdc.wa.gov/node/25064),Technology,Telecommunications,"House Technology & Economic Development Committee, Senate Energy, Environment & Telecommunications Committee"
8007,25551-18465,25551,FE,17455,CLIFFORD TRAISMAN & ASSOC*,Employer,18465,RENEWABLE NORTHWEST,16-Aug,9/15/2016,16854.0,RENEWABLE NORTHWEST,500.0,0.0,500.0,0.0,0.0,0.0,0.0,0.0,0.0,0.0,500.0,18465.0,Direct,,,View report (https://accesshub.pdc.wa.gov/node/25551),Energy and utilities,Renewables,"Administration, House Energy Committee"
8008,25536-19820,25536,FE,18045,Amber Ulvenes,Employer,19820,RESOLUTION WA,16-Aug,9/15/2016,16856.0,RESOLUTION WA,500.0,0.0,500.0,0.0,0.0,0.0,0.0,0.0,0.0,0.0,500.0,19820.0,Direct,,,View report (https://accesshub.pdc.wa.gov/node/25536),Law and justice,DRC funding,"Dept of Commerce, Law & Justice and Judiciary Committees"
8012,25543-19728,25543,FE,18010,Brewer Public Affairs,Employer,19728,SCHINDLER ELEVATOR CORP,16-Aug,9/15/2016,16877.0,SCHINDLER ELEVATOR CORP,2500.0,0.0,2500.0,119.78,0.0,0.0,0.0,0.0,0.0,119.78,2619.78,19728.0,Direct,,,View report (https://accesshub.pdc.wa.gov/node/25543),Business and consumer affairs,Elevators,LNI
8013,25506-18739,25506,FE,17554,DAVID S FOSTER,Employer,18739,School Alliance,16-Aug,9/15/2016,16879.0,School Alliance,1000.0,0.0,1000.0,0.0,0.0,0.0,0.0,0.0,0.0,0.0,1000.0,18739.0,Direct,,,View report (https://accesshub.pdc.wa.gov/node/25506),Education,Education,Education
8014,25551-18467,25551,FE,17455,CLIFFORD TRAISMAN & ASSOC*,Employer,18467,SEATTLE PUBLIC SCHOOLS,16-Aug,9/15/2016,16898.0,SEATTLE PUBLIC SCHOOLS,1000.0,0.0,1000.0,0.0,0.0,0.0,0.0,0.0,0.0,0.0,1000.0,18467.0,Direct,,,View report (https://accesshub.pdc.wa.gov/node/25551),Fiscal,K-12 Funding,"Administration, Seattle Delegation"
8015,25491-19920,25491,FE,18108,JENNIFER ZIEGLER,Employer,19920,SMALL & MIDSIZE TRANSIT ALLIANCE,16-Aug,9/15/2016,16920.0,SMALL & MIDSIZE TRANSIT ALLIANCE,4000.0,0.0,4000.0,0.0,0.0,0.0,0.0,0.0,0.0,0.0,4000.0,19920.0,Direct,,,View report (https://accesshub.pdc.wa.gov/node/25491),Transportation,Transit Funding,WSDOT
8017,24748-19147,24748,FE,17751,CAROLYN LOGUE,Employer,19147,SOUTH SOUND CHAMBERS OF COMMERCE LEG COMM,16-Jul,9/15/2016,16933.0,SOUTH SOUND CHAMBERS OF COMMERCE LEG COMM,2000.0,0.0,2000.0,0.0,0.0,0.0,0.0,0.0,0.0,0.0,2000.0,19147.0,Direct,,,View report (https://accesshub.pdc.wa.gov/node/24748),Transportation,Gateway and other south sound projects,"DOT, House and Senate Transportation Committees"
8018,25510-18879,25510,FE,17589,GOVERNMENT RELATIONS SERVICES*,Employer,18879,"GB AUCTIONS, INC",16-Jun,9/15/2016,16940.0,"GB AUCTIONS, INC",1250.0,0.0,1250.0,0.0,0.0,0.0,0.0,0.0,0.0,0.0,1250.0,18879.0,Direct,,,View report (https://accesshub.pdc.wa.gov/node/25510),Business and consumer affairs,automotive business,Capital budget
8020,25541-19134,25541,FE,17741,JEAN M LEONARD*,Employer,19134,STATE FARM INSURANCE COMPANIES,16-Aug,9/15/2016,16951.0,STATE FARM INSURANCE COMPANIES,8033.33,0.0,8033.33,50.98,0.0,0.0,0.0,0.0,0.0,50.98,8084.31,19134.0,Direct,,,View report (https://accesshub.pdc.wa.gov/node/25541),Financial institutions and insurance,"S FIH, S JUD, H FII, H JUD TR",na
8027,25554-19104,25554,FE,17719,HERB KROHN,Employer,19104,SMART TD PAC,16-Aug,9/15/2016,17017.0,SMART TD PAC,3000.0,0.0,3000.0,0.0,0.0,0.0,0.0,0.0,0.0,0.0,3000.0,19104.0,Direct,,,View report (https://accesshub.pdc.wa.gov/node/25554),,,
8030,25551-18468,25551,FE,17455,CLIFFORD TRAISMAN & ASSOC*,Employer,18468,Washington Conservation Action,16-Aug,9/15/2016,17091.0,Washington Conservation Action,2000.0,0.0,2000.0,0.0,0.0,0.0,0.0,0.0,0.0,0.0,2000.0,18468.0,Direct,,,View report (https://accesshub.pdc.wa.gov/node/25551),Environmental Affairs - natural resources - parks,Environment overall,Various Members of Legislature/Administration
8031,24748-19148,24748,FE,17751,CAROLYN LOGUE,Employer,19148,WA DENTURIST ASSN,16-Jul,9/15/2016,17093.0,WA DENTURIST ASSN,1600.0,0.0,1600.0,0.0,0.0,0.0,0.0,0.0,0.0,0.0,1600.0,19148.0,Direct,,,View report (https://accesshub.pdc.wa.gov/node/24748),Health Care,General dental issues,"DOH, House and Senate Health Care"
8033,25551-18469,25551,FE,17455,CLIFFORD TRAISMAN & ASSOC*,Employer,18469,Washington Conservation Action Education Fund,16-Aug,9/15/2016,17100.0,Washington Conservation Action Education Fund,2000.0,0.0,2000.0,0.0,0.0,0.0,0.0,0.0,0.0,0.0,2000.0,18469.0,Direct,,,View report (https://accesshub.pdc.wa.gov/node/25551),Environmental Affairs - natural resources - parks,Climate,"Administration, various Members of Legislature"
8034,25503-18940,25503,FE,17616,Heather Hansen,Employer,18940,WA FARM FORESTRY ASSN,16-Aug,9/15/2016,17111.0,WA FARM FORESTRY ASSN,2800.0,0.0,2800.0,0.0,0.0,0.0,0.0,0.0,0.0,0.0,2800.0,18940.0,Direct,,,View report (https://accesshub.pdc.wa.gov/node/25503),Environmental Affairs - natural resources - parks,budget,DNR
8035,25503-18941,25503,FE,17616,Heather Hansen,Employer,18941,WA FRIENDS OF FARMS & FORESTS,16-Aug,9/15/2016,17114.0,WA FRIENDS OF FARMS & FORESTS,737.92,0.0,737.92,0.0,0.0,0.0,0.0,0.0,0.0,0.0,737.92,18941.0,Direct,,,View report (https://accesshub.pdc.wa.gov/node/25503),Environmental Affairs - natural resources - parks,Fertilizer,WSDA
8036,24748-19149,24748,FE,17751,CAROLYN LOGUE,Employer,19149,WA FOOD INDUSTRY,16-Jul,9/15/2016,17117.0,WA FOOD INDUSTRY,3360.0,0.0,3360.0,0.0,0.0,0.0,0.0,0.0,0.0,0.0,3360.0,19149.0,Direct,,,View report (https://accesshub.pdc.wa.gov/node/24748),Labor,"Minimum wage, wage and hour","L&I, House Labor & Workforce Development, Senate Commerce & Labor, ESD"
8045,25541-19135,25541,FE,17741,JEAN M LEONARD*,Employer,19135,WA INSURERS,16-Aug,9/15/2016,17130.0,WA INSURERS,7381.67,0.0,7381.67,0.0,0.0,0.0,0.0,0.0,0.0,0.0,7381.67,19135.0,Direct,,,View report (https://accesshub.pdc.wa.gov/node/25541),Financial institutions and insurance,"S FIH, S JUD, H FII, H JUD TR",na
8047,24748-24891,24748,FE,17751,CAROLYN LOGUE,Employer,24891,Washington Library Association,16-Jul,9/15/2016,17140.0,Washington Library Association,1100.0,0.0,1100.0,0.0,0.0,0.0,0.0,0.0,0.0,0.0,1100.0,24891.0,Direct,,,View report (https://accesshub.pdc.wa.gov/node/24748),,,
8048,25513-19038,25513,FE,17677,ERIC D JOHNSON,Employer,19038,Washington Public Ports Association,16-Aug,9/15/2016,17174.0,Washington Public Ports Association,1304.46,0.0,1304.46,0.0,0.0,0.0,0.0,0.0,0.0,0.0,1304.46,19038.0,Direct,,,View report (https://accesshub.pdc.wa.gov/node/25513),Local government,Port Governance,Governmental Operations
8049,25511-19379,25511,FE,17859,GERALD J O'KEEFE,Employer,19379,Washington Public Ports Association,16-Aug,9/15/2016,17174.0,Washington Public Ports Association,963.0,0.0,963.0,0.0,0.0,0.0,0.0,0.0,0.0,0.0,963.0,19379.0,Direct,,,View report (https://accesshub.pdc.wa.gov/node/25511),Local government,Port Governance,Governmental Operations
8050,25514-19763,25514,FE,18025,JAMES THOMPSON,Employer,19763,Washington Public Ports Association,16-Aug,9/15/2016,17174.0,Washington Public Ports Association,916.67,0.0,916.67,0.0,0.0,0.0,0.0,0.0,0.0,0.0,916.67,19763.0,Direct,,,View report (https://accesshub.pdc.wa.gov/node/25514),Local government,Port Governance,Governmental Operations
8051,25347-19831,25347,FE,18055,BRANDI VENA,Employer,19831,Washington Public Ports Association,16-Aug,9/15/2016,17174.0,Washington Public Ports Association,583.33,0.0,583.33,0.0,0.0,0.0,0.0,0.0,0.0,0.0,583.33,19831.0,Direct,,,View report (https://accesshub.pdc.wa.gov/node/25347),Local government,Port Governance,Governmental Operations
8054,25543-19729,25543,FE,18010,Brewer Public Affairs,Employer,19729,WSIA,16-Aug,9/15/2016,17194.0,WSIA,2500.0,0.0,2500.0,47.77,0.0,0.0,0.0,0.0,0.0,47.77,2547.77,19729.0,Direct,,,View report (https://accesshub.pdc.wa.gov/node/25543),Labor,Insurance,"Labor, LNI"
8055,24768-19579,24768,FE,17944,MICHAEL V SCHWISOW,Employer,19579,Washington Winegrowers Association,16-Jul,9/15/2016,17210.0,Washington Winegrowers Association,1900.0,0.0,1900.0,0.0,0.0,0.0,0.0,0.0,0.0,0.0,1900.0,19579.0,Direct,,,View report (https://accesshub.pdc.wa.gov/node/24768),Agriculture,Agricultural research,Senate Ways & Means
8057,25491-19922,25491,FE,18108,JENNIFER ZIEGLER,Employer,19922,WA STATE ASSN OF COUNTIES (WSAC),16-Aug,9/15/2016,17215.0,WA STATE ASSN OF COUNTIES (WSAC),2000.0,0.0,2000.0,0.0,0.0,0.0,0.0,0.0,0.0,0.0,2000.0,19922.0,Direct,,,View report (https://accesshub.pdc.wa.gov/node/25491),Local government,Public Records,Local Government
8060,25503-18942,25503,FE,17616,Heather Hansen,Employer,18942,WA ST FAIRS ASSN,16-Aug,9/15/2016,17244.0,WA ST FAIRS ASSN,1343.34,0.0,1343.34,0.0,0.0,0.0,0.0,0.0,0.0,0.0,1343.34,18942.0,Direct,,,View report (https://accesshub.pdc.wa.gov/node/25503),,,
8064,25503-18943,25503,FE,17616,Heather Hansen,Employer,18943,WA ST NURSERY & LANDSCAPE ASSN,16-Aug,9/15/2016,17266.0,WA ST NURSERY & LANDSCAPE ASSN,1291.67,0.0,1291.67,0.0,0.0,0.0,0.0,0.0,0.0,0.0,1291.67,18943.0,Direct,,,View report (https://accesshub.pdc.wa.gov/node/25503),,,
8066,25491-19923,25491,FE,18108,JENNIFER ZIEGLER,Employer,19923,WA ST PATROL LIEUTENANTS AND CAPTAINS ASSN,16-Aug,9/15/2016,17274.0,WA ST PATROL LIEUTENANTS AND CAPTAINS ASSN,1500.0,0.0,1500.0,0.0,0.0,0.0,0.0,0.0,0.0,0.0,1500.0,19923.0,Direct,,,View report (https://accesshub.pdc.wa.gov/node/25491),,,
8067,24768-19580,24768,FE,17944,MICHAEL V SCHWISOW,Employer,19580,WA ST WATER RESOURCES ASSN,16-Jul,9/15/2016,17292.0,WA ST WATER RESOURCES ASSN,4450.42,0.0,4450.42,0.0,0.0,0.0,0.0,0.0,0.0,0.0,4450.42,19580.0,Direct,,,View report (https://accesshub.pdc.wa.gov/node/24768),Environmental Affairs - natural resources - parks,water resources,"Senate Ag, Water & RED; House Ag & Natural Resources"
8070,24413-19019,24413,FE,17671,CATHERINE E JACOY,Employer,19019,WINE INSTITUTE,16-Jul,9/15/2016,17312.0,WINE INSTITUTE,1500.0,0.0,1500.0,0.0,0.0,0.0,0.0,0.0,0.0,0.0,1500.0,19019.0,Direct,,,View report (https://accesshub.pdc.wa.gov/node/24413),,,
8071,25512-19019,25512,FE,17671,CATHERINE E JACOY,Employer,19019,WINE INSTITUTE,16-Aug,9/15/2016,17312.0,WINE INSTITUTE,1500.0,0.0,1500.0,30.78,0.0,0.0,0.0,0.0,0.0,30.78,1530.78,19019.0,Direct,,,View report (https://accesshub.pdc.wa.gov/node/25512),Business and consumer affairs,AIA rule changes,Washington State Liquor and Canibus Board
8072,25491-19924,25491,FE,18108,JENNIFER ZIEGLER,Employer,19924,WOODLAND PARK ZOO SOCIETY,16-Aug,9/15/2016,17315.0,WOODLAND PARK ZOO SOCIETY,4000.0,0.0,4000.0,0.0,0.0,0.0,0.0,0.0,0.0,0.0,4000.0,19924.0,Direct,,,View report (https://accesshub.pdc.wa.gov/node/25491),Fiscal,B&O Taxes,Department of Revenue
8073,25506-18742,25506,FE,17554,DAVID S FOSTER,Employer,18742,Washington State Alliance of YMCAs,16-Aug,9/15/2016,17323.0,Washington State Alliance of YMCAs,3090.0,0.0,3090.0,0.0,0.0,0.0,0.0,0.0,0.0,0.0,3090.0,18742.0,Direct,,,View report (https://accesshub.pdc.wa.gov/node/25506),Human services,"Childcare, Health","Health Care, early Learning"
8074,25583-19409,25583,FE,17873,PACIFIC NW REGIONAL STRATEGIES LLC*,Employer,19409,ACE METALS CORP,16-Aug,9/16/2016,16064.0,ACE METALS CORP,1000.0,0.0,1000.0,0.0,0.0,0.0,0.0,0.0,0.0,0.0,1000.0,19409.0,Direct,,,View report (https://accesshub.pdc.wa.gov/node/25583),Technology,no,Ecology
8075,24770-18649,24770,FE,17520,Emerick & Bloom,Employer,18649,Washington Acupuncture and Eastern Medicine Association,16-Jul,9/16/2016,16067.0,Washington Acupuncture and Eastern Medicine Association,3000.0,0.0,3000.0,0.0,0.0,0.0,0.0,0.0,0.0,0.0,3000.0,18649.0,Direct,,,View report (https://accesshub.pdc.wa.gov/node/24770),Health Care,East Asian Medicine-Acupuncture,"L & I, DOH, Health Care Committees"
8076,25528-18157,25528,FE,17342,DAVID C ARBAUGH,Employer,18157,ALLERGAN USA INC,16-Aug,9/16/2016,16080.0,ALLERGAN USA INC,3000.0,0.0,3000.0,0.0,0.0,0.0,0.0,0.0,0.0,0.0,3000.0,18157.0,Direct,,,View report (https://accesshub.pdc.wa.gov/node/25528),,,
8077,25580-19144,25580,FE,17751,CAROLYN LOGUE,Employer,19144,AMERICAN CIVIL LIBERTIES UNION OF WA,16-Aug,9/16/2016,16097.0,AMERICAN CIVIL LIBERTIES UNION OF WA,2850.0,0.0,2850.0,0.0,0.0,0.0,0.0,0.0,0.0,0.0,2850.0,19144.0,Direct,,,View report (https://accesshub.pdc.wa.gov/node/25580),Law and justice,Death Penalty repeal,"AG, Senate Law & Justice, House Judiciary"
8078,25027-19423,25027,FE,17876,E & A STRATEGIC CONSULTING*,Employer,19423,ARTIZEN GROUP LLC,16-Aug,9/16/2016,16141.0,ARTIZEN GROUP LLC,2000.0,0.0,2000.0,0.0,0.0,500.0,0.0,0.0,0.0,500.0,2500.0,19423.0,Direct,,,View report (https://accesshub.pdc.wa.gov/node/25027),Business and consumer affairs,marijuana rule,LCB
8079,25301-19555,25301,FE,17926,JOHN ROTHLIN,Employer,19555,AVISTA CORP,16-Aug,9/16/2016,16180.0,AVISTA CORP,11430.6,0.0,11430.6,1003.01,97.78,10500.0,0.0,0.0,0.0,11600.79,23031.39,19555.0,Direct,,,View report (https://accesshub.pdc.wa.gov/node/25301),Environmental Affairs - natural resources - parks,Solid Waste Rule,DOE
8082,25027-19424,25027,FE,17876,E & A STRATEGIC CONSULTING*,Employer,19424,CANNABIS RETAILERS FOR SMART REGULATION,16-Aug,9/16/2016,16225.0,CANNABIS RETAILERS FOR SMART REGULATION,2500.0,0.0,2500.0,0.0,0.0,0.0,0.0,0.0,0.0,0.0,2500.0,19424.0,Direct,,,View report (https://accesshub.pdc.wa.gov/node/25027),Business and consumer affairs,marijuana rule,LCB
8083,25535-18305,25535,FE,17407,Martin Flynn Public Affairs Inc,Employer,18305,FORTERRA,16-Aug,9/16/2016,16234.0,FORTERRA,4000.0,0.0,4000.0,0.0,0.0,0.0,0.0,0.0,0.0,0.0,4000.0,18305.0,Direct,,,View report (https://accesshub.pdc.wa.gov/node/25535),Local government,"Local Government, Captial Budget","W&M, Gov Ops"
8084,25535-18306,25535,FE,17407,Martin Flynn Public Affairs Inc,Employer,18306,CENTRAL PUGET SOUND REGIONAL TRANSIT AUTHORITY / SOUND TRANSIT,16-Aug,9/16/2016,16245.0,CENTRAL PUGET SOUND REGIONAL TRANSIT AUTHORITY / SOUND TRANSIT,7000.0,0.0,7000.0,0.0,0.0,0.0,0.0,0.0,0.0,0.0,7000.0,18306.0,Direct,,,View report (https://accesshub.pdc.wa.gov/node/25535),Transportation,Transportation,Transportation
8085,25528-18158,25528,FE,17342,DAVID C ARBAUGH,Employer,18158,CHELAN CO PUBLIC UTILITY DIST #1,16-Aug,9/16/2016,16254.0,CHELAN CO PUBLIC UTILITY DIST #1,9000.0,0.0,9000.0,0.0,0.0,0.0,0.0,0.0,0.0,0.0,9000.0,18158.0,Direct,,,View report (https://accesshub.pdc.wa.gov/node/25528),,,
8086,25528-18159,25528,FE,17342,DAVID C ARBAUGH,Employer,18159,CITY OF RICHLAND,16-Aug,9/16/2016,16308.0,CITY OF RICHLAND,3000.0,0.0,3000.0,0.0,0.0,0.0,0.0,0.0,0.0,0.0,3000.0,18159.0,Direct,,,View report (https://accesshub.pdc.wa.gov/node/25528),,,
8089,24770-18651,24770,FE,17520,Emerick & Bloom,Employer,18651,HOME CARE ASSN OF WA,16-Jul,9/16/2016,16509.0,HOME CARE ASSN OF WA,3200.0,0.0,3200.0,0.0,0.0,0.0,0.0,0.0,0.0,0.0,3200.0,18651.0,Direct,,,View report (https://accesshub.pdc.wa.gov/node/24770),Health Care,Home Health Care,"HCA, DOH, Health Care Committees"
8091,25528-18160,25528,FE,17342,DAVID C ARBAUGH,Employer,18160,INVENERGY,16-Aug,9/16/2016,16546.0,INVENERGY,3500.0,0.0,3500.0,94.99,48.3,1000.0,0.0,0.0,1818.94,2962.23,6462.23,18160.0,Direct,,,View report (https://accesshub.pdc.wa.gov/node/25528),Environmental Affairs - natural resources - parks,Fiscal/Environmental,Rep. Brian Blake
8092,25580-19145,25580,FE,17751,CAROLYN LOGUE,Employer,19145,"Stride, Inc.",16-Aug,9/16/2016,16567.0,"Stride, Inc.",5000.0,0.0,5000.0,0.0,0.0,0.0,0.0,0.0,0.0,0.0,5000.0,19145.0,Direct,,,View report (https://accesshub.pdc.wa.gov/node/25580),Education,online learning/ALE,"OSPI, House Education, Senate k12 and Early Learning"
8094,25580-19146,25580,FE,17751,CAROLYN LOGUE,Employer,19146,WA INDEPENDENT MEDICAL EXAM COALITION,16-Aug,9/16/2016,16630.0,WA INDEPENDENT MEDICAL EXAM COALITION,2500.0,0.0,2500.0,0.0,0.0,0.0,0.0,0.0,0.0,0.0,2500.0,19146.0,Direct,,,View report (https://accesshub.pdc.wa.gov/node/25580),Labor,IME issues,L&I
8095,25568-18331,25568,FE,17418,TOM BUGERT,Employer,18331,THE NATURE CONSERVANCY,16-Aug,9/16/2016,16677.0,THE NATURE CONSERVANCY,239.0,0.0,239.0,0.0,0.0,0.0,0.0,0.0,0.0,0.0,239.0,18331.0,Direct,,,View report (https://accesshub.pdc.wa.gov/node/25568),Fiscal,forest health funding,"HAGNR, House Capital Budget, Senate W&M, SNRP"
8097,25535-18310,25535,FE,17407,Martin Flynn Public Affairs Inc,Employer,18310,BANK OF AMERICA CORP,16-Aug,9/16/2016,16887.0,BANK OF AMERICA CORP,5000.0,0.0,5000.0,0.0,0.0,0.0,0.0,0.0,0.0,0.0,5000.0,18310.0,Direct,,,View report (https://accesshub.pdc.wa.gov/node/25535),Financial institutions and insurance,Business and Financial Services,FI&I
8098,25528-18162,25528,FE,17342,DAVID C ARBAUGH,Employer,18162,SNOHOMISH CO PUBLIC UTILITY DIST #1,16-Aug,9/16/2016,16926.0,SNOHOMISH CO PUBLIC UTILITY DIST #1,5000.0,0.0,5000.0,0.0,0.0,0.0,0.0,0.0,0.0,0.0,5000.0,18162.0,Direct,,,View report (https://accesshub.pdc.wa.gov/node/25528),,,
8099,25580-19147,25580,FE,17751,CAROLYN LOGUE,Employer,19147,SOUTH SOUND CHAMBERS OF COMMERCE LEG COMM,16-Aug,9/16/2016,16933.0,SOUTH SOUND CHAMBERS OF COMMERCE LEG COMM,2000.0,0.0,2000.0,0.0,0.0,0.0,0.0,0.0,0.0,0.0,2000.0,19147.0,Direct,,,View report (https://accesshub.pdc.wa.gov/node/25580),Transportation,Connecting WA,DOT
8100,25572-18299,25572,FE,17401,Brynn Brady,Employer,18299,TACOMA-PIERCE CO HEALTH DEPT,16-Aug,9/16/2016,16967.0,TACOMA-PIERCE CO HEALTH DEPT,500.0,0.0,500.0,0.0,0.0,0.0,0.0,0.0,0.0,0.0,500.0,18299.0,Direct,,,View report (https://accesshub.pdc.wa.gov/node/25572),Health Care,Health Care and Wellness,Health Care
8103,25580-19148,25580,FE,17751,CAROLYN LOGUE,Employer,19148,WA DENTURIST ASSN,16-Aug,9/16/2016,17093.0,WA DENTURIST ASSN,1600.0,0.0,1600.0,0.0,0.0,0.0,0.0,0.0,0.0,0.0,1600.0,19148.0,Direct,,,View report (https://accesshub.pdc.wa.gov/node/25580),Health Care,Dental issues,"DOH, House and Senate Health Care"
8104,25588-19070,25588,FE,17698,Juliet Schindler,Employer,19070,COLLEGE SUCCESS FOUNDATION,16-Aug,9/16/2016,17104.0,COLLEGE SUCCESS FOUNDATION,3000.0,0.0,3000.0,0.0,0.0,0.0,0.0,0.0,0.0,0.0,3000.0,19070.0,Direct,,,View report (https://accesshub.pdc.wa.gov/node/25588),Education,"STEM, K12 reform, higher ed","legislative ed, higher ed and fiscal committees, WSAC, OSPI"
8105,25569-18784,25569,FE,17567,JANICE L GEE,Employer,18784,WA FOOD INDUSTRY,16-Aug,9/16/2016,17117.0,WA FOOD INDUSTRY,2750.0,0.0,2750.0,0.0,0.0,0.0,0.0,0.0,0.0,0.0,2750.0,18784.0,Direct,,,View report (https://accesshub.pdc.wa.gov/node/25569),Business and consumer affairs,liquor warehousing,LCB
8106,25580-19149,25580,FE,17751,CAROLYN LOGUE,Employer,19149,WA FOOD INDUSTRY,16-Aug,9/16/2016,17117.0,WA FOOD INDUSTRY,3360.0,0.0,3360.0,0.0,0.0,0.0,0.0,0.0,0.0,0.0,3360.0,19149.0,Direct,,,View report (https://accesshub.pdc.wa.gov/node/25580),Labor,"Minimum Wage, wage and hour","L&I, Senate Commerce & Labor, House Labor and Workforce Development"
8107,25580-24891,25580,FE,17751,CAROLYN LOGUE,Employer,24891,Washington Library Association,16-Aug,9/16/2016,17140.0,Washington Library Association,1100.0,0.0,1100.0,0.0,0.0,0.0,0.0,0.0,0.0,0.0,1100.0,24891.0,Direct,,,View report (https://accesshub.pdc.wa.gov/node/25580),Education,School Libraries,"OSPI, House Education, Senate K12 and Early Learning"
8108,25584-18187,25584,FE,17353,KATE C BABER,Employer,18187,WA LOW-INCOME HOUSING ALLIANCE,16-Aug,9/16/2016,17143.0,WA LOW-INCOME HOUSING ALLIANCE,210.0,0.0,210.0,0.0,0.0,0.0,0.0,0.0,0.0,0.0,210.0,18187.0,Direct,,,View report (https://accesshub.pdc.wa.gov/node/25584),Human services,Homelessness,Legislature
8109,24770-18652,24770,FE,17520,Emerick & Bloom,Employer,18652,Home Care Association of America,16-Jul,9/16/2016,17168.0,Home Care Association of America,1500.0,0.0,1500.0,0.0,0.0,0.0,0.0,0.0,0.0,0.0,1500.0,18652.0,Direct,,,View report (https://accesshub.pdc.wa.gov/node/24770),Health Care,Private Pay Home Care,"HCA, DOH, Health Care Committees"
8111,25605-19493,25605,FE,17902,Ryan Pricco,Employer,19493,Child Care Aware of WA,16-Aug,9/16/2016,17231.0,Child Care Aware of WA,252.32,0.0,252.32,39.64,0.0,0.0,0.0,0.0,0.0,39.64,291.96,19493.0,Direct,,,View report (https://accesshub.pdc.wa.gov/node/25605),Education,child care,"DEL, House Appropriations, Senate Ways & Means, Senate Early Learning & K-12 Education, House Early Learning & Human Services"
8112,25570-19570,25570,FE,17936,CASSIE SAUER,Employer,19570,WA ST HOSPITAL ASSN,16-Aug,9/16/2016,17252.0,WA ST HOSPITAL ASSN,900.0,0.0,900.0,310.57,0.0,0.0,0.0,0.0,0.0,310.57,1210.57,19570.0,Direct,,,View report (https://accesshub.pdc.wa.gov/node/25570),Health Care,Health Care Funding,"Health Care Authority, Ways and Means"
8113,24770-18653,24770,FE,17520,Emerick & Bloom,Employer,18653,WA ST HOSPICE & PALLIATIVE CARE ORG,16-Jul,9/16/2016,17255.0,WA ST HOSPICE & PALLIATIVE CARE ORG,3500.0,0.0,3500.0,0.0,0.0,0.0,0.0,0.0,0.0,0.0,3500.0,18653.0,Direct,,,View report (https://accesshub.pdc.wa.gov/node/24770),Health Care,Hospice,"HCA, DOH, Health Care Committees"
8115,25027-25029,25027,FE,17876,E & A STRATEGIC CONSULTING*,Employer,25029,Synergy Brands WA,16-Aug,9/16/2016,25028.0,Synergy Brands WA,2500.0,0.0,2500.0,0.0,0.0,0.0,0.0,0.0,0.0,0.0,2500.0,25029.0,Direct,,,View report (https://accesshub.pdc.wa.gov/node/25027),Business and consumer affairs,marijuana rule,LCB
8116,25620-18983,25620,FE,17654,Trent M House,Employer,18983,AEROSPACE FUTURES ALLIANCE OF WASHINGTON LTD,16-Aug,9/19/2016,16071.0,AEROSPACE FUTURES ALLIANCE OF WASHINGTON LTD,3000.0,0.0,3000.0,0.0,0.0,0.0,0.0,0.0,0.0,0.0,3000.0,18983.0,Direct,,,View report (https://accesshub.pdc.wa.gov/node/25620),,,
8117,25622-19653,25622,FE,17981,DIANA STADDEN,Employer,19653,ARC OF WA ST,16-Aug,9/19/2016,16137.0,ARC OF WA ST,300.0,0.0,300.0,0.0,0.0,0.0,0.0,0.0,0.0,0.0,300.0,19653.0,Direct,,,View report (https://accesshub.pdc.wa.gov/node/25622),,,
8119,25590-20104,25590,FE,17666,ALEX HUR,Employer,20104,Cities Insurance Assn of WA (CAPITOL SOLUTIONS*),16-Aug,9/19/2016,16269.0,Cities Insurance Assn of WA,2440.0,0.0,2440.0,0.0,0.0,0.0,0.0,0.0,0.0,0.0,2440.0,20104.0,Subcontract,17431.0,CAPITOL SOLUTIONS*,View report (https://accesshub.pdc.wa.gov/node/25590),,,
8120,25591-20104,25591,FE,17666,ALEX HUR,Employer,20104,Cities Insurance Assn of WA (CAPITOL SOLUTIONS*),16-Sep,9/19/2016,16269.0,Cities Insurance Assn of WA,2440.0,0.0,2440.0,0.0,0.0,0.0,0.0,0.0,0.0,0.0,2440.0,20104.0,Subcontract,17431.0,CAPITOL SOLUTIONS*,View report (https://accesshub.pdc.wa.gov/node/25591),,,
8121,25623-19161,25623,FE,17762,HILLARY MADSEN,Employer,19161,COLUMBIA LEGAL SERVICES,16-Aug,9/19/2016,16338.0,COLUMBIA LEGAL SERVICES,253.55,0.0,253.55,74.81,0.0,0.0,0.0,0.0,0.0,74.81,328.36,19161.0,Direct,,,View report (https://accesshub.pdc.wa.gov/node/25623),Human services,Right to counsel,"Judiciary, human services committees"
8122,25590-19009,25590,FE,17666,ALEX HUR,Employer,19009,Equity in Education Coalition,16-Aug,9/19/2016,16420.0,Equity in Education Coalition,2000.0,0.0,2000.0,0.0,0.0,0.0,0.0,0.0,0.0,0.0,2000.0,19009.0,Direct,,,View report (https://accesshub.pdc.wa.gov/node/25590),Education,K-12,"K-12, Appropriations, Ways"
8123,25591-19009,25591,FE,17666,ALEX HUR,Employer,19009,Equity in Education Coalition,16-Sep,9/19/2016,16420.0,Equity in Education Coalition,2000.0,0.0,2000.0,0.0,0.0,0.0,0.0,0.0,0.0,0.0,2000.0,19009.0,Direct,,,View report (https://accesshub.pdc.wa.gov/node/25591),Education,K-12,"K-12, Appropriations, Ways"
8124,25590-20108,25590,FE,17666,ALEX HUR,Employer,20108,EVERGREEN SCHOOL DIST #114 (CAPITOL SOLUTIONS*),16-Aug,9/19/2016,16423.0,EVERGREEN SCHOOL DIST #114,3350.0,0.0,3350.0,0.0,0.0,0.0,0.0,0.0,0.0,0.0,3350.0,20108.0,Subcontract,17431.0,CAPITOL SOLUTIONS*,View report (https://accesshub.pdc.wa.gov/node/25590),,,
