,id,report_number,origin,filer_id,filer_name,type,funding_source_id,funding_source_name,filing_period,receipt_date,employer_id,employer_name,compensation,sub_lobbyist_compensation,net_compensation,personal_expenses,entertainment,contributions,advertising,political_ads,other,total_expenses,net_total,employment_registration_id,employment_type,contractor_id,contractor_name,url,legislation_subject_matter,issue_bill_number,committee_lobbied
115000,95805-46939,95805,FE,18108,JENNIFER ZIEGLER,Employer,46939,WA ECONOMIC DEVELOPMENT ASSN,22-Aug,9/15/2022,17102.0,WA ECONOMIC DEVELOPMENT ASSN,3000.0,0.0,3000.0,0.0,0.0,0.0,0.0,0.0,0.0,0.0,3000.0,46939.0,Direct,,,View report (https://accesshub.pdc.wa.gov/node/95805),,,
115006,95769-18404,95769,FE,17433,CARNEY BADLEY SPELLMAN*,Employer,18404,WA ASSN OF HEALTH UNDERWRITERS,22-Aug,9/15/2022,17129.0,WA ASSN OF HEALTH UNDERWRITERS,3500.0,0.0,3500.0,0.0,0.0,0.0,0.0,0.0,0.0,0.0,3500.0,18404.0,Direct,,,View report (https://accesshub.pdc.wa.gov/node/95769),Business and consumer affairs,"Health Insurance, Life Insurance,Disability Insurance, Long Term Care Insurance,Taxation",Senate HC Cmte; Senate W&M Cmte; Senate FII Cmte; House HC&W Cmte; House BFS Cmte; House Approp. Cmte; Ins. Comm
115007,95719-83346,95719,FE,17825,CAREY L MORRIS,Employer,83346,WA ASSN OF NATUROPATHIC PHYSICIANS,22-Aug,9/15/2022,17154.0,WA ASSN OF NATUROPATHIC PHYSICIANS,3000.0,0.0,3000.0,0.0,0.0,0.0,0.0,0.0,0.0,0.0,3000.0,83346.0,Direct,,,View report (https://accesshub.pdc.wa.gov/node/95719),Health Care,5088,"Healthcare, Workforce"
115008,91262-85185,91262,FE,17581,GORDON THOMAS HONEYWELL GOV AFFAIRS*,Employer,85185,Washington Public Ports Association,22-Mar,9/15/2022,17174.0,Washington Public Ports Association,4000.0,0.0,4000.0,0.0,0.0,0.0,0.0,0.0,0.0,0.0,4000.0,85185.0,Direct,,,View report (https://accesshub.pdc.wa.gov/node/91262),Energy and utilities,Energy Issues,Legislative
115009,95805-47807,95805,FE,18108,JENNIFER ZIEGLER,Employer,47807,WA ROUNDTABLE,22-Aug,9/15/2022,17178.0,WA ROUNDTABLE,1500.0,0.0,1500.0,0.0,0.0,0.0,0.0,0.0,0.0,0.0,1500.0,47807.0,Direct,,,View report (https://accesshub.pdc.wa.gov/node/95805),Transportation,Transportation Funding,Transportation Committees
115010,95718-19398,95718,FE,17870,OUTCOMES BY LEVY LLC*,Employer,19398,WA RECREATION & PARKS ASSN,22-Aug,9/15/2022,17183.0,WA RECREATION & PARKS ASSN,1700.0,0.0,1700.0,30.75,0.0,0.0,0.0,0.0,0.0,30.75,1730.75,19398.0,Direct,,,View report (https://accesshub.pdc.wa.gov/node/95718),Environmental Affairs - natural resources - parks,"Local M&O funding needs, ""Parks Rx""","8/8 - WRPA meets w/ Rep. Cindy Ryu on sponsorship of local parks M&O budget request; 8/9 -- Meeting w/ Sen. Committee staff on drafting ""Parks Rx"" bill; 8/11 - Lunch meeting with Rep. Ryu on multiple issues;"
115011,95802-81720,95802,FE,81702,JH Consulting,Employer,81720,WA REFUSE & RECYCLING ASSN (CHRISTOPHERSEN INC*),22-Aug,9/15/2022,17185.0,WA REFUSE & RECYCLING ASSN,250.0,0.0,250.0,0.0,0.0,0.0,0.0,0.0,0.0,0.0,250.0,81720.0,Subcontract,17348.0,CHRISTOPHERSEN INC*,View report (https://accesshub.pdc.wa.gov/node/95802),,,
115012,95802-81735,95802,FE,81702,JH Consulting,Employer,81735,WA BEVERAGE ASSN (BOSWELL CONSULTING*),22-Aug,9/15/2022,17190.0,WA BEVERAGE ASSN,200.0,0.0,200.0,0.0,0.0,0.0,0.0,0.0,0.0,0.0,200.0,81735.0,Subcontract,17398.0,BOSWELL CONSULTING*,View report (https://accesshub.pdc.wa.gov/node/95802),,,
115013,95743-19253,95743,FE,17796,JAMES MCMAHAN,Employer,19253,WA ASSN OF SHERIFFS & POLICE CHIEFS,22-Aug,9/15/2022,17196.0,WA ASSN OF SHERIFFS & POLICE CHIEFS,1680.0,0.0,1680.0,0.0,0.0,0.0,0.0,0.0,0.0,0.0,1680.0,19253.0,Direct,,,View report (https://accesshub.pdc.wa.gov/node/95743),Law and justice,Law and Justice related issues,H/S Commitees
115014,95745-86051,95745,FE,86050,Taylor Gardner,Employer,86051,WA ASSN OF SHERIFFS & POLICE CHIEFS,22-Aug,9/15/2022,17196.0,WA ASSN OF SHERIFFS & POLICE CHIEFS,1360.0,0.0,1360.0,0.0,0.0,0.0,0.0,0.0,0.0,0.0,1360.0,86051.0,Direct,,,View report (https://accesshub.pdc.wa.gov/node/95745),Law and justice,Law and Justice related issues,H/S Committees
115015,95737-24811,95737,FE,17358,"Public Affairs Consulting, LLC",Employer,24811,TOWING AND RECOVERY ASSN OF WA,22-Aug,9/15/2022,17205.0,TOWING AND RECOVERY ASSN OF WA,5000.0,-310.0,4690.0,149.17,0.0,0.0,0.0,0.0,0.0,149.17,4839.17,24811.0,Direct,,,View report (https://accesshub.pdc.wa.gov/node/95737),Transportation,Towing and Transporation,Lawmakers and Agencies of Government
115016,95799-85791,95799,FE,50941,Lake City Consulting Services LLC,Employer,85791,"TOWING AND RECOVERY ASSN OF WA (Public Affairs Consulting, LLC)",22-Aug,9/15/2022,17205.0,TOWING AND RECOVERY ASSN OF WA,1594.0,0.0,1594.0,0.0,0.0,0.0,0.0,0.0,0.0,0.0,1594.0,85791.0,Subcontract,17358.0,"Public Affairs Consulting, LLC",View report (https://accesshub.pdc.wa.gov/node/95799),,,
115017,91262-18865,91262,FE,17581,GORDON THOMAS HONEYWELL GOV AFFAIRS*,Employer,18865,WA ASSN OF WHEAT GROWERS,22-Mar,9/15/2022,17209.0,WA ASSN OF WHEAT GROWERS,4250.0,0.0,4250.0,0.0,0.0,0.0,0.0,0.0,0.0,0.0,4250.0,18865.0,Direct,,,View report (https://accesshub.pdc.wa.gov/node/91262),Agriculture,"climate change, pesticides, water policy, fiscal issues, tax incentives, agriculture",Legislative
115018,92362-18865,92362,FE,17581,GORDON THOMAS HONEYWELL GOV AFFAIRS*,Employer,18865,WA ASSN OF WHEAT GROWERS,22-Apr,9/15/2022,17209.0,WA ASSN OF WHEAT GROWERS,4250.0,0.0,4250.0,0.0,0.0,0.0,0.0,0.0,0.0,0.0,4250.0,18865.0,Direct,,,View report (https://accesshub.pdc.wa.gov/node/92362),Agriculture,"climate change, pesticides, water policy, fiscal issues, tax incentives, agriculture",Legislative
115019,95716-18421,95716,FE,17434,CASCADE GOVT AFFAIRS LLC*,Employer,18421,WA STATE ATHLETIC TRAINERS ASSN,22-Aug,9/15/2022,17218.0,WA STATE ATHLETIC TRAINERS ASSN,3000.0,0.0,3000.0,0.0,0.0,0.0,0.0,0.0,0.0,0.0,3000.0,18421.0,Direct,,,View report (https://accesshub.pdc.wa.gov/node/95716),Health Care,Health Care Licensure Issues,Health Care Committees
115020,95719-19324,95719,FE,17825,CAREY L MORRIS,Employer,19324,WA ST COALITION  AGAINST DOMESTIC VIOLENCE,22-Aug,9/15/2022,17227.0,WA ST COALITION  AGAINST DOMESTIC VIOLENCE,3675.0,0.0,3675.0,0.0,0.0,0.0,0.0,0.0,0.0,0.0,3675.0,19324.0,Direct,,,View report (https://accesshub.pdc.wa.gov/node/95719),,,
115021,95751-39387,95751,FE,39386,Teresa Taylor,Employer,39387,WA ST COUNCIL OF POLICE & SHERIFFS,22-Aug,9/15/2022,17236.0,WA ST COUNCIL OF POLICE & SHERIFFS,2860.0,0.0,2860.0,0.0,0.0,0.0,0.0,0.0,0.0,0.0,2860.0,39387.0,Direct,,,View report (https://accesshub.pdc.wa.gov/node/95751),Law and justice,Law and Justice,Senate Law & Justice Committee; House Public Safety Committee
115022,95783-19073,95783,FE,17702,BRACKEN R KILLPACK,Employer,19073,WA ST DENTAL ASSN,22-Aug,9/15/2022,17238.0,WA ST DENTAL ASSN,3500.0,0.0,3500.0,0.0,0.0,0.0,0.0,0.0,0.0,0.0,3500.0,19073.0,Direct,,,View report (https://accesshub.pdc.wa.gov/node/95783),Health Care,Dental-related issues,"Heath Committees, Fiscal Committees, Department of Health, and Governor’s Office"
115023,95782-35942,95782,FE,35584,Emily Lovell,Employer,35942,WA ST DENTAL ASSN,22-Aug,9/15/2022,17238.0,WA ST DENTAL ASSN,3500.0,0.0,3500.0,0.0,0.0,0.0,0.0,0.0,0.0,0.0,3500.0,35942.0,Direct,,,View report (https://accesshub.pdc.wa.gov/node/95782),Health Care,Dental-related issues,Department of Health
115024,95705-74721,95705,FE,74720,Lauren Johnson,Employer,74721,WA ST DENTAL ASSN,22-Aug,9/15/2022,17238.0,WA ST DENTAL ASSN,1041.0,0.0,1041.0,0.0,0.0,0.0,0.0,0.0,0.0,0.0,1041.0,74721.0,Direct,,,View report (https://accesshub.pdc.wa.gov/node/95705),Health Care,Dental-related issues,"Health Committees, Fiscal Committees, Department of Health, and Governor’s Office"
115026,95802-81734,95802,FE,81702,JH Consulting,Employer,81734,"WASTE MANAGEMENT OF WASHINGTON, INC. (BOSWELL CONSULTING*)",22-Aug,9/15/2022,17260.0,"WASTE MANAGEMENT OF WASHINGTON, INC.",200.0,0.0,200.0,0.0,0.0,0.0,0.0,0.0,0.0,0.0,200.0,81734.0,Subcontract,17398.0,BOSWELL CONSULTING*,View report (https://accesshub.pdc.wa.gov/node/95802),,,
115027,95608-60411,95608,FE,59611,Alex Wehinger,Employer,60411,WA ST MEDICAL ASSN,22-Aug,9/15/2022,17261.0,WA ST MEDICAL ASSN,1500.0,0.0,1500.0,0.0,0.0,0.0,0.0,0.0,0.0,0.0,1500.0,60411.0,Direct,,,View report (https://accesshub.pdc.wa.gov/node/95608),Health Care,Various,Various
115028,95768-18975,95768,FE,17646,DEDI LITTLE,Employer,18975,WA ST PHARMACY ASSN,22-Jul,9/15/2022,17271.0,WA ST PHARMACY ASSN,7178.52,0.0,7178.52,0.0,0.0,0.0,0.0,0.0,0.0,0.0,7178.52,18975.0,Direct,,,View report (https://accesshub.pdc.wa.gov/node/95768),Health Care,health care issues related and impacting the pharmacy profession,"HCA, OIC, DOH, House and Senate Health Care committees"
115029,95770-18975,95770,FE,17646,DEDI LITTLE,Employer,18975,WA ST PHARMACY ASSN,22-Aug,9/15/2022,17271.0,WA ST PHARMACY ASSN,7178.52,0.0,7178.52,0.0,0.0,0.0,0.0,0.0,0.0,0.0,7178.52,18975.0,Direct,,,View report (https://accesshub.pdc.wa.gov/node/95770),Health Care,health care issues related and impacting the pharmacy profession,"HCA, OIC, DOH, House and Senate Health Care committees"
115030,91262-68847,91262,FE,17581,GORDON THOMAS HONEYWELL GOV AFFAIRS*,Employer,68847,WA ST POTATO COMMISSION,22-Mar,9/15/2022,17273.0,WA ST POTATO COMMISSION,4150.0,0.0,4150.0,0.0,0.0,0.0,0.0,0.0,0.0,0.0,4150.0,68847.0,Direct,,,View report (https://accesshub.pdc.wa.gov/node/91262),,,
115031,92362-68847,92362,FE,17581,GORDON THOMAS HONEYWELL GOV AFFAIRS*,Employer,68847,WA ST POTATO COMMISSION,22-Apr,9/15/2022,17273.0,WA ST POTATO COMMISSION,4150.0,0.0,4150.0,0.0,0.0,0.0,0.0,0.0,0.0,0.0,4150.0,68847.0,Direct,,,View report (https://accesshub.pdc.wa.gov/node/92362),,,
115032,95499-73884,95499,FE,73883,Kelli Carson,Employer,73884,WA ST ASSN FOR JUSTICE,22-Aug,9/15/2022,17289.0,WA ST ASSN FOR JUSTICE,10250.0,0.0,10250.0,532.65,0.0,0.0,0.0,0.0,0.0,532.65,10782.65,73884.0,Direct,,,View report (https://accesshub.pdc.wa.gov/node/95499),Labor,Labor,"Labor, Commerce and Tribal Affairs Senate Committee"
115033,95791-18484,95791,FE,17460,COMMUNICO*,Employer,18484,Washington State Veterinary Medical Association,22-Aug,9/15/2022,17291.0,Washington State Veterinary Medical Association,5500.0,0.0,5500.0,0.0,0.0,0.0,0.0,0.0,0.0,0.0,5500.0,18484.0,Direct,,,View report (https://accesshub.pdc.wa.gov/node/95791),Health Care,"Health Care, Taxes and Animal Cruelty","S - Agriculture& Natural Resources, H - Agriculture, Water, Trade & Econ. Dev,S - Law & Justice, H - Judiciary, S - Health Care and H - Health Care & Wellness"
115034,95791-18485,95791,FE,17460,COMMUNICO*,Employer,18485,Western States Petroleum Assn.,22-Aug,9/15/2022,17302.0,Western States Petroleum Assn.,33333.33,0.0,33333.33,0.0,0.0,0.0,0.0,0.0,0.0,0.0,33333.33,18485.0,Direct,,,View report (https://accesshub.pdc.wa.gov/node/95791),Energy and utilities,"Petroleumn Issues, Transportation, Marine Safety and Taxes","H - Environment and S - Energy, Environment & Telecommunications"
115035,95791-18486,95791,FE,17460,COMMUNICO*,Employer,18486,The Williams Companies,22-Aug,9/15/2022,17311.0,The Williams Companies,2500.0,0.0,2500.0,0.0,0.0,7500.0,0.0,0.0,0.0,7500.0,10000.0,18486.0,Direct,,,View report (https://accesshub.pdc.wa.gov/node/95791),Environmental Affairs - natural resources - parks,Pipeline,"H - Environment and S - Energy, Environment & Telecommunications"
115036,91262-18866,91262,FE,17581,GORDON THOMAS HONEYWELL GOV AFFAIRS*,Employer,18866,YAKIMA CO,22-Mar,9/15/2022,17320.0,YAKIMA CO,4635.0,0.0,4635.0,0.0,0.0,0.0,0.0,0.0,0.0,0.0,4635.0,18866.0,Direct,,,View report (https://accesshub.pdc.wa.gov/node/91262),Local government,"Economic Development, Yakima Basin Intergrated Plan Funding, Other Local Government Issues",Legislative
115037,91262-69157,91262,FE,17581,GORDON THOMAS HONEYWELL GOV AFFAIRS*,Employer,69157,WA POTATO & ONION ASSN,22-Mar,9/15/2022,23611.0,WA POTATO & ONION ASSN,850.0,0.0,850.0,0.0,0.0,0.0,0.0,0.0,0.0,0.0,850.0,69157.0,Direct,,,View report (https://accesshub.pdc.wa.gov/node/91262),Agriculture,budget,Legislative
115038,92362-69157,92362,FE,17581,GORDON THOMAS HONEYWELL GOV AFFAIRS*,Employer,69157,WA POTATO & ONION ASSN,22-Apr,9/15/2022,23611.0,WA POTATO & ONION ASSN,850.0,0.0,850.0,0.0,0.0,0.0,0.0,0.0,0.0,0.0,850.0,69157.0,Direct,,,View report (https://accesshub.pdc.wa.gov/node/92362),Agriculture,budget,Legislative
115039,91262-25018,91262,FE,17581,GORDON THOMAS HONEYWELL GOV AFFAIRS*,Employer,25018,SSMCP,22-Mar,9/15/2022,24910.0,SSMCP,3250.0,0.0,3250.0,0.0,0.0,0.0,0.0,0.0,0.0,0.0,3250.0,25018.0,Direct,,,View report (https://accesshub.pdc.wa.gov/node/91262),Transportation,transportation,Legislative
115040,92362-25018,92362,FE,17581,GORDON THOMAS HONEYWELL GOV AFFAIRS*,Employer,25018,SSMCP,22-Apr,9/15/2022,24910.0,SSMCP,3250.0,0.0,3250.0,0.0,0.0,0.0,0.0,0.0,0.0,0.0,3250.0,25018.0,Direct,,,View report (https://accesshub.pdc.wa.gov/node/92362),Transportation,"Land Use Issues, Childcare Affordability, Transportation Issues, Military and Veterans Issues, Occupational Licensing",Legislative
115041,95737-30404,95737,FE,17358,"Public Affairs Consulting, LLC",Employer,30404,"Delivery Express, Inc.",22-Aug,9/15/2022,26676.0,"Delivery Express, Inc.",6500.0,-600.0,5900.0,279.18,0.0,0.0,0.0,0.0,0.0,279.18,6179.18,30404.0,Direct,,,View report (https://accesshub.pdc.wa.gov/node/95737),Business and consumer affairs,SB 5103,"Labor, Commerce & Transportation"
115042,91262-28692,91262,FE,17581,GORDON THOMAS HONEYWELL GOV AFFAIRS*,Employer,28692,Benton County Commissioners,22-Mar,9/15/2022,28679.0,Benton County Commissioners,4166.66,0.0,4166.66,0.0,0.0,0.0,0.0,0.0,0.0,0.0,4166.66,28692.0,Direct,,,View report (https://accesshub.pdc.wa.gov/node/91262),Local government,"Economic Development, Transportation Funding, Yakima Basin Integrated Plan funding, Yakima Basin Integrated Plan funding, Other Local Government Issues",Legislative
115043,92362-28692,92362,FE,17581,GORDON THOMAS HONEYWELL GOV AFFAIRS*,Employer,28692,Benton County Commissioners,22-Apr,9/15/2022,28679.0,Benton County Commissioners,4166.66,0.0,4166.66,0.0,0.0,0.0,0.0,0.0,0.0,0.0,4166.66,28692.0,Direct,,,View report (https://accesshub.pdc.wa.gov/node/92362),Local government,"Economic Development, Transportation Funding, Yakima Basin Integrated Plan funding, Yakima Basin Integrated Plan funding, Other Local Government Issues",Legislative
115044,95716-31672,95716,FE,17434,CASCADE GOVT AFFAIRS LLC*,Employer,31672,Federal Way Public Schools,22-Aug,9/15/2022,31422.0,Federal Way Public Schools,4500.0,0.0,4500.0,0.0,0.0,0.0,0.0,0.0,0.0,0.0,4500.0,31672.0,Direct,,,View report (https://accesshub.pdc.wa.gov/node/95716),Education,Education Policy and Funding,"Governor's Office, OSPI, Education and Fiscal Committees"
115045,95802-81712,95802,FE,81702,JH Consulting,Employer,81712,Internet Association (CHRISTOPHERSEN INC*),22-Aug,9/15/2022,31991.0,Internet Association,250.0,0.0,250.0,0.0,0.0,0.0,0.0,0.0,0.0,0.0,250.0,81712.0,Subcontract,17348.0,CHRISTOPHERSEN INC*,View report (https://accesshub.pdc.wa.gov/node/95802),,,
115046,91262-34690,91262,FE,17581,GORDON THOMAS HONEYWELL GOV AFFAIRS*,Employer,34690,City of Blaine,22-Mar,9/15/2022,34689.0,City of Blaine,2634.99,0.0,2634.99,0.0,0.0,0.0,0.0,0.0,0.0,0.0,2634.99,34690.0,Direct,,,View report (https://accesshub.pdc.wa.gov/node/91262),Local government,,Legislative
115047,92362-34690,92362,FE,17581,GORDON THOMAS HONEYWELL GOV AFFAIRS*,Employer,34690,City of Blaine,22-Apr,9/15/2022,34689.0,City of Blaine,2634.99,0.0,2634.99,0.0,0.0,0.0,0.0,0.0,0.0,0.0,2634.99,34690.0,Direct,,,View report (https://accesshub.pdc.wa.gov/node/92362),Local government,,Legislative
115048,95769-36062,95769,FE,17433,CARNEY BADLEY SPELLMAN*,Employer,36062,ADP Total Source Inc,22-Aug,9/15/2022,36061.0,ADP Total Source Inc,5000.0,0.0,5000.0,0.0,0.0,0.0,0.0,0.0,0.0,0.0,5000.0,36062.0,Direct,,,View report (https://accesshub.pdc.wa.gov/node/95769),Fiscal,Insurance Taxation,"Sen. Financial Institutions Ins, House Business Financial Services, Sen. Ways & Means, House Financie, House Appropriations"
115049,95798-61670,95798,FE,17693,Water Street Public Affairs LLC,Employer,61670,"Prime Therapeutics, LLC",22-Aug,9/15/2022,36475.0,"Prime Therapeutics, LLC",4000.0,0.0,4000.0,0.0,0.0,0.0,0.0,0.0,0.0,0.0,4000.0,61670.0,Direct,,,View report (https://accesshub.pdc.wa.gov/node/95798),Health Care,Health care benefit management; Prescription drug pricing and transperancy,Health Care & Wellness (H); Health Care & Long Term Care (S); OIC; HCA
115050,95802-81730,95802,FE,81702,JH Consulting,Employer,81730,Port of Hood River (BOSWELL CONSULTING*),22-Aug,9/15/2022,36737.0,Port of Hood River,200.0,0.0,200.0,0.0,0.0,0.0,0.0,0.0,0.0,0.0,200.0,81730.0,Subcontract,17398.0,BOSWELL CONSULTING*,View report (https://accesshub.pdc.wa.gov/node/95802),,,
115051,91262-37814,91262,FE,17581,GORDON THOMAS HONEYWELL GOV AFFAIRS*,Employer,37814,City Of Othello,22-Mar,9/15/2022,37808.0,City Of Othello,3993.0,0.0,3993.0,0.0,0.0,0.0,0.0,0.0,0.0,0.0,3993.0,37814.0,Direct,,,View report (https://accesshub.pdc.wa.gov/node/91262),Local government,,Legislative
115052,92362-37814,92362,FE,17581,GORDON THOMAS HONEYWELL GOV AFFAIRS*,Employer,37814,City Of Othello,22-Apr,9/15/2022,37808.0,City Of Othello,3993.0,0.0,3993.0,0.0,0.0,0.0,0.0,0.0,0.0,0.0,3993.0,37814.0,Direct,,,View report (https://accesshub.pdc.wa.gov/node/92362),Local government,,Legislative
115053,95805-72977,95805,FE,18108,JENNIFER ZIEGLER,Employer,72977,Crown Castle and Affiliates,22-Aug,9/15/2022,38969.0,Crown Castle and Affiliates,6000.0,0.0,6000.0,0.0,0.0,0.0,0.0,0.0,0.0,0.0,6000.0,72977.0,Direct,,,View report (https://accesshub.pdc.wa.gov/node/95805),Local government,Microtrenching,"House Community and Economic Development and Senate Environment, Energy and Technology Committees"
115054,95737-41062,95737,FE,17358,"Public Affairs Consulting, LLC",Employer,41062,Plumbing-Heating-Cooling Contractors of Washington,22-Aug,9/15/2022,41058.0,Plumbing-Heating-Cooling Contractors of Washington,2916.67,-180.0,2736.67,0.0,0.0,0.0,0.0,0.0,0.0,0.0,2736.67,41062.0,Direct,,,View report (https://accesshub.pdc.wa.gov/node/95737),Labor,Plumbing,Lawmakers and Agencies of Government
115055,95802-81711,95802,FE,81702,JH Consulting,Employer,81711,"Assurant, Inc. (CHRISTOPHERSEN INC*)",22-Aug,9/15/2022,44206.0,"Assurant, Inc.",229.16,0.0,229.16,0.0,0.0,0.0,0.0,0.0,0.0,0.0,229.16,81711.0,Subcontract,17348.0,CHRISTOPHERSEN INC*,View report (https://accesshub.pdc.wa.gov/node/95802),,,
115056,95716-45539,95716,FE,17434,CASCADE GOVT AFFAIRS LLC*,Employer,45539,"Lamb Weston, Inc",22-Aug,9/15/2022,45236.0,"Lamb Weston, Inc",2500.0,0.0,2500.0,0.0,0.0,0.0,0.0,0.0,0.0,0.0,2500.0,45539.0,Direct,,,View report (https://accesshub.pdc.wa.gov/node/95716),Agriculture,Agriculture and Environmental Issues,"Agriculture, Energy and Environmental Committees"
115057,91262-46229,91262,FE,17581,GORDON THOMAS HONEYWELL GOV AFFAIRS*,Employer,46229,"Dun & Bradstreet, Inc.",22-Mar,9/15/2022,46228.0,"Dun & Bradstreet, Inc.",2500.0,-2500.0,0.0,0.0,0.0,0.0,0.0,0.0,0.0,0.0,0.0,46229.0,Direct,,,View report (https://accesshub.pdc.wa.gov/node/91262),,,
115058,92362-46229,92362,FE,17581,GORDON THOMAS HONEYWELL GOV AFFAIRS*,Employer,46229,"Dun & Bradstreet, Inc.",22-Apr,9/15/2022,46228.0,"Dun & Bradstreet, Inc.",2500.0,-2500.0,0.0,0.0,0.0,0.0,0.0,0.0,0.0,0.0,0.0,46229.0,Direct,,,View report (https://accesshub.pdc.wa.gov/node/92362),,,
115059,91262-46254,91262,FE,17581,GORDON THOMAS HONEYWELL GOV AFFAIRS*,Employer,46254,City of Bothell,22-Mar,9/15/2022,46253.0,City of Bothell,4775.0,0.0,4775.0,0.0,0.0,0.0,0.0,0.0,0.0,0.0,4775.0,46254.0,Direct,,,View report (https://accesshub.pdc.wa.gov/node/91262),Local government,"Transportation; Econ Dev, Local Law enforcment, Streamlined sales tax mitigation, other local gov issues",Legislative
115060,92362-46254,92362,FE,17581,GORDON THOMAS HONEYWELL GOV AFFAIRS*,Employer,46254,City of Bothell,22-Apr,9/15/2022,46253.0,City of Bothell,4775.0,0.0,4775.0,0.0,0.0,0.0,0.0,0.0,0.0,0.0,4775.0,46254.0,Direct,,,View report (https://accesshub.pdc.wa.gov/node/92362),Local government,"Transportation, Economic Development, Environmental Cleanup Issues, Other Local Government Issues, Capital Budget Request",Legislative
115061,91262-48523,91262,FE,17581,GORDON THOMAS HONEYWELL GOV AFFAIRS*,Employer,48523,Port of Allyn,22-Mar,9/15/2022,48241.0,Port of Allyn,2378.0,0.0,2378.0,0.0,0.0,0.0,0.0,0.0,0.0,0.0,2378.0,48523.0,Direct,,,View report (https://accesshub.pdc.wa.gov/node/91262),State government,,Legislative
115062,92362-48523,92362,FE,17581,GORDON THOMAS HONEYWELL GOV AFFAIRS*,Employer,48523,Port of Allyn,22-Apr,9/15/2022,48241.0,Port of Allyn,2378.0,0.0,2378.0,0.0,0.0,0.0,0.0,0.0,0.0,0.0,2378.0,48523.0,Direct,,,View report (https://accesshub.pdc.wa.gov/node/92362),State government,,Legislative
115063,95805-53836,95805,FE,18108,JENNIFER ZIEGLER,Employer,53836,"Toyota Motor North America, Inc.",22-Aug,9/15/2022,49816.0,"Toyota Motor North America, Inc.",5000.0,0.0,5000.0,0.0,0.0,0.0,0.0,0.0,0.0,0.0,5000.0,53836.0,Direct,,,View report (https://accesshub.pdc.wa.gov/node/95805),Transportation,Transportation Funding,Transportation Committee
115064,91262-50448,91262,FE,17581,GORDON THOMAS HONEYWELL GOV AFFAIRS*,Employer,50448,City of Battle Ground,22-Mar,9/15/2022,50162.0,City of Battle Ground,3090.0,0.0,3090.0,0.0,0.0,0.0,0.0,0.0,0.0,0.0,3090.0,50448.0,Direct,,,View report (https://accesshub.pdc.wa.gov/node/91262),Transportation,"Capital Budget Funding, Transportation Funding, Other Local Government Issues",Legislative
115065,92362-50448,92362,FE,17581,GORDON THOMAS HONEYWELL GOV AFFAIRS*,Employer,50448,City of Battle Ground,22-Apr,9/15/2022,50162.0,City of Battle Ground,3090.0,0.0,3090.0,155.61,0.0,0.0,0.0,0.0,0.0,155.61,3245.61,50448.0,Direct,,,View report (https://accesshub.pdc.wa.gov/node/92362),Transportation,"Capital Budget Funding, Transportation Funding, Other Local Government Issues",Legislative
115066,91262-50392,91262,FE,17581,GORDON THOMAS HONEYWELL GOV AFFAIRS*,Employer,50392,Port of Longview,22-Mar,9/15/2022,50347.0,Port of Longview,4000.0,0.0,4000.0,0.0,0.0,0.0,0.0,0.0,0.0,0.0,4000.0,50392.0,Direct,,,View report (https://accesshub.pdc.wa.gov/node/91262),Transportation,"trade, environment/land use, energy, local government, labor",Legislative
115067,92362-50392,92362,FE,17581,GORDON THOMAS HONEYWELL GOV AFFAIRS*,Employer,50392,Port of Longview,22-Apr,9/15/2022,50347.0,Port of Longview,4000.0,0.0,4000.0,0.0,0.0,0.0,0.0,0.0,0.0,0.0,4000.0,50392.0,Direct,,,View report (https://accesshub.pdc.wa.gov/node/92362),Transportation,"trade, environment/land use, energy, local government, labor",Legislative
115068,91262-50968,91262,FE,17581,GORDON THOMAS HONEYWELL GOV AFFAIRS*,Employer,50968,Skagit County,22-Mar,9/15/2022,50955.0,Skagit County,3785.0,0.0,3785.0,0.0,0.0,0.0,0.0,0.0,0.0,0.0,3785.0,50968.0,Direct,,,View report (https://accesshub.pdc.wa.gov/node/91262),Agriculture,"Capital Budget Funding, Affordable Housing, Water Resources, Other Local Government Issues",Legislative
115069,92362-50968,92362,FE,17581,GORDON THOMAS HONEYWELL GOV AFFAIRS*,Employer,50968,Skagit County,22-Apr,9/15/2022,50955.0,Skagit County,3785.0,0.0,3785.0,0.0,0.0,0.0,0.0,0.0,0.0,0.0,3785.0,50968.0,Direct,,,View report (https://accesshub.pdc.wa.gov/node/92362),Agriculture,"Capital Budget Funding, Affordable Housing, Water Resources, Other Local Government Issues",Legislative
115070,95798-59225,95798,FE,17693,Water Street Public Affairs LLC,Employer,59225,WaBA dba Clean and Prosperous WA,22-Aug,9/15/2022,50980.0,WaBA dba Clean and Prosperous WA,10000.0,0.0,10000.0,0.0,0.0,0.0,0.0,0.0,0.0,0.0,10000.0,59225.0,Direct,,,View report (https://accesshub.pdc.wa.gov/node/95798),Energy and utilities,Cap & Invest; Transportation Funding; ZEV; GHG Limits; GHG Authority,"Environment, Energy & Technology (S); Environment & Energy (H); Transportation (H & S), Department of Ecology"
115071,95798-63454,95798,FE,17693,Water Street Public Affairs LLC,Employer,63454,Yakima Basin Joint Board,22-Aug,9/15/2022,51434.0,Yakima Basin Joint Board,4000.0,0.0,4000.0,0.0,0.0,0.0,0.0,0.0,0.0,0.0,4000.0,63454.0,Direct,,,View report (https://accesshub.pdc.wa.gov/node/95798),Environmental Affairs - natural resources - parks,Water Resources,"Capital Budget (H); Ways & Means (S); Ag & Natural Resources (H); Ag Water & Natural Resources (S); Local Gov (S), Department of Ecology"
115072,95787-87361,95787,FE,29163,Washington State Farm Bureau,Employer,87361,wafla,22-Aug,9/15/2022,52074.0,wafla,1666.67,0.0,1666.67,0.0,0.0,0.0,0.0,0.0,0.0,0.0,1666.67,87361.0,Direct,,,View report (https://accesshub.pdc.wa.gov/node/95787),Labor,HB1763,New smoke and heat rules related to agriculture and labor
115073,95716-52243,95716,FE,17434,CASCADE GOVT AFFAIRS LLC*,Employer,52243,University Place School District,22-Aug,9/15/2022,52226.0,University Place School District,1710.0,0.0,1710.0,0.0,0.0,0.0,0.0,0.0,0.0,0.0,1710.0,52243.0,Direct,,,View report (https://accesshub.pdc.wa.gov/node/95716),Education,Education and Funding Issues,"Governor's Office, OSPI, Education and Fiscal Committees"
115074,91262-61475,91262,FE,17581,GORDON THOMAS HONEYWELL GOV AFFAIRS*,Employer,61475,"PRA Group, Inc.",22-Mar,9/15/2022,53359.0,"PRA Group, Inc.",4000.0,0.0,4000.0,0.0,0.0,0.0,0.0,0.0,0.0,0.0,4000.0,61475.0,Direct,,,View report (https://accesshub.pdc.wa.gov/node/91262),,,
115075,92362-61475,92362,FE,17581,GORDON THOMAS HONEYWELL GOV AFFAIRS*,Employer,61475,"PRA Group, Inc.",22-Apr,9/15/2022,53359.0,"PRA Group, Inc.",4000.0,0.0,4000.0,0.0,0.0,0.0,0.0,0.0,0.0,0.0,4000.0,61475.0,Direct,,,View report (https://accesshub.pdc.wa.gov/node/92362),,,
115076,95801-54193,95801,FE,54165,Molecule Team,Employer,54193,Neste US Inc,22-Aug,9/15/2022,54183.0,Neste US Inc,7500.0,0.0,7500.0,0.0,0.0,0.0,0.0,0.0,0.0,0.0,7500.0,54193.0,Direct,,,View report (https://accesshub.pdc.wa.gov/node/95801),Energy and utilities,"HB1110, SB5971, 1091","House and Senate Energy Committee, House and Senate Transportation Committee"
115078,95802-86173,95802,FE,81702,JH Consulting,Employer,86173,Maverick Gaming LLC (Coaxis Public Affairs ),22-Aug,9/15/2022,58487.0,Maverick Gaming LLC,2000.0,0.0,2000.0,0.0,0.0,0.0,0.0,0.0,0.0,0.0,2000.0,86173.0,Subcontract,58479.0,Coaxis Public Affairs,View report (https://accesshub.pdc.wa.gov/node/95802),,,
115079,91262-60233,91262,FE,17581,GORDON THOMAS HONEYWELL GOV AFFAIRS*,Employer,60233,Port of Pasco,22-Mar,9/15/2022,60232.0,Port of Pasco,4000.0,0.0,4000.0,0.0,0.0,0.0,0.0,0.0,0.0,0.0,4000.0,60233.0,Direct,,,View report (https://accesshub.pdc.wa.gov/node/91262),,,
115080,92362-60233,92362,FE,17581,GORDON THOMAS HONEYWELL GOV AFFAIRS*,Employer,60233,Port of Pasco,22-Apr,9/15/2022,60232.0,Port of Pasco,4000.0,0.0,4000.0,0.0,0.0,0.0,0.0,0.0,0.0,0.0,4000.0,60233.0,Direct,,,View report (https://accesshub.pdc.wa.gov/node/92362),,,
115081,95719-62845,95719,FE,17825,CAREY L MORRIS,Employer,62845,Start Early,22-Aug,9/15/2022,61435.0,Start Early,2500.0,0.0,2500.0,0.0,0.0,0.0,0.0,0.0,0.0,0.0,2500.0,62845.0,Direct,,,View report (https://accesshub.pdc.wa.gov/node/95719),Education,"Early Learning - Home Visiting, Childcare","Early Learning, Fiscal, Human Services, Education, Health Care"
115082,91262-61490,91262,FE,17581,GORDON THOMAS HONEYWELL GOV AFFAIRS*,Employer,61490,North Olympic Legislative Alliance,22-Mar,9/15/2022,61477.0,North Olympic Legislative Alliance,3090.0,0.0,3090.0,0.0,0.0,0.0,0.0,0.0,0.0,0.0,3090.0,61490.0,Direct,,,View report (https://accesshub.pdc.wa.gov/node/91262),State government,Economic development and transportation funding,Legislative
115083,92362-61490,92362,FE,17581,GORDON THOMAS HONEYWELL GOV AFFAIRS*,Employer,61490,North Olympic Legislative Alliance,22-Apr,9/15/2022,61477.0,North Olympic Legislative Alliance,3090.0,0.0,3090.0,0.0,0.0,0.0,0.0,0.0,0.0,0.0,3090.0,61490.0,Direct,,,View report (https://accesshub.pdc.wa.gov/node/92362),State government,Economic development and transportation funding,Legislative
115084,95802-81721,95802,FE,81702,JH Consulting,Employer,81721,Justice Action Network (CHRISTOPHERSEN INC*),22-Aug,9/15/2022,62015.0,Justice Action Network,229.16,0.0,229.16,0.0,0.0,0.0,0.0,0.0,0.0,0.0,229.16,81721.0,Subcontract,17348.0,CHRISTOPHERSEN INC*,View report (https://accesshub.pdc.wa.gov/node/95802),,,
115085,95351-87488,95351,FE,87487,Noah Bein,Employer,87488,Justice Action Network,22-Aug,9/15/2022,62015.0,Justice Action Network,406.25,0.0,406.25,2815.88,197.36,0.0,0.0,0.0,0.0,3013.24,3419.49,87488.0,Direct,,,View report (https://accesshub.pdc.wa.gov/node/95351),Law and justice,Legal Financial Obligations Reform; Sentencing Reform; Civil Asset Forfeiture Reform; Victim Services,"Representative Gilday; Senator Dhingra, Representative Simmons; Representative Goodman; Representative Springer; Senator Robinson; Representative Hackney; Representative Fitzgibbon; Representative Jinkins"
115086,95790-62570,95790,FE,17769,Cyan Strategies,Employer,62570,Sustainable Living Innovations,22-Aug,9/15/2022,62512.0,Sustainable Living Innovations,2000.0,0.0,2000.0,0.0,0.0,0.0,0.0,0.0,0.0,0.0,2000.0,62570.0,Direct,,,View report (https://accesshub.pdc.wa.gov/node/95790),Human services,MFTE,Housing committees
115087,91262-62661,91262,FE,17581,GORDON THOMAS HONEYWELL GOV AFFAIRS*,Employer,62661,Island County,22-Mar,9/15/2022,62659.0,Island County,2000.0,0.0,2000.0,0.0,0.0,0.0,0.0,0.0,0.0,0.0,2000.0,62661.0,Direct,,,View report (https://accesshub.pdc.wa.gov/node/91262),Local government,"Transportation Funding, Capital Budget Funding, Other Local Government Issues",Legislative
115088,92362-62661,92362,FE,17581,GORDON THOMAS HONEYWELL GOV AFFAIRS*,Employer,62661,Island County,22-Apr,9/15/2022,62659.0,Island County,2000.0,0.0,2000.0,0.0,0.0,0.0,0.0,0.0,0.0,0.0,2000.0,62661.0,Direct,,,View report (https://accesshub.pdc.wa.gov/node/92362),Local government,"Transportation Funding, Capital Budget Funding, Other Local Government Issues",Legislative
115089,95769-63265,95769,FE,17433,CARNEY BADLEY SPELLMAN*,Employer,63265,International Bottled Water Association,22-Aug,9/15/2022,63254.0,International Bottled Water Association,5000.0,0.0,5000.0,0.0,0.0,0.0,0.0,0.0,0.0,0.0,5000.0,63265.0,Direct,,,View report (https://accesshub.pdc.wa.gov/node/95769),Environmental Affairs - natural resources - parks,"HB 2722, SB 6278",Department of Ecology
115090,95769-63476,95769,FE,17433,CARNEY BADLEY SPELLMAN*,Employer,63476,"Medical Evaluation Specialists, LLC",22-Aug,9/15/2022,63475.0,"Medical Evaluation Specialists, LLC",5454.54,0.0,5454.54,0.0,0.0,0.0,0.0,0.0,0.0,0.0,5454.54,63476.0,Direct,,,View report (https://accesshub.pdc.wa.gov/node/95769),,,
115091,95716-73754,95716,FE,17434,CASCADE GOVT AFFAIRS LLC*,Employer,73754,Washington Skills Centers Association,22-Aug,9/15/2022,64713.0,Washington Skills Centers Association,6000.0,0.0,6000.0,0.0,0.0,0.0,0.0,0.0,0.0,0.0,6000.0,73754.0,Direct,,,View report (https://accesshub.pdc.wa.gov/node/95716),Education,Education Funding Issues,"OSPI, Education and Fiscal Committees"
115092,91262-66507,91262,FE,17581,GORDON THOMAS HONEYWELL GOV AFFAIRS*,Employer,66507,UiPath Inc.,22-Mar,9/15/2022,66506.0,UiPath Inc.,2000.0,-4000.0,-2000.0,0.0,0.0,0.0,0.0,0.0,0.0,0.0,-2000.0,66507.0,Direct,,,View report (https://accesshub.pdc.wa.gov/node/91262),Business and consumer affairs,"fiscal, health care, human services, labor, state and technology, and business and consumer affairs",Legislative
115094,95802-81737,95802,FE,81702,JH Consulting,Employer,81737,Seattle Arena Company (BOSWELL CONSULTING*),22-Aug,9/15/2022,67923.0,Seattle Arena Company,200.0,0.0,200.0,0.0,0.0,0.0,0.0,0.0,0.0,0.0,200.0,81737.0,Subcontract,17398.0,BOSWELL CONSULTING*,View report (https://accesshub.pdc.wa.gov/node/95802),,,
115095,91262-71003,91262,FE,17581,GORDON THOMAS HONEYWELL GOV AFFAIRS*,Employer,71003,Carahsoft Technology Corporation,22-Mar,9/15/2022,70828.0,Carahsoft Technology Corporation,4000.0,0.0,4000.0,0.0,0.0,0.0,0.0,0.0,0.0,0.0,4000.0,71003.0,Direct,,,View report (https://accesshub.pdc.wa.gov/node/91262),Health Care,"state government technology issues, health care topics, electronic health/medical records",Legislative
115096,92362-71003,92362,FE,17581,GORDON THOMAS HONEYWELL GOV AFFAIRS*,Employer,71003,Carahsoft Technology Corporation,22-Apr,9/15/2022,70828.0,Carahsoft Technology Corporation,4000.0,0.0,4000.0,0.0,0.0,0.0,0.0,0.0,0.0,0.0,4000.0,71003.0,Direct,,,View report (https://accesshub.pdc.wa.gov/node/92362),,,
115097,91262-70891,91262,FE,17581,GORDON THOMAS HONEYWELL GOV AFFAIRS*,Employer,70891,"Okta, Inc.",22-Mar,9/15/2022,70889.0,"Okta, Inc.",5000.0,-5000.0,0.0,0.0,0.0,0.0,0.0,0.0,0.0,0.0,0.0,70891.0,Direct,,,View report (https://accesshub.pdc.wa.gov/node/91262),Technology,cloud identity solutions,Legislative
115098,92362-70891,92362,FE,17581,GORDON THOMAS HONEYWELL GOV AFFAIRS*,Employer,70891,"Okta, Inc.",22-Apr,9/15/2022,70889.0,"Okta, Inc.",5000.0,-5000.0,0.0,0.0,0.0,0.0,0.0,0.0,0.0,0.0,0.0,70891.0,Direct,,,View report (https://accesshub.pdc.wa.gov/node/92362),Technology,cloud identity solutions,Legislative
115099,91262-71350,91262,FE,17581,GORDON THOMAS HONEYWELL GOV AFFAIRS*,Employer,71350,Olympic Cascade Aquatics,22-Mar,9/15/2022,71346.0,Olympic Cascade Aquatics,3000.0,0.0,3000.0,0.0,0.0,0.0,0.0,0.0,0.0,0.0,3000.0,71350.0,Direct,,,View report (https://accesshub.pdc.wa.gov/node/91262),,,
115100,95716-75628,95716,FE,17434,CASCADE GOVT AFFAIRS LLC*,Employer,75628,Sumner-Bonney Lake School District,22-Aug,9/15/2022,74028.0,Sumner-Bonney Lake School District,2000.0,0.0,2000.0,0.0,0.0,0.0,0.0,0.0,0.0,0.0,2000.0,75628.0,Direct,,,View report (https://accesshub.pdc.wa.gov/node/95716),Education,Education and Fiscal Issues,"Governor's Office, OSPI, Education and Fiscal Committees"
115101,95784-74075,95784,FE,51634,Kenton Brine,Employer,74075,NW Insurance Council,22-Aug,9/15/2022,74029.0,NW Insurance Council,3600.0,0.0,3600.0,0.0,0.0,0.0,0.0,0.0,0.0,0.0,3600.0,74075.0,Direct,,,View report (https://accesshub.pdc.wa.gov/node/95784),Financial institutions and insurance,Proposed rulemaking regarding underwriting transparency,Office of the Insurance Commissioner
115102,91262-74716,91262,FE,17581,GORDON THOMAS HONEYWELL GOV AFFAIRS*,Employer,74716,Glass Packaging Institute (GPI),22-Mar,9/15/2022,74713.0,Glass Packaging Institute (GPI),3500.0,0.0,3500.0,0.0,0.0,0.0,0.0,0.0,0.0,0.0,3500.0,74716.0,Direct,,,View report (https://accesshub.pdc.wa.gov/node/91262),Environmental Affairs - natural resources - parks,environmental and sustainability,Legislative
115103,91262-74754,91262,FE,17581,GORDON THOMAS HONEYWELL GOV AFFAIRS*,Employer,74754,City of Aberdeen,22-Mar,9/15/2022,74750.0,City of Aberdeen,2500.0,0.0,2500.0,0.0,0.0,0.0,0.0,0.0,0.0,0.0,2500.0,74754.0,Direct,,,View report (https://accesshub.pdc.wa.gov/node/91262),,,
115104,92362-74754,92362,FE,17581,GORDON THOMAS HONEYWELL GOV AFFAIRS*,Employer,74754,City of Aberdeen,22-Apr,9/15/2022,74750.0,City of Aberdeen,2500.0,0.0,2500.0,0.0,0.0,0.0,0.0,0.0,0.0,0.0,2500.0,74754.0,Direct,,,View report (https://accesshub.pdc.wa.gov/node/92362),,,
115105,91262-74780,91262,FE,17581,GORDON THOMAS HONEYWELL GOV AFFAIRS*,Employer,74780,City of Hoquiam,22-Mar,9/15/2022,74778.0,City of Hoquiam,2500.0,0.0,2500.0,0.0,0.0,0.0,0.0,0.0,0.0,0.0,2500.0,74780.0,Direct,,,View report (https://accesshub.pdc.wa.gov/node/91262),Local government,local government issues,Legislative
115106,92362-74780,92362,FE,17581,GORDON THOMAS HONEYWELL GOV AFFAIRS*,Employer,74780,City of Hoquiam,22-Apr,9/15/2022,74778.0,City of Hoquiam,2500.0,0.0,2500.0,0.0,0.0,0.0,0.0,0.0,0.0,0.0,2500.0,74780.0,Direct,,,View report (https://accesshub.pdc.wa.gov/node/92362),Local government,local government issues,Legislative
115107,95716-75990,95716,FE,17434,CASCADE GOVT AFFAIRS LLC*,Employer,75990,Puyallup School District,22-Aug,9/15/2022,75704.0,Puyallup School District,4500.0,0.0,4500.0,0.0,0.0,0.0,0.0,0.0,0.0,0.0,4500.0,75990.0,Direct,,,View report (https://accesshub.pdc.wa.gov/node/95716),Education,Education Issues,"Governor's Office, OSPI, Education and Fiscal Committees"
115108,95716-75989,95716,FE,17434,CASCADE GOVT AFFAIRS LLC*,Employer,75989,Fife Public Schools,22-Aug,9/15/2022,75734.0,Fife Public Schools,1250.0,0.0,1250.0,0.0,0.0,0.0,0.0,0.0,0.0,0.0,1250.0,75989.0,Direct,,,View report (https://accesshub.pdc.wa.gov/node/95716),Education,Education Policy and Funding,"Governor's Office, OSPI, Education and Fiscal Committees"
115109,91262-86177,91262,FE,17581,GORDON THOMAS HONEYWELL GOV AFFAIRS*,Employer,86177,Unisys Corporation,22-Mar,9/15/2022,75767.0,Unisys Corporation,5750.0,0.0,5750.0,0.0,0.0,0.0,0.0,0.0,0.0,0.0,5750.0,86177.0,Direct,,,View report (https://accesshub.pdc.wa.gov/node/91262),,,
115110,92362-86177,92362,FE,17581,GORDON THOMAS HONEYWELL GOV AFFAIRS*,Employer,86177,Unisys Corporation,22-Apr,9/15/2022,75767.0,Unisys Corporation,5750.0,0.0,5750.0,0.0,0.0,0.0,0.0,0.0,0.0,0.0,5750.0,86177.0,Direct,,,View report (https://accesshub.pdc.wa.gov/node/92362),,,
115111,91262-75844,91262,FE,17581,GORDON THOMAS HONEYWELL GOV AFFAIRS*,Employer,75844,Palo Alto Networks,22-Mar,9/15/2022,75840.0,Palo Alto Networks,4500.0,0.0,4500.0,0.0,0.0,0.0,0.0,0.0,0.0,0.0,4500.0,75844.0,Direct,,,View report (https://accesshub.pdc.wa.gov/node/91262),Business and consumer affairs,Local Gvmt,"Business & Consumer Affairs, human services"
115112,92362-75844,92362,FE,17581,GORDON THOMAS HONEYWELL GOV AFFAIRS*,Employer,75844,Palo Alto Networks,22-Apr,9/15/2022,75840.0,Palo Alto Networks,4500.0,0.0,4500.0,0.0,0.0,0.0,0.0,0.0,0.0,0.0,4500.0,75844.0,Direct,,,View report (https://accesshub.pdc.wa.gov/node/92362),Business and consumer affairs,Local Gvmt,"Business & Consumer Affairs, human services"
115113,95769-77161,95769,FE,17433,CARNEY BADLEY SPELLMAN*,Employer,77161,Experian Information Solutions,22-Aug,9/15/2022,77142.0,Experian Information Solutions,5000.0,0.0,5000.0,0.0,0.0,0.0,0.0,0.0,0.0,0.0,5000.0,77161.0,Direct,,,View report (https://accesshub.pdc.wa.gov/node/95769),,,
115114,95654-77318,95654,FE,77317,John Dillon,Employer,77318,The Home Depot,22-Aug,9/15/2022,77275.0,The Home Depot,268.01,0.0,268.01,3.81,5.26,0.0,0.0,0.0,0.0,9.07,277.08,77318.0,Direct,,,View report (https://accesshub.pdc.wa.gov/node/95654),Business and consumer affairs,Organized Retail Crime,Legislature and Attorney General
115115,95788-77983,95788,FE,77932,Heather Erb,Employer,77983,AMERICAN INDIAN HEALTH COMMISSION FOR WASHINGTON STATE,22-Aug,9/15/2022,77975.0,AMERICAN INDIAN HEALTH COMMISSION FOR WASHINGTON STATE,1155.0,0.0,1155.0,0.0,0.0,0.0,0.0,0.0,0.0,0.0,1155.0,77983.0,Direct,,,View report (https://accesshub.pdc.wa.gov/node/95788),State government,RCW 71.05 and RCW 71.34 Updates,Health Care Authority
115116,91262-78045,91262,FE,17581,GORDON THOMAS HONEYWELL GOV AFFAIRS*,Employer,78045,Evergreen Forest Stewards,22-Mar,9/15/2022,78037.0,Evergreen Forest Stewards,5000.0,0.0,5000.0,0.0,0.0,0.0,0.0,0.0,0.0,0.0,5000.0,78045.0,Direct,,,View report (https://accesshub.pdc.wa.gov/node/91262),Environmental Affairs - natural resources - parks,operating budget,Legislative
115117,92362-78045,92362,FE,17581,GORDON THOMAS HONEYWELL GOV AFFAIRS*,Employer,78045,Evergreen Forest Stewards,22-Apr,9/15/2022,78037.0,Evergreen Forest Stewards,5000.0,0.0,5000.0,0.0,0.0,0.0,0.0,0.0,0.0,0.0,5000.0,78045.0,Direct,,,View report (https://accesshub.pdc.wa.gov/node/92362),Environmental Affairs - natural resources - parks,operating budget,Legislative
115118,95716-78456,95716,FE,17434,CASCADE GOVT AFFAIRS LLC*,Employer,78456,"Supernal, LLC",22-Aug,9/15/2022,78452.0,"Supernal, LLC",7800.0,0.0,7800.0,0.0,0.0,0.0,0.0,0.0,0.0,0.0,7800.0,78456.0,Direct,,,View report (https://accesshub.pdc.wa.gov/node/95716),Transportation,Urban Air Mobility Issues,"Dept. of Transportation, Transportation Committees"
115119,95716-80196,95716,FE,17434,CASCADE GOVT AFFAIRS LLC*,Employer,80196,White River School District,22-Aug,9/15/2022,80169.0,White River School District,1250.0,0.0,1250.0,0.0,0.0,0.0,0.0,0.0,0.0,0.0,1250.0,80196.0,Direct,,,View report (https://accesshub.pdc.wa.gov/node/95716),Education,Education Issues,"Governor's Office, OSPI, Education and Fiscal Committees"
115120,95716-81622,95716,FE,17434,CASCADE GOVT AFFAIRS LLC*,Employer,81622,Clover Park School District,22-Aug,9/15/2022,81621.0,Clover Park School District,4500.0,0.0,4500.0,0.0,0.0,0.0,0.0,0.0,0.0,0.0,4500.0,81622.0,Direct,,,View report (https://accesshub.pdc.wa.gov/node/95716),,,
115121,91262-81689,91262,FE,17581,GORDON THOMAS HONEYWELL GOV AFFAIRS*,Employer,81689,"Omega Flex, Inc.",22-Mar,9/15/2022,81629.0,"Omega Flex, Inc.",5000.0,0.0,5000.0,0.0,0.0,0.0,0.0,0.0,0.0,0.0,5000.0,81689.0,Direct,,,View report (https://accesshub.pdc.wa.gov/node/91262),Environmental Affairs - natural resources - parks,carbon policies,Legislative
115122,92362-81689,92362,FE,17581,GORDON THOMAS HONEYWELL GOV AFFAIRS*,Employer,81689,"Omega Flex, Inc.",22-Apr,9/15/2022,81629.0,"Omega Flex, Inc.",5000.0,0.0,5000.0,0.0,0.0,0.0,0.0,0.0,0.0,0.0,5000.0,81689.0,Direct,,,View report (https://accesshub.pdc.wa.gov/node/92362),Environmental Affairs - natural resources - parks,carbon policies,Legislative
115123,95769-82490,95769,FE,17433,CARNEY BADLEY SPELLMAN*,Employer,82490,Aero-Flite Inc.,22-Aug,9/15/2022,82477.0,Aero-Flite Inc.,5000.0,0.0,5000.0,0.0,0.0,0.0,0.0,0.0,0.0,0.0,5000.0,82490.0,Direct,,,View report (https://accesshub.pdc.wa.gov/node/95769),State government,"Construction, Consumer Affairs, Taxation, Liability, Health Care, Data Issues, Insurance, Financial Services, Transportation, Environmental Regulation, Economic Development","Senate Commerce, Labor & Sports; Senate Energy, Environment & Telecommunications; Senate Financial Institutions & Insurance; Senate Health Care; Senate Human Services"
115124,91262-82830,91262,FE,17581,GORDON THOMAS HONEYWELL GOV AFFAIRS*,Employer,82830,City of Sultan,22-Mar,9/15/2022,82803.0,City of Sultan,3000.0,0.0,3000.0,0.0,0.0,0.0,0.0,0.0,0.0,0.0,3000.0,82830.0,Direct,,,View report (https://accesshub.pdc.wa.gov/node/91262),Local government,"Local Government, Fiscal, Transportation, and other",Legislative
115125,92362-82830,92362,FE,17581,GORDON THOMAS HONEYWELL GOV AFFAIRS*,Employer,82830,City of Sultan,22-Apr,9/15/2022,82803.0,City of Sultan,3000.0,0.0,3000.0,0.0,0.0,0.0,0.0,0.0,0.0,0.0,3000.0,82830.0,Direct,,,View report (https://accesshub.pdc.wa.gov/node/92362),Local government,"Local Government, Fiscal, Transportation, and other",Legislative
115126,91262-83345,91262,FE,17581,GORDON THOMAS HONEYWELL GOV AFFAIRS*,Employer,83345,City of Newcastle,22-Mar,9/15/2022,83342.0,City of Newcastle,2000.0,0.0,2000.0,0.0,0.0,0.0,0.0,0.0,0.0,0.0,2000.0,83345.0,Direct,,,View report (https://accesshub.pdc.wa.gov/node/91262),Local government,"Local government, fiscal, and transportation",Legislative
115127,92362-83345,92362,FE,17581,GORDON THOMAS HONEYWELL GOV AFFAIRS*,Employer,83345,City of Newcastle,22-Apr,9/15/2022,83342.0,City of Newcastle,2000.0,0.0,2000.0,0.0,0.0,0.0,0.0,0.0,0.0,0.0,2000.0,83345.0,Direct,,,View report (https://accesshub.pdc.wa.gov/node/92362),Local government,"Local government, fiscal, and transportation",Legislative
115128,91262-85864,91262,FE,17581,GORDON THOMAS HONEYWELL GOV AFFAIRS*,Employer,85864,"McCain Foods USA, Inc",22-Mar,9/15/2022,85863.0,"McCain Foods USA, Inc",5000.0,0.0,5000.0,0.0,0.0,0.0,0.0,0.0,0.0,0.0,5000.0,85864.0,Direct,,,View report (https://accesshub.pdc.wa.gov/node/91262),Business and consumer affairs,"monitoring legislative issues for them, and looking for opportunities to elevate the profile of the company in Washington State.",Legislative
115129,92362-85864,92362,FE,17581,GORDON THOMAS HONEYWELL GOV AFFAIRS*,Employer,85864,"McCain Foods USA, Inc",22-Apr,9/15/2022,85863.0,"McCain Foods USA, Inc",5000.0,0.0,5000.0,0.0,0.0,0.0,0.0,0.0,0.0,0.0,5000.0,85864.0,Direct,,,View report (https://accesshub.pdc.wa.gov/node/92362),Business and consumer affairs,"monitoring legislative issues for them, and looking for opportunities to elevate the profile of the company in Washington State.",Legislative
115130,95802-88143,95802,FE,81702,JH Consulting,Employer,88143,Northwest Center (CHRISTOPHERSEN INC*),22-Aug,9/15/2022,86117.0,Northwest Center,250.0,0.0,250.0,0.0,0.0,0.0,0.0,0.0,0.0,0.0,250.0,88143.0,Subcontract,17348.0,CHRISTOPHERSEN INC*,View report (https://accesshub.pdc.wa.gov/node/95802),,,
115131,91262-86496,91262,FE,17581,GORDON THOMAS HONEYWELL GOV AFFAIRS*,Employer,86496,South Shore Partners LLC,22-Mar,9/15/2022,86495.0,South Shore Partners LLC,4000.0,0.0,4000.0,0.0,0.0,0.0,0.0,0.0,0.0,0.0,4000.0,86496.0,Direct,,,View report (https://accesshub.pdc.wa.gov/node/91262),,,
115132,91262-88342,91262,FE,17581,GORDON THOMAS HONEYWELL GOV AFFAIRS*,Employer,88342,WA Horsemen's Benevolent & Protective Assn,22-Mar,9/15/2022,87595.0,WA Horsemen's Benevolent & Protective Assn,6000.0,0.0,6000.0,0.0,0.0,0.0,0.0,0.0,0.0,0.0,6000.0,88342.0,Direct,,,View report (https://accesshub.pdc.wa.gov/node/91262),State government,horse,Legislative
115133,91262-88715,91262,FE,17581,GORDON THOMAS HONEYWELL GOV AFFAIRS*,Employer,88715,"Straight Smile, LLC",22-Mar,9/15/2022,88714.0,"Straight Smile, LLC",7000.0,0.0,7000.0,0.0,0.0,0.0,0.0,0.0,0.0,0.0,7000.0,88715.0,Direct,,,View report (https://accesshub.pdc.wa.gov/node/91262),,,
115134,92362-91560,92362,FE,17581,GORDON THOMAS HONEYWELL GOV AFFAIRS*,Employer,91560,HDG LP,22-Apr,9/15/2022,91558.0,HDG LP,3000.0,0.0,3000.0,0.0,0.0,0.0,0.0,0.0,0.0,0.0,3000.0,91560.0,Direct,,,View report (https://accesshub.pdc.wa.gov/node/92362),,,
115135,95189-18983,95189,FE,17654,Trent M House,Employer,18983,AEROSPACE FUTURES ALLIANCE OF WASHINGTON LTD,22-Aug,9/16/2022,16071.0,AEROSPACE FUTURES ALLIANCE OF WASHINGTON LTD,4000.0,0.0,4000.0,0.0,0.0,0.0,0.0,0.0,0.0,0.0,4000.0,18983.0,Direct,,,View report (https://accesshub.pdc.wa.gov/node/95189),Labor,"Workers Compensation, Taxes",Commerce and Labor Committees
115136,95819-79980,95819,FE,17974,MELANIE J SMITH,Employer,79980,ALZHEIMERS ASSN WA ST CHAPTER,22-Aug,9/16/2022,16086.0,ALZHEIMERS ASSN WA ST CHAPTER,1300.0,0.0,1300.0,0.0,0.0,0.0,0.0,0.0,0.0,0.0,1300.0,79980.0,Direct,,,View report (https://accesshub.pdc.wa.gov/node/95819),Health Care,alzheimers,healthcare
115140,95819-19639,95819,FE,17974,MELANIE J SMITH,Employer,19639,COMMITTEE FOR CHILDREN,22-Aug,9/16/2022,16347.0,COMMITTEE FOR CHILDREN,2975.0,0.0,2975.0,0.0,0.0,0.0,0.0,0.0,0.0,0.0,2975.0,19639.0,Direct,,,View report (https://accesshub.pdc.wa.gov/node/95819),,,
115142,95189-18984,95189,FE,17654,Trent M House,Employer,18984,GENENTECH,22-Aug,9/16/2022,16467.0,GENENTECH,3000.0,0.0,3000.0,0.0,0.0,0.0,0.0,0.0,0.0,0.0,3000.0,18984.0,Direct,,,View report (https://accesshub.pdc.wa.gov/node/95189),Health Care,Drug Pricing,Health Care Committees
115143,95829-18996,95829,FE,17659,HOLLY CHISA,Employer,18996,INSTITUTE OF SCRAP RECYCLING PACIFIC NW CHAPTER,22-Jul,9/16/2022,16535.0,INSTITUTE OF SCRAP RECYCLING PACIFIC NW CHAPTER,1666.67,0.0,1666.67,0.0,0.0,0.0,0.0,0.0,0.0,0.0,1666.67,18996.0,Direct,,,View report (https://accesshub.pdc.wa.gov/node/95829),Environmental Affairs - natural resources - parks,All issues,Legislature
115144,95830-18996,95830,FE,17659,HOLLY CHISA,Employer,18996,INSTITUTE OF SCRAP RECYCLING PACIFIC NW CHAPTER,22-Aug,9/16/2022,16535.0,INSTITUTE OF SCRAP RECYCLING PACIFIC NW CHAPTER,1666.67,0.0,1666.67,0.0,0.0,0.0,0.0,0.0,0.0,0.0,1666.67,18996.0,Direct,,,View report (https://accesshub.pdc.wa.gov/node/95830),Environmental Affairs - natural resources - parks,All issues,Legislature
115147,95819-39038,95819,FE,17974,MELANIE J SMITH,Employer,39038,NAMI WA,22-Aug,9/16/2022,16654.0,NAMI WA,2500.0,0.0,2500.0,0.0,0.0,0.0,0.0,0.0,0.0,0.0,2500.0,39038.0,Direct,,,View report (https://accesshub.pdc.wa.gov/node/95819),Health Care,mental health,healthcare
115148,95829-18998,95829,FE,17659,HOLLY CHISA,Employer,18998,NW GROCERY ASSN,22-Jul,9/16/2022,16707.0,NW GROCERY ASSN,6000.0,0.0,6000.0,0.0,0.0,0.0,0.0,0.0,0.0,0.0,6000.0,18998.0,Direct,,,View report (https://accesshub.pdc.wa.gov/node/95829),Environmental Affairs - natural resources - parks,All Issues,"Legislature, Dept of Ecology"
115149,95830-18998,95830,FE,17659,HOLLY CHISA,Employer,18998,NW GROCERY ASSN,22-Aug,9/16/2022,16707.0,NW GROCERY ASSN,6000.0,0.0,6000.0,0.0,0.0,0.0,0.0,0.0,0.0,0.0,6000.0,18998.0,Direct,,,View report (https://accesshub.pdc.wa.gov/node/95830),Environmental Affairs - natural resources - parks,All Issues,"Legislature, Dept of Ecology"
115151,95189-18987,95189,FE,17654,Trent M House,Employer,18987,PORT OF SEATTLE,22-Aug,9/16/2022,16805.0,PORT OF SEATTLE,7000.0,0.0,7000.0,0.0,0.0,0.0,0.0,0.0,0.0,0.0,7000.0,18987.0,Direct,,,View report (https://accesshub.pdc.wa.gov/node/95189),Transportation,"Real ID, TNC's, Taxi Cabs, Elections","Transportation Committees, Local Government Committees"
115152,95189-18988,95189,FE,17654,Trent M House,Employer,18988,PROVIDENCE HEALTH & SERVICES- WA,22-Aug,9/16/2022,16821.0,PROVIDENCE HEALTH & SERVICES- WA,6000.0,0.0,6000.0,0.0,0.0,0.0,0.0,0.0,0.0,0.0,6000.0,18988.0,Direct,,,View report (https://accesshub.pdc.wa.gov/node/95189),Health Care,Dental Residencies,Health Care Committee
115153,95819-25635,95819,FE,17974,MELANIE J SMITH,Employer,25635,MULTI-SERVICE CENTER LONG TERM CARE OMBUDSMAN PROGRAM,22-Aug,9/16/2022,16932.0,MULTI-SERVICE CENTER LONG TERM CARE OMBUDSMAN PROGRAM,1063.0,0.0,1063.0,0.0,0.0,0.0,0.0,0.0,0.0,0.0,1063.0,25635.0,Direct,,,View report (https://accesshub.pdc.wa.gov/node/95819),Health Care,long term care,healthcare
115154,95823-70160,95823,FE,70158,Lianna Kressin,Employer,70160,STATEWIDE POVERTY ACTION NETWORK,22-Aug,9/16/2022,16952.0,STATEWIDE POVERTY ACTION NETWORK,281.61,0.0,281.61,0.0,0.0,0.0,0.0,0.0,0.0,0.0,281.61,70160.0,Direct,,,View report (https://accesshub.pdc.wa.gov/node/95823),,,
115155,95815-18558,95815,FE,17489,WILLIAM F DEWEY,Employer,18558,TAYLOR SHELLFISH CO INC,22-Aug,9/16/2022,16973.0,TAYLOR SHELLFISH CO INC,740.52,0.0,740.52,0.0,0.0,0.0,0.0,0.0,0.0,0.0,740.52,18558.0,Direct,,,View report (https://accesshub.pdc.wa.gov/node/95815),Environmental Affairs - natural resources - parks,PSP Action Agenda,PSP Ecosystem Coordination Board
115157,95829-19000,95829,FE,17659,HOLLY CHISA,Employer,19000,UNITED TRUSTEES ASSN,22-Jul,9/16/2022,17015.0,UNITED TRUSTEES ASSN,1666.67,0.0,1666.67,0.0,0.0,0.0,0.0,0.0,0.0,0.0,1666.67,19000.0,Direct,,,View report (https://accesshub.pdc.wa.gov/node/95829),,,
115158,95830-19000,95830,FE,17659,HOLLY CHISA,Employer,19000,UNITED TRUSTEES ASSN,22-Aug,9/16/2022,17015.0,UNITED TRUSTEES ASSN,1666.67,0.0,1666.67,0.0,0.0,0.0,0.0,0.0,0.0,0.0,1666.67,19000.0,Direct,,,View report (https://accesshub.pdc.wa.gov/node/95830),,,
115159,95809-19104,95809,FE,17719,HERB KROHN,Employer,19104,SMART TD PAC,22-Aug,9/16/2022,17017.0,SMART TD PAC,2000.0,0.0,2000.0,0.0,0.0,0.0,0.0,0.0,0.0,0.0,2000.0,19104.0,Direct,,,View report (https://accesshub.pdc.wa.gov/node/95809),,,
115161,95189-39392,95189,FE,17654,Trent M House,Employer,39392,WA BANKERS ASSN,22-Aug,9/16/2022,17061.0,WA BANKERS ASSN,10000.0,0.0,10000.0,0.0,0.0,0.0,0.0,0.0,0.0,0.0,10000.0,39392.0,Direct,,,View report (https://accesshub.pdc.wa.gov/node/95189),Financial institutions and insurance,Banking,"House Finance, Senate Financial Institutions"
115163,95824-28552,95824,FE,28183,Andrea Kadlec,Employer,28552,DISABILITY RIGHTS WA,22-Aug,9/16/2022,17163.0,DISABILITY RIGHTS WA,206.49,0.0,206.49,0.0,0.0,0.0,0.0,0.0,0.0,0.0,206.49,28552.0,Direct,,,View report (https://accesshub.pdc.wa.gov/node/95824),Education,burden of proof and isolation in school,OSPI
115164,95810-95020,95810,FE,95019,Jayme Shoun,Employer,95020,WA STEM CENTER,22-Aug,9/16/2022,17189.0,WA STEM CENTER,497.59,0.0,497.59,0.0,0.0,0.0,0.0,0.0,0.0,0.0,497.59,95020.0,Direct,,,View report (https://accesshub.pdc.wa.gov/node/95810),Education,"STEM,","WSAC, SBE, OSPI, DCYF- intro meetings. Meetings with lobbyist"
115166,95189-18991,95189,FE,17654,Trent M House,Employer,18991,WA ST DENTAL ASSN,22-Aug,9/16/2022,17238.0,WA ST DENTAL ASSN,8750.0,0.0,8750.0,0.0,0.0,0.0,0.0,0.0,0.0,0.0,8750.0,18991.0,Direct,,,View report (https://accesshub.pdc.wa.gov/node/95189),Health Care,Dental Insurance Reforms,Health Care Committees
115168,95819-60575,95819,FE,17974,MELANIE J SMITH,Employer,60575,WA ST PSYCHOLOGICAL ASSN,22-Aug,9/16/2022,17269.0,WA ST PSYCHOLOGICAL ASSN,3092.0,0.0,3092.0,0.0,0.0,0.0,0.0,0.0,0.0,0.0,3092.0,60575.0,Direct,,,View report (https://accesshub.pdc.wa.gov/node/95819),Health Care,healthcare,healthcare
115171,95189-48852,95189,FE,17654,Trent M House,Employer,48852,WA Hospitality Assn,22-Aug,9/16/2022,26557.0,WA Hospitality Assn,5000.0,0.0,5000.0,0.0,0.0,0.0,0.0,0.0,0.0,0.0,5000.0,48852.0,Direct,,,View report (https://accesshub.pdc.wa.gov/node/95189),Business and consumer affairs,Covid,All House Senate + Gov
115172,95189-29353,95189,FE,17654,Trent M House,Employer,29353,"A Place for Mom, Inc.",22-Aug,9/16/2022,29258.0,"A Place for Mom, Inc.",1000.0,0.0,1000.0,0.0,0.0,0.0,0.0,0.0,0.0,0.0,1000.0,29353.0,Direct,,,View report (https://accesshub.pdc.wa.gov/node/95189),Business and consumer affairs,General Business Climate Monitoring,All Legislative Committees
115173,95829-63490,95829,FE,17659,HOLLY CHISA,Employer,63490,Juul Labs Inc.,22-Jul,9/16/2022,49226.0,Juul Labs Inc.,6000.0,0.0,6000.0,0.0,0.0,0.0,0.0,0.0,0.0,0.0,6000.0,63490.0,Direct,,,View report (https://accesshub.pdc.wa.gov/node/95829),,,
115174,95830-63490,95830,FE,17659,HOLLY CHISA,Employer,63490,Juul Labs Inc.,22-Aug,9/16/2022,49226.0,Juul Labs Inc.,6000.0,0.0,6000.0,0.0,236.06,0.0,0.0,0.0,0.0,236.06,6236.06,63490.0,Direct,,,View report (https://accesshub.pdc.wa.gov/node/95830),,,
115175,95829-50629,95829,FE,17659,HOLLY CHISA,Employer,50629,MALLINCKRODT PHARMACEUTICALS,22-Jul,9/16/2022,50628.0,MALLINCKRODT PHARMACEUTICALS,5500.0,0.0,5500.0,0.0,0.0,0.0,0.0,0.0,0.0,0.0,5500.0,50629.0,Direct,,,View report (https://accesshub.pdc.wa.gov/node/95829),Fiscal,All issues,Legislature
115176,95830-50629,95830,FE,17659,HOLLY CHISA,Employer,50629,MALLINCKRODT PHARMACEUTICALS,22-Aug,9/16/2022,50628.0,MALLINCKRODT PHARMACEUTICALS,5500.0,0.0,5500.0,0.0,0.0,0.0,0.0,0.0,0.0,0.0,5500.0,50629.0,Direct,,,View report (https://accesshub.pdc.wa.gov/node/95830),Fiscal,All issues,Legislature
115177,95189-50936,95189,FE,17654,Trent M House,Employer,50936,Sodexo,22-Aug,9/16/2022,50903.0,Sodexo,4500.0,0.0,4500.0,0.0,0.0,0.0,0.0,0.0,0.0,0.0,4500.0,50936.0,Direct,,,View report (https://accesshub.pdc.wa.gov/node/95189),Business and consumer affairs,Facilities,All House Senate
115178,94985-62158,94985,FE,35236,Meg L Jones,Employer,62158,PacificSource Health Plans,22-Jul,9/16/2022,51438.0,PacificSource Health Plans,1500.0,0.0,1500.0,0.0,0.0,1500.0,0.0,0.0,0.0,1500.0,3000.0,62158.0,Direct,,,View report (https://accesshub.pdc.wa.gov/node/94985),Health Care,Health plan coverage and operations,Office of the Insurance Commissioner; House or Senate Healthcare Commtttees
115179,95814-62158,95814,FE,35236,Meg L Jones,Employer,62158,PacificSource Health Plans,22-Aug,9/16/2022,51438.0,PacificSource Health Plans,1500.0,0.0,1500.0,0.0,0.0,250.0,0.0,0.0,0.0,250.0,1750.0,62158.0,Direct,,,View report (https://accesshub.pdc.wa.gov/node/95814),Health Care,Health plan coverage and operations,"House and Senate Healthcare Committees; Office of the Insurance Commissioner, Health Care Authority"
115180,95819-74682,95819,FE,17974,MELANIE J SMITH,Employer,74682,Seattle/King County Coalition on Homelessness,22-Aug,9/16/2022,74671.0,Seattle/King County Coalition on Homelessness,1600.0,0.0,1600.0,0.0,0.0,0.0,0.0,0.0,0.0,0.0,1600.0,74682.0,Direct,,,View report (https://accesshub.pdc.wa.gov/node/95819),,,
115181,95189-83466,95189,FE,17654,Trent M House,Employer,83466,Aerospace Machinists Joint Training Committee,22-Aug,9/16/2022,83460.0,Aerospace Machinists Joint Training Committee,4500.0,0.0,4500.0,0.0,0.0,0.0,0.0,0.0,0.0,0.0,4500.0,83466.0,Direct,,,View report (https://accesshub.pdc.wa.gov/node/95189),Transportation,Transportation,All House Senate Transportation
115182,95819-83916,95819,FE,17974,MELANIE J SMITH,Employer,83916,Wonderland Child & Family Services,22-Aug,9/16/2022,83795.0,Wonderland Child & Family Services,2000.0,0.0,2000.0,0.0,0.0,0.0,0.0,0.0,0.0,0.0,2000.0,83916.0,Direct,,,View report (https://accesshub.pdc.wa.gov/node/95819),,,
115184,95189-91880,95189,FE,17654,Trent M House,Employer,91880,Sports Betting Alliance,22-Aug,9/16/2022,91879.0,Sports Betting Alliance,2000.0,0.0,2000.0,0.0,0.0,0.0,0.0,0.0,0.0,0.0,2000.0,91880.0,Direct,,,View report (https://accesshub.pdc.wa.gov/node/95189),,,
115185,95836-18131,95836,FE,17336,ALLIANCES NORTHWEST*,Employer,18131,AMAZON.COM SERVICES LLC,22-Aug,9/17/2022,16088.0,AMAZON.COM SERVICES LLC,16000.0,0.0,16000.0,197.2,0.0,0.0,0.0,0.0,0.0,197.2,16197.2,18131.0,Direct,,,View report (https://accesshub.pdc.wa.gov/node/95836),Technology,"All matters relating to business, commercial development, the environment, internet, insurance, finance, retail, tax and transportation issues.","All committees of the Legislature, the Executive, CTED, DOE, DOH, DOR, DFI, DOT, DSHS, DNR, GA, the and the Secretary of State."
115186,95836-18132,95836,FE,17336,ALLIANCES NORTHWEST*,Employer,18132,BP AMERICA INC,22-Aug,9/17/2022,16139.0,BP AMERICA INC,11000.0,0.0,11000.0,200.3,0.0,0.0,0.0,0.0,0.0,200.3,11200.3,18132.0,Direct,,,View report (https://accesshub.pdc.wa.gov/node/95836),Business and consumer affairs,"All matters relating to business, commercial development, the environment, energy, Hanford, health care, insurance, finance, retail, tax and transportation issues.","All committees of the Legislature, the Executive, DOE, DOH, DOR, DFI, DOT, DSHS, DNR, GA, the Insurance Commissioner, the Treasurer, and the Secretary of State."
115187,95836-18133,95836,FE,17336,ALLIANCES NORTHWEST*,Employer,18133,Delta Air Lines,22-Aug,9/17/2022,16385.0,Delta Air Lines,5000.0,0.0,5000.0,184.68,0.0,0.0,0.0,0.0,0.0,184.68,5184.68,18133.0,Direct,,,View report (https://accesshub.pdc.wa.gov/node/95836),Transportation,"All matters relating to business, commercial development, the environment, energy, health care, insurance, finance, retail, tax and transportation issues.","All committees of the Legislature, the E"
115188,95836-18134,95836,FE,17336,ALLIANCES NORTHWEST*,Employer,18134,NINTENDO OF AMERICA,22-Aug,9/17/2022,16686.0,NINTENDO OF AMERICA,6500.0,0.0,6500.0,109.67,0.0,0.0,0.0,0.0,0.0,109.67,6609.67,18134.0,Direct,,,View report (https://accesshub.pdc.wa.gov/node/95836),Technology,"All matters relating to business, commercial development, the environment, health care, insurance, finance, technology, retail, tax and transportation issues.","All committees of the Legislature, the Executive, CTED, DOE, DOH, DOR, DFI, DOT, DSHS, DNR, GA, L&I, and the Secretary of State."
115189,95836-76739,95836,FE,17336,ALLIANCES NORTHWEST*,Employer,76739,PHARMACEUTICAL RSRCH/MFG OF AMERICA,22-Aug,9/17/2022,16776.0,PHARMACEUTICAL RSRCH/MFG OF AMERICA,2727.27,0.0,2727.27,37.81,0.0,0.0,0.0,0.0,0.0,37.81,2765.08,76739.0,Direct,,,View report (https://accesshub.pdc.wa.gov/node/95836),Health Care,"All matters relating to business, pharmaceutical, the environment, health care, insurance, finance, and tax issues.","All committees of the Legislature, the Executive, DOH, DOR, DFI, DSHS, the Insurance Commissioner, the Treasurer, and the Secretary of State."
115190,95836-18135,95836,FE,17336,ALLIANCES NORTHWEST*,Employer,18135,PUGET SOUND ENERGY INC,22-Aug,9/17/2022,16828.0,PUGET SOUND ENERGY INC,10000.0,0.0,10000.0,37.79,0.0,0.0,0.0,0.0,0.0,37.79,10037.79,18135.0,Direct,,,View report (https://accesshub.pdc.wa.gov/node/95836),Energy and utilities,"All matters relating to business, commercial development, the environment, energy, Hanford, insurance, finance, local government, retail, tax and transportation issues.","All committees of the Legislature, the Executive, CTED, DOE, DOH, DOR, DFI, DOT, DSHS, DNR, GA, the UTC, the Treasurer, and the Secretary of State."
115191,95836-18137,95836,FE,17336,ALLIANCES NORTHWEST*,Employer,18137,STARBUCKS,22-Aug,9/17/2022,16950.0,STARBUCKS,7000.0,0.0,7000.0,359.67,0.0,0.0,0.0,0.0,0.0,359.67,7359.67,18137.0,Direct,,,View report (https://accesshub.pdc.wa.gov/node/95836),Business and consumer affairs,"All matters relating to business, commercial development, the environment, health care, insurance, finance, restaurant, retail, tax and transportation issues.","All committees of the Legislature, the Executive, DOE, DOH, DOR, DOR, DFI, DOT, DSHS, GA, the Insurance Commissioner, the Treasurer, and the Secretary of State."
115192,95836-27286,95836,FE,17336,ALLIANCES NORTHWEST*,Employer,27286,VERIZON,22-Aug,9/17/2022,17030.0,VERIZON,6000.0,0.0,6000.0,135.29,0.0,0.0,0.0,0.0,0.0,135.29,6135.29,27286.0,Direct,,,View report (https://accesshub.pdc.wa.gov/node/95836),Technology,"All matters relating to business, commercial development, the environment, energy, Hanford, insurance, finance, local government, retail, tax, telecommunications, and transportation issues.","All committees of the Legislature, the Executive, CTED, DOE, DOH, DOR, DFI, DOT, DSHS, DNR, GA, the UTC, the Treasurer, and the Secretary of State."
115193,95836-38837,95836,FE,17336,ALLIANCES NORTHWEST*,Employer,38837,WA ASSN OF REALTORS,22-Aug,9/17/2022,17059.0,WA ASSN OF REALTORS,10000.0,0.0,10000.0,153.41,0.0,0.0,0.0,0.0,0.0,153.41,10153.41,38837.0,Direct,,,View report (https://accesshub.pdc.wa.gov/node/95836),Business and consumer affairs,"All matters relating to financial institutions, business, commercial development, the environment, health care, , housing, insurance, finance, licensing, retail, tax and transportation issues.","All committees of the Legislature, the Executive, DOE, DOH, DOR, DFI, DOL, DOT, DSHS, DNR, GA, the Insurance Commissioner, the Treasurer, and the Secretary of State."
115194,95836-18139,95836,FE,17336,ALLIANCES NORTHWEST*,Employer,18139,Delta Dental of WA,22-Aug,9/17/2022,17096.0,Delta Dental of WA,10800.0,0.0,10800.0,122.17,0.0,0.0,0.0,0.0,0.0,122.17,10922.17,18139.0,Direct,,,View report (https://accesshub.pdc.wa.gov/node/95836),Health Care,"All matters relating to business, the environment, health care, insurance, finance, and tax issues.","All committees of the Legislature, the Executive, DOH, DOR, DFI, DSHS, the Insurance Commissioner, the Treasurer, and the Secretary of State."
115196,95836-26591,95836,FE,17336,ALLIANCES NORTHWEST*,Employer,26591,WA Hospitality Assn,22-Aug,9/17/2022,26557.0,WA Hospitality Assn,10000.0,0.0,10000.0,182.93,0.0,0.0,0.0,0.0,0.0,182.93,10182.93,26591.0,Direct,,,View report (https://accesshub.pdc.wa.gov/node/95836),Business and consumer affairs,"All matters relating to business, commercial development, the environment, health care, insurance, finance, restaurant, retail, tax and transportation issues.","All committees of the Legislature, the Executive, DOE, DOH, DOR, DOR, DFI, DOT, DSHS, GA, the Insurance Commissioner, the Treasurer, and the Secretary of State."
115197,95836-73501,95836,FE,17336,ALLIANCES NORTHWEST*,Employer,73501,"Fiserv, Inc.",22-Aug,9/17/2022,73020.0,"Fiserv, Inc.",5000.0,0.0,5000.0,47.98,0.0,0.0,0.0,0.0,0.0,47.98,5047.98,73501.0,Direct,,,View report (https://accesshub.pdc.wa.gov/node/95836),Fiscal,All matters relating to taxation and retail issues.,"All members of the Legislature, the Executive Branch and the Department of Revenue."
115198,95836-78951,95836,FE,17336,ALLIANCES NORTHWEST*,Employer,78951,New York Life Insurance Company,22-Aug,9/17/2022,78906.0,New York Life Insurance Company,5000.0,0.0,5000.0,31.25,0.0,0.0,0.0,0.0,0.0,31.25,5031.25,78951.0,Direct,,,View report (https://accesshub.pdc.wa.gov/node/95836),Financial institutions and insurance,"All matters relating to business, health care, insurance, finance, and tax issues.","All committees of the Legislature, the Executive, DOH, DOR, DFI, DSHS, the Insurance Commissioner, the Treasurer, and the Secretary of State."
115199,95837-19501,95837,FE,17905,T K BENTLER/PUBLIC AFFAIRS ASSOC*,Employer,19501,3M CO,22-Aug,9/18/2022,16055.0,3M CO,3333.33,0.0,3333.33,0.0,0.0,0.0,0.0,0.0,0.0,0.0,3333.33,19501.0,Direct,,,View report (https://accesshub.pdc.wa.gov/node/95837),Transportation,Transportation Funding for Highway Safety Infrastructure,S & H Transportation Committee
115200,95837-19505,95837,FE,17905,T K BENTLER/PUBLIC AFFAIRS ASSOC*,Employer,19505,METRO PARKS OF TACOMA,22-Aug,9/18/2022,16635.0,METRO PARKS OF TACOMA,5250.0,-900.0,4350.0,0.0,0.0,0.0,0.0,0.0,0.0,0.0,4350.0,19505.0,Direct,,,View report (https://accesshub.pdc.wa.gov/node/95837),Fiscal,Capital Budget,H Capital Budget & S W&Ms Committees
115201,95837-19506,95837,FE,17905,T K BENTLER/PUBLIC AFFAIRS ASSOC*,Employer,19506,"MOTION PICTURE ASSOCIATION, INC.",22-Aug,9/18/2022,16645.0,"MOTION PICTURE ASSOCIATION, INC.",2500.0,-900.0,1600.0,0.0,0.0,0.0,0.0,0.0,0.0,0.0,1600.0,19506.0,Direct,,,View report (https://accesshub.pdc.wa.gov/node/95837),Technology,Privacy Act,House & Senate Technology Committee
115202,95837-19507,95837,FE,17905,T K BENTLER/PUBLIC AFFAIRS ASSOC*,Employer,19507,MOTOR VEHICLE SOFTWARE CORP,22-Aug,9/18/2022,16648.0,MOTOR VEHICLE SOFTWARE CORP,2500.0,0.0,2500.0,0.0,0.0,0.0,0.0,0.0,0.0,0.0,2500.0,19507.0,Direct,,,View report (https://accesshub.pdc.wa.gov/node/95837),,,
115203,95837-19508,95837,FE,17905,T K BENTLER/PUBLIC AFFAIRS ASSOC*,Employer,19508,RAI Services Company,22-Aug,9/18/2022,16862.0,RAI Services Company,10185.42,0.0,10185.42,0.0,0.0,0.0,0.0,0.0,0.0,0.0,10185.42,19508.0,Direct,,,View report (https://accesshub.pdc.wa.gov/node/95837),Business and consumer affairs,Vape Flavor Ban & taxes,"Senate Health Care, H C&G, Finance"
115204,95837-19509,95837,FE,17905,T K BENTLER/PUBLIC AFFAIRS ASSOC*,Employer,19509,WA BREWERS GUILD,22-Aug,9/18/2022,17065.0,WA BREWERS GUILD,800.0,-900.0,-100.0,0.0,0.0,0.0,0.0,0.0,0.0,0.0,-100.0,19509.0,Direct,,,View report (https://accesshub.pdc.wa.gov/node/95837),Fiscal,Canned Cocktails,H Finance & S W&Ms
115205,95837-19510,95837,FE,17905,T K BENTLER/PUBLIC AFFAIRS ASSOC*,Employer,19510,"Wa Cemetary, Cremation & Funeral Assn.",22-Aug,9/18/2022,17077.0,"Wa Cemetary, Cremation & Funeral Assn.",1600.0,0.0,1600.0,0.0,0.0,0.0,0.0,0.0,0.0,0.0,1600.0,19510.0,Direct,,,View report (https://accesshub.pdc.wa.gov/node/95837),,,
115206,95837-19512,95837,FE,17905,T K BENTLER/PUBLIC AFFAIRS ASSOC*,Employer,19512,WA ST INDEPENDENT AUTO DEALERS ASSN,22-Aug,9/18/2022,17257.0,WA ST INDEPENDENT AUTO DEALERS ASSN,2600.0,-900.0,1700.0,110.0,0.0,0.0,0.0,0.0,0.0,110.0,1810.0,19512.0,Direct,,,View report (https://accesshub.pdc.wa.gov/node/95837),,,
115207,95837-62862,95837,FE,17905,T K BENTLER/PUBLIC AFFAIRS ASSOC*,Employer,62862,Craft Cannabis Coalition,22-Aug,9/18/2022,62809.0,Craft Cannabis Coalition,6000.0,-900.0,5100.0,110.0,0.0,0.0,0.0,0.0,0.0,110.0,5210.0,62862.0,Direct,,,View report (https://accesshub.pdc.wa.gov/node/95837),Business and consumer affairs,Cannabis Social Equity,"H C&Gm, S L,C Tribal Affairs, Social Equity Task Force"
115208,95535-70151,95535,FE,17935,Nancy Sapiro,Employer,70151,AMERICAN CONGRESS OF OBSTETRICIANS AND GYNECOLOGISTS,22-Aug,9/19/2022,16099.0,AMERICAN CONGRESS OF OBSTETRICIANS AND GYNECOLOGISTS,1500.0,0.0,1500.0,0.0,0.0,0.0,0.0,0.0,0.0,0.0,1500.0,70151.0,Direct,,,View report (https://accesshub.pdc.wa.gov/node/95535),Health Care,Health Care,"Members of House and Senate, Governor's Office, OIC, AGO"
115209,95855-92871,95855,FE,90807,Marian Dacca Public Affairs,Employer,92871,AT&T SERVICES INC (James P Justin (Government Relations Consulting Inc.)),22-Aug,9/19/2022,16175.0,AT&T SERVICES INC,1000.0,0.0,1000.0,0.0,0.0,0.0,0.0,0.0,0.0,0.0,1000.0,92871.0,Subcontract,17688.0,James P Justin (Government Relations Consulting Inc.),View report (https://accesshub.pdc.wa.gov/node/95855),,,
115210,95855-92875,95855,FE,90807,Marian Dacca Public Affairs,Employer,92875,BOEING EMPLOYEES CREDIT UNION (James P Justin (Government Relations Consulting Inc.)),22-Aug,9/19/2022,16200.0,BOEING EMPLOYEES CREDIT UNION,1000.0,0.0,1000.0,0.0,0.0,0.0,0.0,0.0,0.0,0.0,1000.0,92875.0,Subcontract,17688.0,James P Justin (Government Relations Consulting Inc.),View report (https://accesshub.pdc.wa.gov/node/95855),,,
115211,95445-86806,95445,FE,86203,Model Solutions LLC,Employer,86806,"CARMAX AUTO SUPERSTORES, INC",22-Aug,9/19/2022,16231.0,"CARMAX AUTO SUPERSTORES, INC",4000.0,0.0,4000.0,0.0,0.0,0.0,0.0,0.0,0.0,0.0,4000.0,86806.0,Direct,,,View report (https://accesshub.pdc.wa.gov/node/95445),Transportation,"Car dealership issues, Operating budget items, Transportation Budget Issues",Legislature
115212,95535-70415,95535,FE,17935,Nancy Sapiro,Employer,70415,CITY OF SEATTLE,22-Aug,9/19/2022,16311.0,CITY OF SEATTLE,5200.0,0.0,5200.0,0.0,0.0,0.0,0.0,0.0,0.0,0.0,5200.0,70415.0,Direct,,,View report (https://accesshub.pdc.wa.gov/node/95535),,,
115213,95535-23620,95535,FE,17935,Nancy Sapiro,Employer,23620,End of Life Washington,22-Aug,9/19/2022,16352.0,End of Life Washington,2500.0,0.0,2500.0,0.0,0.0,0.0,0.0,0.0,0.0,0.0,2500.0,23620.0,Direct,,,View report (https://accesshub.pdc.wa.gov/node/95535),Health Care,Health Care,Members of House and Senate
115214,95535-70148,95535,FE,17935,Nancy Sapiro,Employer,70148,CEDAR RIVER CLINICS,22-Aug,9/19/2022,16439.0,CEDAR RIVER CLINICS,400.0,0.0,400.0,0.0,0.0,0.0,0.0,0.0,0.0,0.0,400.0,70148.0,Direct,,,View report (https://accesshub.pdc.wa.gov/node/95535),Health Care,Health Care,"Members of Senate and House, OIC and Governor's Office, AGO"
115215,95826-25544,95826,FE,17554,DAVID S FOSTER,Employer,25544,INTERCITY TRANSIT,22-Aug,9/19/2022,16542.0,INTERCITY TRANSIT,2000.0,0.0,2000.0,0.0,0.0,0.0,0.0,0.0,0.0,0.0,2000.0,25544.0,Direct,,,View report (https://accesshub.pdc.wa.gov/node/95826),Transportation,Transit,Transportation
115216,95535-19568,95535,FE,17935,Nancy Sapiro,Employer,19568,JEWISH FEDERATION OF GREATER SEATTLE,22-Aug,9/19/2022,16559.0,JEWISH FEDERATION OF GREATER SEATTLE,1250.0,0.0,1250.0,0.0,0.0,0.0,0.0,0.0,0.0,0.0,1250.0,19568.0,Direct,,,View report (https://accesshub.pdc.wa.gov/node/95535),,,
115217,95826-47215,95826,FE,17554,DAVID S FOSTER,Employer,47215,KING CO COUNCIL,22-Aug,9/19/2022,16575.0,KING CO COUNCIL,11000.0,-5500.0,5500.0,0.0,0.0,0.0,0.0,0.0,0.0,0.0,5500.0,47215.0,Direct,,,View report (https://accesshub.pdc.wa.gov/node/95826),Local government,Local Government,"Local Government, Transportation, Appropriations, Ways & Means"
115218,95855-92878,95855,FE,90807,Marian Dacca Public Affairs,Employer,92878,MUNICIPAL RESEARCH & SERVICES CENTER (James P Justin (Government Relations Consulting Inc.)),22-Aug,9/19/2022,16652.0,MUNICIPAL RESEARCH & SERVICES CENTER,500.0,0.0,500.0,0.0,0.0,0.0,0.0,0.0,0.0,0.0,500.0,92878.0,Subcontract,17688.0,James P Justin (Government Relations Consulting Inc.),View report (https://accesshub.pdc.wa.gov/node/95855),,,
115225,95445-86808,95445,FE,86203,Model Solutions LLC,Employer,86808,NORTHWEST ENERGY EFFICIENCY COUNCIL (NEEC),22-Aug,9/19/2022,16722.0,NORTHWEST ENERGY EFFICIENCY COUNCIL (NEEC),4000.0,0.0,4000.0,0.0,0.0,0.0,0.0,0.0,0.0,0.0,4000.0,86808.0,Direct,,,View report (https://accesshub.pdc.wa.gov/node/95445),Energy and utilities,"Policy discussions around energy efficiency, Capital budget items, Operating budget items, CARES Act funding items, HB 1768 Energy services contracting",Department of Commerce
115226,95786-63964,95786,FE,63963,Courtney Normand,Employer,63964,PLANNED PARENTHOOD ALLIANCE ADVOCATES,22-Aug,9/19/2022,16789.0,PLANNED PARENTHOOD ALLIANCE ADVOCATES,494.3,0.0,494.3,0.0,0.0,0.0,0.0,0.0,0.0,0.0,494.3,63964.0,Direct,,,View report (https://accesshub.pdc.wa.gov/node/95786),Health Care,Sexual and Reproductive Health Care,"Dhingra, Cleveland, Wilson, Randall, Hansen, Macri, Governor, Attorney General"
115227,95826-18740,95826,FE,17554,DAVID S FOSTER,Employer,18740,SEATTLE AQUARIUM SOCIETY,22-Aug,9/19/2022,16888.0,SEATTLE AQUARIUM SOCIETY,3000.0,0.0,3000.0,0.0,0.0,0.0,0.0,0.0,0.0,0.0,3000.0,18740.0,Direct,,,View report (https://accesshub.pdc.wa.gov/node/95826),Fiscal,Capital Budget,"Capital Budget, Approps, W&M"
115228,95855-90809,95855,FE,90807,Marian Dacca Public Affairs,Employer,90809,SNOHOMISH CO PUBLIC UTILITY DIST #1,22-Aug,9/19/2022,16926.0,SNOHOMISH CO PUBLIC UTILITY DIST #1,6800.0,0.0,6800.0,0.0,0.0,0.0,0.0,0.0,0.0,0.0,6800.0,90809.0,Direct,,,View report (https://accesshub.pdc.wa.gov/node/95855),Energy and utilities,Energy & Utility Issues; Utility Customer Assistance,"Dept of Ecology, Dept of Commerce, Legislative Environment Committees"
115229,95855-90808,95855,FE,90807,Marian Dacca Public Affairs,Employer,90808,WA ASSN OF BUILDING OFFICIALS,22-Aug,9/19/2022,17066.0,WA ASSN OF BUILDING OFFICIALS,3000.0,0.0,3000.0,0.0,0.0,0.0,0.0,0.0,0.0,0.0,3000.0,90808.0,Direct,,,View report (https://accesshub.pdc.wa.gov/node/95855),,,
115230,95839-28710,95839,FE,28708,Heather Trim,Employer,28710,ZERO WASTE WA,22-Aug,9/19/2022,17086.0,ZERO WASTE WA,252.89,0.0,252.89,0.0,0.0,0.0,0.0,0.0,0.0,0.0,252.89,28710.0,Direct,,,View report (https://accesshub.pdc.wa.gov/node/95839),Environmental Affairs - natural resources - parks,waste/plastics/organics/recycling,Env and Consumer affairs legislators and Ecology
115231,95855-92873,95855,FE,90807,Marian Dacca Public Affairs,Employer,92873,WA TECHNOLOGY INDUSTRY ASSN (James P Justin (Government Relations Consulting Inc.)),22-Aug,9/19/2022,17203.0,WA TECHNOLOGY INDUSTRY ASSN,1000.0,0.0,1000.0,0.0,0.0,0.0,0.0,0.0,0.0,0.0,1000.0,92873.0,Subcontract,17688.0,James P Justin (Government Relations Consulting Inc.),View report (https://accesshub.pdc.wa.gov/node/95855),,,
115233,95840-19880,95840,FE,18083,CHELENE WHITEAKER,Employer,19880,WA ST HOSPITAL ASSN,22-Aug,9/19/2022,17252.0,WA ST HOSPITAL ASSN,300.0,0.0,300.0,20.3,0.0,0.0,0.0,0.0,0.0,20.3,320.3,19880.0,Direct,,,View report (https://accesshub.pdc.wa.gov/node/95840),Higher education,Impacts to hospitals,health care committee and DSHS and HCA
115234,95826-18742,95826,FE,17554,DAVID S FOSTER,Employer,18742,Washington State Alliance of YMCAs,22-Aug,9/19/2022,17323.0,Washington State Alliance of YMCAs,3300.0,0.0,3300.0,0.0,0.0,0.0,0.0,0.0,0.0,0.0,3300.0,18742.0,Direct,,,View report (https://accesshub.pdc.wa.gov/node/95826),Human services,Childcare,"Early Learning, Appropriations, Ways & Means"
115235,95437-27593,95437,FE,27592,Hemstad Consulting,Employer,27593,City of Des Moines,22-Aug,9/19/2022,27571.0,City of Des Moines,4000.0,0.0,4000.0,0.0,0.0,0.0,0.0,0.0,0.0,0.0,4000.0,27593.0,Direct,,,View report (https://accesshub.pdc.wa.gov/node/95437),Fiscal,Capital budget allocation for 223rd scoping,fiscal committees
115236,95826-48563,95826,FE,17554,DAVID S FOSTER,Employer,48563,City of Tukwila,22-Aug,9/19/2022,28150.0,City of Tukwila,3250.0,0.0,3250.0,0.0,0.0,0.0,0.0,0.0,0.0,0.0,3250.0,48563.0,Direct,,,View report (https://accesshub.pdc.wa.gov/node/95826),Local government,Local Government,"Local Government, Transportation, Appropriations, Ways & Means"
115237,95826-31666,95826,FE,17554,DAVID S FOSTER,Employer,31666,American Behavioral Health Systems Inc,22-Aug,9/19/2022,30616.0,American Behavioral Health Systems Inc,5000.0,0.0,5000.0,0.0,0.0,0.0,0.0,0.0,0.0,0.0,5000.0,31666.0,Direct,,,View report (https://accesshub.pdc.wa.gov/node/95826),Health Care,Behavioral Health,"Health Care, Behavioral Health, Appropriations, Ways & Means"
115238,95445-86809,95445,FE,86203,Model Solutions LLC,Employer,86809,FIRST Washington,22-Aug,9/19/2022,39865.0,FIRST Washington,2500.0,0.0,2500.0,0.0,0.0,0.0,0.0,0.0,0.0,0.0,2500.0,86809.0,Direct,,,View report (https://accesshub.pdc.wa.gov/node/95445),Education,"STEM Education, Operating Budget issues, Capital Budget issues, ARP Act Funding","House & Senate Education Committees, Office of the Governor, Superintendent of Public Instruction, Legislature"
115239,95855-93736,95855,FE,90807,Marian Dacca Public Affairs,Employer,93736,Cypress Creek Renewables (James P Justin (Government Relations Consulting Inc.)),22-Aug,9/19/2022,42906.0,Cypress Creek Renewables,500.0,0.0,500.0,0.0,0.0,0.0,0.0,0.0,0.0,0.0,500.0,93736.0,Subcontract,17688.0,James P Justin (Government Relations Consulting Inc.),View report (https://accesshub.pdc.wa.gov/node/95855),,,
115240,95826-43392,95826,FE,17554,DAVID S FOSTER,Employer,43392,"KinderCare Learning Companies, LLC",22-Aug,9/19/2022,43391.0,"KinderCare Learning Companies, LLC",3500.0,0.0,3500.0,0.0,0.0,0.0,0.0,0.0,0.0,0.0,3500.0,43392.0,Direct,,,View report (https://accesshub.pdc.wa.gov/node/95826),Human services,Childcare,"Early Learning, Appropriations, Ways & Means"
115241,95826-48785,95826,FE,17554,DAVID S FOSTER,Employer,48785,Sound,22-Aug,9/19/2022,47810.0,Sound,4500.0,0.0,4500.0,0.0,0.0,0.0,0.0,0.0,0.0,0.0,4500.0,48785.0,Direct,,,View report (https://accesshub.pdc.wa.gov/node/95826),Health Care,Behavioral Health,"Health Care, Behavioral Health, Approps, W&M"
115242,95855-92879,95855,FE,90807,Marian Dacca Public Affairs,Employer,92879,EarthGen  (James P Justin (Government Relations Consulting Inc.)),22-Aug,9/19/2022,47838.0,EarthGen,500.0,0.0,500.0,0.0,0.0,0.0,0.0,0.0,0.0,0.0,500.0,92879.0,Subcontract,17688.0,James P Justin (Government Relations Consulting Inc.),View report (https://accesshub.pdc.wa.gov/node/95855),,,
115243,95437-59583,95437,FE,27592,Hemstad Consulting,Employer,59583,King County Fire Protection District 39 DBA South King Fire & Rescue,22-Aug,9/19/2022,59576.0,King County Fire Protection District 39 DBA South King Fire & Rescue,4000.0,0.0,4000.0,0.0,0.0,0.0,0.0,0.0,0.0,0.0,4000.0,59583.0,Direct,,,View report (https://accesshub.pdc.wa.gov/node/95437),Local government,Bills of interest to fire districts,"Local Government Committee, fiscal committees"
115244,95826-60201,95826,FE,17554,DAVID S FOSTER,Employer,60201,Tobacco-Free Action Fund,22-Aug,9/19/2022,60200.0,Tobacco-Free Action Fund,4500.0,0.0,4500.0,0.0,0.0,0.0,0.0,0.0,0.0,0.0,4500.0,60201.0,Direct,,,View report (https://accesshub.pdc.wa.gov/node/95826),Health Care,Tobacco and vape,"Health Care, Commerce, Appropriations, Ways & Means"
115245,95445-91742,95445,FE,86203,Model Solutions LLC,Employer,91742,UiPath Inc.,22-Aug,9/19/2022,66506.0,UiPath Inc.,2500.0,0.0,2500.0,0.0,0.0,0.0,0.0,0.0,0.0,0.0,2500.0,91742.0,Direct,,,View report (https://accesshub.pdc.wa.gov/node/95445),Technology,Technology solutions for state government,"Washington Technology Solutions, Employment Security Department, Department of Social & Health Services, Administrative Office of the Courts, Department of Children, Youth and Families, Department of Health, Office of Financial Management, Department of E"
115246,95855-92877,95855,FE,90807,Marian Dacca Public Affairs,Employer,92877,"DoorDash, Inc (James P Justin (Government Relations Consulting Inc.))",22-Aug,9/19/2022,70327.0,"DoorDash, Inc",1000.0,0.0,1000.0,0.0,0.0,0.0,0.0,0.0,0.0,0.0,1000.0,92877.0,Subcontract,17688.0,James P Justin (Government Relations Consulting Inc.),View report (https://accesshub.pdc.wa.gov/node/95855),,,
115247,95445-95833,95445,FE,86203,Model Solutions LLC,Employer,95833,"Okta, Inc.",22-Aug,9/19/2022,70889.0,"Okta, Inc.",1935.48,0.0,1935.48,0.0,0.0,0.0,0.0,0.0,0.0,0.0,1935.48,95833.0,Direct,,,View report (https://accesshub.pdc.wa.gov/node/95445),,,
115248,95437-74052,95437,FE,27592,Hemstad Consulting,Employer,74052,"Canals of Ellensburg, LLC",22-Aug,9/19/2022,74047.0,"Canals of Ellensburg, LLC",4000.0,0.0,4000.0,0.0,0.0,0.0,0.0,0.0,0.0,0.0,4000.0,74052.0,Direct,,,View report (https://accesshub.pdc.wa.gov/node/95437),Fiscal,Bills impacting business and development,Fiscal committees
115249,95855-91813,95855,FE,90807,Marian Dacca Public Affairs,Employer,91813,Glass Packaging Institute (GPI),22-Aug,9/19/2022,74713.0,Glass Packaging Institute (GPI),3500.0,0.0,3500.0,0.0,0.0,0.0,0.0,0.0,0.0,0.0,3500.0,91813.0,Direct,,,View report (https://accesshub.pdc.wa.gov/node/95855),Environmental Affairs - natural resources - parks,Recycling Issues,"Dept of Ecology, Dept of Commerce, UTC, Legislative Environment Committees"
115250,95437-75999,95437,FE,27592,Hemstad Consulting,Employer,75999,"Albatross Estates, LLC",22-Aug,9/19/2022,75995.0,"Albatross Estates, LLC",3500.0,0.0,3500.0,0.0,0.0,0.0,0.0,0.0,0.0,0.0,3500.0,75999.0,Direct,,,View report (https://accesshub.pdc.wa.gov/node/95437),Fiscal,Bills impacting businesses and developers,Fiscal committees+
115251,95445-86222,95445,FE,86203,Model Solutions LLC,Employer,86222,"Ensono, Inc.",22-Aug,9/19/2022,86220.0,"Ensono, Inc.",2500.0,0.0,2500.0,0.0,0.0,0.0,0.0,0.0,0.0,0.0,2500.0,86222.0,Direct,,,View report (https://accesshub.pdc.wa.gov/node/95445),Technology,"IT Procurement, Mainframe as a Service","Department of Enterprise Services, Department of Social & Health Services, Administrative Office of the Courts, Labor & Industries, Department of Children, Youth & Families."
115252,95445-89073,95445,FE,86203,Model Solutions LLC,Employer,89073,"Zscaler, Inc.",22-Aug,9/19/2022,88644.0,"Zscaler, Inc.",833.33,0.0,833.33,0.0,0.0,0.0,0.0,0.0,0.0,0.0,833.33,89073.0,Direct,,,View report (https://accesshub.pdc.wa.gov/node/95445),Technology,Cybersecurity solutions,"Washington Technology Solutions (WaTech) and Office of Financial Management, Department of Social & Health Services"
115253,95445-89428,95445,FE,86203,Model Solutions LLC,Employer,89428,Mi-Case,22-Aug,9/19/2022,89427.0,Mi-Case,4000.0,0.0,4000.0,0.0,0.0,0.0,0.0,0.0,0.0,0.0,4000.0,89428.0,Direct,,,View report (https://accesshub.pdc.wa.gov/node/95445),Technology,Case Management Software Solutions,Department of Corrections
115254,95445-94628,95445,FE,86203,Model Solutions LLC,Employer,94628,"FFF Enterprises, Inc.",22-Aug,9/19/2022,94626.0,"FFF Enterprises, Inc.",2333.33,0.0,2333.33,0.0,0.0,0.0,0.0,0.0,0.0,0.0,2333.33,94628.0,Direct,,,View report (https://accesshub.pdc.wa.gov/node/95445),Health Care,Opioid Epidemic,"Governor’s Office, Office of the Attorney General, Health Care Authority, Department of Health"
115259,95865-19341,95865,FE,17840,GRANT NELSON,Employer,19341,AMERICAN CHEMISTRY COUNCIL,22-Aug,9/20/2022,16094.0,AMERICAN CHEMISTRY COUNCIL,10000.0,0.0,10000.0,0.0,0.0,0.0,0.0,0.0,0.0,0.0,10000.0,19341.0,Direct,,,View report (https://accesshub.pdc.wa.gov/node/95865),,,
115260,95865-19342,95865,FE,17840,GRANT NELSON,Employer,19342,"UNIVERSITY OF PHOENIX, INC.",22-Aug,9/20/2022,16130.0,"UNIVERSITY OF PHOENIX, INC.",4000.0,0.0,4000.0,0.0,0.0,0.0,0.0,0.0,0.0,0.0,4000.0,19342.0,Direct,,,View report (https://accesshub.pdc.wa.gov/node/95865),,,
115261,95865-19343,95865,FE,17840,GRANT NELSON,Employer,19343,"Ash Grove Cement Co., a CRH Company",22-Aug,9/20/2022,16143.0,"Ash Grove Cement Co., a CRH Company",5000.0,0.0,5000.0,0.0,0.0,0.0,0.0,0.0,0.0,0.0,5000.0,19343.0,Direct,,,View report (https://accesshub.pdc.wa.gov/node/95865),,,
115262,95872-37347,95872,FE,25302,Northwest Solutions,Employer,37347,CITY OF WALLA WALLA,22-Aug,9/20/2022,16271.0,CITY OF WALLA WALLA,1750.0,0.0,1750.0,0.0,0.0,0.0,0.0,0.0,0.0,0.0,1750.0,37347.0,Direct,,,View report (https://accesshub.pdc.wa.gov/node/95872),State government,HB 1523,various
115263,95872-80882,95872,FE,25302,Northwest Solutions,Employer,80882,CITY OF OMAK,22-Aug,9/20/2022,16301.0,CITY OF OMAK,1750.0,0.0,1750.0,0.0,0.0,0.0,0.0,0.0,0.0,0.0,1750.0,80882.0,Direct,,,View report (https://accesshub.pdc.wa.gov/node/95872),,,
115264,95865-28412,95865,FE,17840,GRANT NELSON,Employer,28412,INVENERGY,22-Aug,9/20/2022,16546.0,INVENERGY,5000.0,0.0,5000.0,0.0,0.0,0.0,0.0,0.0,0.0,0.0,5000.0,28412.0,Direct,,,View report (https://accesshub.pdc.wa.gov/node/95865),Energy and utilities,Carbon Issues,"House & Senate Members, Governor's Office, UTC, Ecology"
115265,95857-18662,95857,FE,17522,ENGAGE STRATEGIES SPC*,Employer,18662,ISLANDWOOD,22-Apr,9/20/2022,16549.0,ISLANDWOOD,2000.0,0.0,2000.0,0.0,0.0,0.0,0.0,0.0,0.0,0.0,2000.0,18662.0,Direct,,,View report (https://accesshub.pdc.wa.gov/node/95857),Education,Environmental education--Outdoor school,"Ofm, ospi; H Ed; H Approps; Sen Ed; Sen W&M"
115266,95858-18662,95858,FE,17522,ENGAGE STRATEGIES SPC*,Employer,18662,ISLANDWOOD,22-May,9/20/2022,16549.0,ISLANDWOOD,2000.0,0.0,2000.0,0.0,0.0,0.0,0.0,0.0,0.0,0.0,2000.0,18662.0,Direct,,,View report (https://accesshub.pdc.wa.gov/node/95858),Education,Environmental education--Outdoor school,"Ofm, ospi; H Ed; H Approps; Sen Ed; Sen W&M"
115267,95859-18662,95859,FE,17522,ENGAGE STRATEGIES SPC*,Employer,18662,ISLANDWOOD,22-Jun,9/20/2022,16549.0,ISLANDWOOD,2000.0,0.0,2000.0,0.0,0.0,0.0,0.0,0.0,0.0,0.0,2000.0,18662.0,Direct,,,View report (https://accesshub.pdc.wa.gov/node/95859),Education,Environmental education--Outdoor school,"Ofm, ospi; H Ed; H Approps; Sen Ed; Sen W&M"
115268,95860-18662,95860,FE,17522,ENGAGE STRATEGIES SPC*,Employer,18662,ISLANDWOOD,22-Jul,9/20/2022,16549.0,ISLANDWOOD,2000.0,0.0,2000.0,0.0,0.0,0.0,0.0,0.0,0.0,0.0,2000.0,18662.0,Direct,,,View report (https://accesshub.pdc.wa.gov/node/95860),Education,Environmental education--Outdoor school,"Ofm, ospi; H Ed; H Approps; Sen Ed; Sen W&M"
115269,95862-18662,95862,FE,17522,ENGAGE STRATEGIES SPC*,Employer,18662,ISLANDWOOD,22-Aug,9/20/2022,16549.0,ISLANDWOOD,2000.0,0.0,2000.0,0.0,0.0,0.0,0.0,0.0,0.0,0.0,2000.0,18662.0,Direct,,,View report (https://accesshub.pdc.wa.gov/node/95862),Education,Environmental education--Outdoor school,"Ofm, ospi; H Ed; H Approps; Sen Ed; Sen W&M"
115270,95857-55709,95857,FE,17522,ENGAGE STRATEGIES SPC*,Employer,55709,KALISPEL TRIBE,22-Apr,9/20/2022,16570.0,KALISPEL TRIBE,4000.0,0.0,4000.0,0.0,0.0,0.0,0.0,0.0,0.0,0.0,4000.0,55709.0,Direct,,,View report (https://accesshub.pdc.wa.gov/node/95857),Environmental Affairs - natural resources - parks,Energy siting and project permitting,"Ofm, Ecology, Commerce, Env and Energy; EET; H Approps; S Ways and Means"
115271,95858-55709,95858,FE,17522,ENGAGE STRATEGIES SPC*,Employer,55709,KALISPEL TRIBE,22-May,9/20/2022,16570.0,KALISPEL TRIBE,4000.0,0.0,4000.0,0.0,0.0,0.0,0.0,0.0,0.0,0.0,4000.0,55709.0,Direct,,,View report (https://accesshub.pdc.wa.gov/node/95858),Environmental Affairs - natural resources - parks,Energy siting and project permitting,"Ofm, Ecology, Commerce, Env and Energy; EET; H Approps; S Ways and Means"
115272,95859-55709,95859,FE,17522,ENGAGE STRATEGIES SPC*,Employer,55709,KALISPEL TRIBE,22-Jun,9/20/2022,16570.0,KALISPEL TRIBE,4000.0,0.0,4000.0,0.0,0.0,0.0,0.0,0.0,0.0,0.0,4000.0,55709.0,Direct,,,View report (https://accesshub.pdc.wa.gov/node/95859),Environmental Affairs - natural resources - parks,Energy siting and project permitting,"Ofm, Ecology, Commerce, Env and Energy; EET; H Approps; S Ways and Means"
115273,95860-55709,95860,FE,17522,ENGAGE STRATEGIES SPC*,Employer,55709,KALISPEL TRIBE,22-Jul,9/20/2022,16570.0,KALISPEL TRIBE,4000.0,0.0,4000.0,0.0,0.0,0.0,0.0,0.0,0.0,0.0,4000.0,55709.0,Direct,,,View report (https://accesshub.pdc.wa.gov/node/95860),Environmental Affairs - natural resources - parks,Energy siting and project permitting,"Ofm, Ecology, Commerce, Env and Energy; EET; H Approps; S Ways and Means"
115274,95862-55709,95862,FE,17522,ENGAGE STRATEGIES SPC*,Employer,55709,KALISPEL TRIBE,22-Aug,9/20/2022,16570.0,KALISPEL TRIBE,4000.0,0.0,4000.0,0.0,0.0,0.0,0.0,0.0,0.0,0.0,4000.0,55709.0,Direct,,,View report (https://accesshub.pdc.wa.gov/node/95862),Environmental Affairs - natural resources - parks,Energy siting and project permitting,"Ofm, Ecology, Commerce, Env and Energy; EET; H Approps; S Ways and Means"
115275,95857-18663,95857,FE,17522,ENGAGE STRATEGIES SPC*,Employer,18663,LUMMI TRIBE,22-Apr,9/20/2022,16610.0,LUMMI TRIBE,4300.0,0.0,4300.0,0.0,0.0,0.0,0.0,0.0,0.0,0.0,4300.0,18663.0,Direct,,,View report (https://accesshub.pdc.wa.gov/node/95857),Environmental Affairs - natural resources - parks,Salmon Recovery; Water; Natural Resource funding,OFM; WDFW; RDAN; Ag & NR; H Approps; S Ways and Means
115276,95858-18663,95858,FE,17522,ENGAGE STRATEGIES SPC*,Employer,18663,LUMMI TRIBE,22-May,9/20/2022,16610.0,LUMMI TRIBE,4300.0,0.0,4300.0,0.0,0.0,0.0,0.0,0.0,0.0,0.0,4300.0,18663.0,Direct,,,View report (https://accesshub.pdc.wa.gov/node/95858),Environmental Affairs - natural resources - parks,Salmon Recovery; Water; Natural Resource funding,OFM; WDFW; RDAN; Ag & NR; H Approps; S Ways and Means
115277,95859-18663,95859,FE,17522,ENGAGE STRATEGIES SPC*,Employer,18663,LUMMI TRIBE,22-Jun,9/20/2022,16610.0,LUMMI TRIBE,4300.0,0.0,4300.0,0.0,0.0,0.0,0.0,0.0,0.0,0.0,4300.0,18663.0,Direct,,,View report (https://accesshub.pdc.wa.gov/node/95859),Environmental Affairs - natural resources - parks,Salmon Recovery; Water; Natural Resource funding,OFM; WDFW; RDAN; Ag & NR; H Approps; S Ways and Means
115278,95860-18663,95860,FE,17522,ENGAGE STRATEGIES SPC*,Employer,18663,LUMMI TRIBE,22-Jul,9/20/2022,16610.0,LUMMI TRIBE,4300.0,0.0,4300.0,0.0,0.0,0.0,0.0,0.0,0.0,0.0,4300.0,18663.0,Direct,,,View report (https://accesshub.pdc.wa.gov/node/95860),Environmental Affairs - natural resources - parks,Salmon Recovery; Water; Natural Resource funding,OFM; WDFW; RDAN; Ag & NR; H Approps; S Ways and Means
115279,95862-18663,95862,FE,17522,ENGAGE STRATEGIES SPC*,Employer,18663,LUMMI TRIBE,22-Aug,9/20/2022,16610.0,LUMMI TRIBE,4300.0,0.0,4300.0,0.0,0.0,0.0,0.0,0.0,0.0,0.0,4300.0,18663.0,Direct,,,View report (https://accesshub.pdc.wa.gov/node/95862),Environmental Affairs - natural resources - parks,Salmon Recovery; Water; Natural Resource funding,OFM; WDFW; RDAN; Ag & NR; H Approps; S Ways and Means
115280,95872-60682,95872,FE,25302,Northwest Solutions,Employer,60682,NoaNet,22-Aug,9/20/2022,16690.0,NoaNet,6500.0,0.0,6500.0,0.0,0.0,0.0,0.0,0.0,0.0,0.0,6500.0,60682.0,Direct,,,View report (https://accesshub.pdc.wa.gov/node/95872),,,
115281,95857-23615,95857,FE,17522,ENGAGE STRATEGIES SPC*,Employer,23615,NORTHWEST ENERGY COALITION,22-Apr,9/20/2022,16700.0,NORTHWEST ENERGY COALITION,1666.67,0.0,1666.67,0.0,0.0,0.0,0.0,0.0,0.0,0.0,1666.67,23615.0,Direct,,,View report (https://accesshub.pdc.wa.gov/node/95857),Energy and utilities,Energy Policy; Efficiency funding,"Ofm, Commerce, Env and Energy; EET"
115282,95858-23615,95858,FE,17522,ENGAGE STRATEGIES SPC*,Employer,23615,NORTHWEST ENERGY COALITION,22-May,9/20/2022,16700.0,NORTHWEST ENERGY COALITION,1666.67,0.0,1666.67,0.0,0.0,0.0,0.0,0.0,0.0,0.0,1666.67,23615.0,Direct,,,View report (https://accesshub.pdc.wa.gov/node/95858),Energy and utilities,Energy Policy; Efficiency funding,"Ofm, Commerce, Env and Energy; EET"
115283,95859-23615,95859,FE,17522,ENGAGE STRATEGIES SPC*,Employer,23615,NORTHWEST ENERGY COALITION,22-Jun,9/20/2022,16700.0,NORTHWEST ENERGY COALITION,1666.67,0.0,1666.67,0.0,0.0,0.0,0.0,0.0,0.0,0.0,1666.67,23615.0,Direct,,,View report (https://accesshub.pdc.wa.gov/node/95859),Energy and utilities,Energy Policy; Efficiency funding,"Ofm, Commerce, Env and Energy; EET"
115284,95860-23615,95860,FE,17522,ENGAGE STRATEGIES SPC*,Employer,23615,NORTHWEST ENERGY COALITION,22-Jul,9/20/2022,16700.0,NORTHWEST ENERGY COALITION,1667.0,0.0,1667.0,0.0,0.0,0.0,0.0,0.0,0.0,0.0,1667.0,23615.0,Direct,,,View report (https://accesshub.pdc.wa.gov/node/95860),Energy and utilities,Energy Policy; Efficiency funding,"Ofm, Commerce, Env and Energy; EET"
115285,95862-23615,95862,FE,17522,ENGAGE STRATEGIES SPC*,Employer,23615,NORTHWEST ENERGY COALITION,22-Aug,9/20/2022,16700.0,NORTHWEST ENERGY COALITION,1667.0,0.0,1667.0,0.0,0.0,0.0,0.0,0.0,0.0,0.0,1667.0,23615.0,Direct,,,View report (https://accesshub.pdc.wa.gov/node/95862),Energy and utilities,Energy Policy; Efficiency funding,"Ofm, Commerce, Env and Energy; EET"
115286,95873-45763,95873,FE,27426,Peggen & Mara Political Consulting LLP,Employer,45763,STILLAGUAMISH TRIBE OF INDIANS,22-Aug,9/20/2022,16955.0,STILLAGUAMISH TRIBE OF INDIANS,7500.0,0.0,7500.0,0.0,0.0,0.0,0.0,0.0,0.0,0.0,7500.0,45763.0,Direct,,,View report (https://accesshub.pdc.wa.gov/node/95873),Fiscal,Capital Budget,3/10/21 Rep Goodman re: SB 5051 3/16/21 Sen Pedersen re: SB 5051 3/16/21 Rep Lekanoff re: SB 5051 3/25/21 Rep Steele re: capital budget 3/29/21 Rep Tharinger re: SB 5051 3/29/21 Rep Calider re: SB 5051
115287,95865-39806,95865,FE,17840,GRANT NELSON,Employer,39806,WA PUBLIC UTILITIES DISTS ASSN,22-Aug,9/20/2022,17176.0,WA PUBLIC UTILITIES DISTS ASSN,4000.0,0.0,4000.0,0.0,0.0,0.0,0.0,0.0,0.0,0.0,4000.0,39806.0,Direct,,,View report (https://accesshub.pdc.wa.gov/node/95865),,,
115288,95865-19350,95865,FE,17840,GRANT NELSON,Employer,19350,WA RURAL ELECTRIC CO-OP ASSN,22-Aug,9/20/2022,17181.0,WA RURAL ELECTRIC CO-OP ASSN,4000.0,0.0,4000.0,0.0,0.0,0.0,0.0,0.0,0.0,0.0,4000.0,19350.0,Direct,,,View report (https://accesshub.pdc.wa.gov/node/95865),,,
115289,95857-44980,95857,FE,17522,ENGAGE STRATEGIES SPC*,Employer,44980,WA State Community Action Partnership,22-Apr,9/20/2022,17226.0,WA State Community Action Partnership,3000.0,0.0,3000.0,0.0,0.0,0.0,0.0,0.0,0.0,0.0,3000.0,44980.0,Direct,,,View report (https://accesshub.pdc.wa.gov/node/95857),Human services,Budget,OFM; Commerce; DSHS; H Approps; S Ways and Means
115290,95858-44980,95858,FE,17522,ENGAGE STRATEGIES SPC*,Employer,44980,WA State Community Action Partnership,22-May,9/20/2022,17226.0,WA State Community Action Partnership,3000.0,0.0,3000.0,0.0,0.0,0.0,0.0,0.0,0.0,0.0,3000.0,44980.0,Direct,,,View report (https://accesshub.pdc.wa.gov/node/95858),Human services,Budget,OFM; Commerce; DSHS; H Approps; S Ways and Means
115291,95859-44980,95859,FE,17522,ENGAGE STRATEGIES SPC*,Employer,44980,WA State Community Action Partnership,22-Jun,9/20/2022,17226.0,WA State Community Action Partnership,3000.0,0.0,3000.0,0.0,0.0,0.0,0.0,0.0,0.0,0.0,3000.0,44980.0,Direct,,,View report (https://accesshub.pdc.wa.gov/node/95859),Human services,Budget,OFM; Commerce; DSHS; H Approps; S Ways and Means
115292,95860-44980,95860,FE,17522,ENGAGE STRATEGIES SPC*,Employer,44980,WA State Community Action Partnership,22-Jul,9/20/2022,17226.0,WA State Community Action Partnership,3000.0,0.0,3000.0,0.0,0.0,0.0,0.0,0.0,0.0,0.0,3000.0,44980.0,Direct,,,View report (https://accesshub.pdc.wa.gov/node/95860),Human services,Budget,OFM; Commerce; DSHS; H Approps; S Ways and Means
115293,95862-44980,95862,FE,17522,ENGAGE STRATEGIES SPC*,Employer,44980,WA State Community Action Partnership,22-Aug,9/20/2022,17226.0,WA State Community Action Partnership,3000.0,0.0,3000.0,0.0,0.0,0.0,0.0,0.0,0.0,0.0,3000.0,44980.0,Direct,,,View report (https://accesshub.pdc.wa.gov/node/95862),Human services,Budget,OFM; Commerce; DSHS; H Approps; S Ways and Means
115294,95865-19351,95865,FE,17840,GRANT NELSON,Employer,19351,WA ST MOTORSPORT DEALERS ASSN,22-Aug,9/20/2022,17262.0,WA ST MOTORSPORT DEALERS ASSN,1000.0,0.0,1000.0,0.0,0.0,0.0,0.0,0.0,0.0,0.0,1000.0,19351.0,Direct,,,View report (https://accesshub.pdc.wa.gov/node/95865),,,
115295,95873-27427,95873,FE,27426,Peggen & Mara Political Consulting LLP,Employer,27427,Hoh Tribe,22-Aug,9/20/2022,27425.0,Hoh Tribe,3500.0,0.0,3500.0,0.0,0.0,0.0,0.0,0.0,0.0,0.0,3500.0,27427.0,Direct,,,View report (https://accesshub.pdc.wa.gov/node/95873),,,
115296,95857-49833,95857,FE,17522,ENGAGE STRATEGIES SPC*,Employer,49833,Sightline Institute,22-Apr,9/20/2022,37788.0,Sightline Institute,2500.0,0.0,2500.0,0.0,0.0,0.0,0.0,0.0,0.0,0.0,2500.0,49833.0,Direct,,,View report (https://accesshub.pdc.wa.gov/node/95857),Local government,"Zoning, ADU's; Missing middle","Ofm; Local Government, Housing and Local Government"
115297,95858-49833,95858,FE,17522,ENGAGE STRATEGIES SPC*,Employer,49833,Sightline Institute,22-May,9/20/2022,37788.0,Sightline Institute,2500.0,0.0,2500.0,0.0,0.0,0.0,0.0,0.0,0.0,0.0,2500.0,49833.0,Direct,,,View report (https://accesshub.pdc.wa.gov/node/95858),Local government,"Zoning, ADU's; Missing middle","Ofm; Local Government, Housing and Local Government"
115298,95859-49833,95859,FE,17522,ENGAGE STRATEGIES SPC*,Employer,49833,Sightline Institute,22-Jun,9/20/2022,37788.0,Sightline Institute,2500.0,0.0,2500.0,0.0,0.0,0.0,0.0,0.0,0.0,0.0,2500.0,49833.0,Direct,,,View report (https://accesshub.pdc.wa.gov/node/95859),Local government,"Zoning, ADU's; Missing middle","Ofm; Local Government, Housing and Local Government"
115299,95860-49833,95860,FE,17522,ENGAGE STRATEGIES SPC*,Employer,49833,Sightline Institute,22-Jul,9/20/2022,37788.0,Sightline Institute,2500.0,0.0,2500.0,0.0,0.0,0.0,0.0,0.0,0.0,0.0,2500.0,49833.0,Direct,,,View report (https://accesshub.pdc.wa.gov/node/95860),Local government,"Zoning, ADU's; Missing middle","Ofm; Local Government, Housing and Local Government"
115300,95862-49833,95862,FE,17522,ENGAGE STRATEGIES SPC*,Employer,49833,Sightline Institute,22-Aug,9/20/2022,37788.0,Sightline Institute,2500.0,0.0,2500.0,0.0,0.0,0.0,0.0,0.0,0.0,0.0,2500.0,49833.0,Direct,,,View report (https://accesshub.pdc.wa.gov/node/95862),Local government,"Zoning, ADU's; Missing middle","Ofm; Local Government, Housing and Local Government"
115301,95873-48623,95873,FE,27426,Peggen & Mara Political Consulting LLP,Employer,48623,EDELSON PC,22-Aug,9/20/2022,48622.0,EDELSON PC,5833.0,0.0,5833.0,0.0,0.0,0.0,0.0,0.0,0.0,0.0,5833.0,48623.0,Direct,,,View report (https://accesshub.pdc.wa.gov/node/95873),State government,3/11/21 Rep Kloba re: operating budget 3/12/21 Sen Stanford re: operating budget,3/11/21 Rep Kloba re: operating budget 3/12/21 Sen Stanford re: operating budget
115302,95873-63574,95873,FE,27426,Peggen & Mara Political Consulting LLP,Employer,63574,Nez Perce Tribe,22-Aug,9/20/2022,63272.0,Nez Perce Tribe,3500.0,0.0,3500.0,0.0,0.0,0.0,0.0,0.0,0.0,0.0,3500.0,63574.0,Direct,,,View report (https://accesshub.pdc.wa.gov/node/95873),,,
115303,95857-65305,95857,FE,17522,ENGAGE STRATEGIES SPC*,Employer,65305,Washington Outdoor School Consortium on behalf Wa School Principals Education Foundation,22-Apr,9/20/2022,65012.0,Washington Outdoor School Consortium on behalf Wa School Principals Education Foundation,1000.0,0.0,1000.0,0.0,0.0,0.0,0.0,0.0,0.0,0.0,1000.0,65305.0,Direct,,,View report (https://accesshub.pdc.wa.gov/node/95857),Education,Budget,Ofm; OSPI; House Ed; House Approps; Sen Ed; Sen W&M
115304,95858-65305,95858,FE,17522,ENGAGE STRATEGIES SPC*,Employer,65305,Washington Outdoor School Consortium on behalf Wa School Principals Education Foundation,22-May,9/20/2022,65012.0,Washington Outdoor School Consortium on behalf Wa School Principals Education Foundation,1000.0,0.0,1000.0,0.0,0.0,0.0,0.0,0.0,0.0,0.0,1000.0,65305.0,Direct,,,View report (https://accesshub.pdc.wa.gov/node/95858),Education,Budget,Ofm; OSPI; House Ed; House Approps; Sen Ed; Sen W&M
115305,95859-65305,95859,FE,17522,ENGAGE STRATEGIES SPC*,Employer,65305,Washington Outdoor School Consortium on behalf Wa School Principals Education Foundation,22-Jun,9/20/2022,65012.0,Washington Outdoor School Consortium on behalf Wa School Principals Education Foundation,1000.0,0.0,1000.0,0.0,0.0,0.0,0.0,0.0,0.0,0.0,1000.0,65305.0,Direct,,,View report (https://accesshub.pdc.wa.gov/node/95859),Education,Budget,Ofm; OSPI; House Ed; House Approps; Sen Ed; Sen W&M
115306,95860-65305,95860,FE,17522,ENGAGE STRATEGIES SPC*,Employer,65305,Washington Outdoor School Consortium on behalf Wa School Principals Education Foundation,22-Jul,9/20/2022,65012.0,Washington Outdoor School Consortium on behalf Wa School Principals Education Foundation,1000.0,0.0,1000.0,0.0,0.0,0.0,0.0,0.0,0.0,0.0,1000.0,65305.0,Direct,,,View report (https://accesshub.pdc.wa.gov/node/95860),Education,Budget,Ofm; OSPI; House Ed; House Approps; Sen Ed; Sen W&M
115307,95862-65305,95862,FE,17522,ENGAGE STRATEGIES SPC*,Employer,65305,Washington Outdoor School Consortium on behalf Wa School Principals Education Foundation,22-Aug,9/20/2022,65012.0,Washington Outdoor School Consortium on behalf Wa School Principals Education Foundation,1000.0,0.0,1000.0,0.0,0.0,0.0,0.0,0.0,0.0,0.0,1000.0,65305.0,Direct,,,View report (https://accesshub.pdc.wa.gov/node/95862),Education,Budget,Ofm; OSPI; House Ed; House Approps; Sen Ed; Sen W&M
