,id,report_number,origin,filer_id,filer_name,type,funding_source_id,funding_source_name,filing_period,receipt_date,employer_id,employer_name,compensation,sub_lobbyist_compensation,net_compensation,personal_expenses,entertainment,contributions,advertising,political_ads,other,total_expenses,net_total,employment_registration_id,employment_type,contractor_id,contractor_name,url,legislation_subject_matter,issue_bill_number,committee_lobbied
95000,82134-18902,82134,FE,17597,PIERCE CONSULTING SVCS LLC*,Employer,18902,WA WHOLESALE DRUGGIST ASSN,21-Jul,9/14/2021,17208.0,WA WHOLESALE DRUGGIST ASSN,2750.0,-320.89,2429.11,0.0,0.0,0.0,0.0,0.0,0.0,0.0,2429.11,18902.0,Direct,,,View report (https://accesshub.pdc.wa.gov/node/82134),Health Care,various,various
95001,82913-24517,82913,FE,24516,Juliana Roe,Employer,24517,WA STATE ASSN OF COUNTIES (WSAC),21-Aug,9/14/2021,17215.0,WA STATE ASSN OF COUNTIES (WSAC),212.44,0.0,212.44,0.0,0.0,0.0,0.0,0.0,0.0,0.0,212.44,24517.0,Direct,,,View report (https://accesshub.pdc.wa.gov/node/82913),Law and justice,Various,Various
95002,82912-38416,82912,FE,38415,Jaime Bodden,Employer,38416,WA STATE ASSN OF COUNTIES (WSAC),21-Aug,9/14/2021,17215.0,WA STATE ASSN OF COUNTIES (WSAC),276.45,0.0,276.45,0.0,0.0,0.0,0.0,0.0,0.0,0.0,276.45,38416.0,Direct,,,View report (https://accesshub.pdc.wa.gov/node/82912),Health Care,Various,Various
95003,82928-45168,82928,FE,45167,Paul Jewell,Employer,45168,WA STATE ASSN OF COUNTIES (WSAC),21-Aug,9/14/2021,17215.0,WA STATE ASSN OF COUNTIES (WSAC),1006.43,0.0,1006.43,0.0,0.0,0.0,0.0,0.0,0.0,0.0,1006.43,45168.0,Direct,,,View report (https://accesshub.pdc.wa.gov/node/82928),Environmental Affairs - natural resources - parks,Various,Various
95004,82962-39244,82962,FE,39243,Sanjay Walvekar,Employer,39244,WA ST BAR ASSN,21-Aug,9/14/2021,17220.0,WA ST BAR ASSN,7861.66,0.0,7861.66,0.0,0.0,0.0,0.0,0.0,0.0,0.0,7861.66,39244.0,Direct,,,View report (https://accesshub.pdc.wa.gov/node/82962),Law and justice,Law and Justice related issues,House and Senate committees
95005,82953-39997,82953,FE,39996,Mark Riker,Employer,39997,WA ST BUILDING & CONSTRUCTION TRADES COUNCIL,21-Aug,9/14/2021,17223.0,WA ST BUILDING & CONSTRUCTION TRADES COUNCIL,9180.0,0.0,9180.0,0.0,0.0,0.0,0.0,0.0,0.0,0.0,9180.0,39997.0,Direct,,,View report (https://accesshub.pdc.wa.gov/node/82953),Labor,"Public Safety, Prevailing Wage, Worker Comp, UI, Safety and Health, Transportation Capital Budget, Apprenticeship, Supplement Budget","L&I; ESD; DOT; House Appropriations; Senate Labor and Commerce; House Labor and Workforce Development; Senate and House Transportation; Senate Ways and Means; Senate and House Capital Budget; Children, Youth & Family; Health & Long-Term Care"
95006,82955-73630,82955,FE,73629,Erin Frasier,Employer,73630,WA ST BUILDING & CONSTRUCTION TRADES COUNCIL,21-Aug,9/14/2021,17223.0,WA ST BUILDING & CONSTRUCTION TRADES COUNCIL,6282.0,0.0,6282.0,0.0,0.0,0.0,0.0,0.0,0.0,0.0,6282.0,73630.0,Direct,,,View report (https://accesshub.pdc.wa.gov/node/82955),Labor,"Public Safety, Prevailing Wage, Worker Comp, UI, Safety and Health, Transportation, Capital Budget, Apprenticeship, Supplemental Budget","L&I; ESD; DOT; House Appropriations; Senate Labor and Commerce; House Labor and Workforce Development; Senate and House Transportation; Senate Ways and Means; Senate and House Capital Budget; Children, Youth & Family; Health & Long-Term Care"
95008,82922-19073,82922,FE,17702,BRACKEN R KILLPACK,Employer,19073,WA ST DENTAL ASSN,21-Aug,9/14/2021,17238.0,WA ST DENTAL ASSN,3500.0,0.0,3500.0,0.0,0.0,0.0,0.0,0.0,0.0,0.0,3500.0,19073.0,Direct,,,View report (https://accesshub.pdc.wa.gov/node/82922),Health Care,Dental-related issues,"Heath Committees, Fiscal Committees, Department of Health, and Governor’s Office"
95009,82924-74721,82924,FE,74720,Lauren Johnson,Employer,74721,WA ST DENTAL ASSN,21-Aug,9/14/2021,17238.0,WA ST DENTAL ASSN,1041.0,0.0,1041.0,0.0,0.0,0.0,0.0,0.0,0.0,0.0,1041.0,74721.0,Direct,,,View report (https://accesshub.pdc.wa.gov/node/82924),Health Care,Dental-related issues,"Health Committees, Fiscal Committees, Department of Health, and Governor’s Office"
95011,82942-18653,82942,FE,17520,Emerick & Bloom,Employer,18653,WA ST HOSPICE & PALLIATIVE CARE ORG,21-Jul,9/14/2021,17255.0,WA ST HOSPICE & PALLIATIVE CARE ORG,4000.0,0.0,4000.0,0.0,0.0,0.0,0.0,0.0,0.0,0.0,4000.0,18653.0,Direct,,,View report (https://accesshub.pdc.wa.gov/node/82942),Health Care,Hospice & Palliative Care,DOH
95012,82945-18653,82945,FE,17520,Emerick & Bloom,Employer,18653,WA ST HOSPICE & PALLIATIVE CARE ORG,21-Aug,9/14/2021,17255.0,WA ST HOSPICE & PALLIATIVE CARE ORG,4000.0,0.0,4000.0,0.0,0.0,0.0,0.0,0.0,0.0,0.0,4000.0,18653.0,Direct,,,View report (https://accesshub.pdc.wa.gov/node/82945),Health Care,Hospice & Palliative Care,"DOH, HCA, DSHS"
95013,80210-28160,80210,FE,17398,BOSWELL CONSULTING*,Employer,28160,"WASTE MANAGEMENT OF WASHINGTON, INC.",21-May,9/14/2021,17260.0,"WASTE MANAGEMENT OF WASHINGTON, INC.",5265.0,-1821.43,3443.57,0.0,0.0,0.0,0.0,0.0,0.0,0.0,3443.57,28160.0,Direct,,,View report (https://accesshub.pdc.wa.gov/node/80210),Energy and utilities,various,various
95014,80957-28160,80957,FE,17398,BOSWELL CONSULTING*,Employer,28160,"WASTE MANAGEMENT OF WASHINGTON, INC.",21-Jun,9/14/2021,17260.0,"WASTE MANAGEMENT OF WASHINGTON, INC.",5265.0,-1821.43,3443.57,0.0,0.0,0.0,0.0,0.0,0.0,0.0,3443.57,28160.0,Direct,,,View report (https://accesshub.pdc.wa.gov/node/80957),Energy and utilities,various,various
95015,82089-28160,82089,FE,17398,BOSWELL CONSULTING*,Employer,28160,"WASTE MANAGEMENT OF WASHINGTON, INC.",21-Jul,9/14/2021,17260.0,"WASTE MANAGEMENT OF WASHINGTON, INC.",5265.0,-1821.43,3443.57,0.0,0.0,0.0,0.0,0.0,0.0,0.0,3443.57,28160.0,Direct,,,View report (https://accesshub.pdc.wa.gov/node/82089),Energy and utilities,various,various
95016,80669-48970,80669,FE,48956,Brooke Davies,Employer,48970,"WASTE MANAGEMENT OF WASHINGTON, INC. (BOSWELL CONSULTING*)",21-May,9/14/2021,17260.0,"WASTE MANAGEMENT OF WASHINGTON, INC.",321.43,0.0,321.43,0.0,0.0,0.0,0.0,0.0,0.0,0.0,321.43,48970.0,Subcontract,17398.0,BOSWELL CONSULTING*,View report (https://accesshub.pdc.wa.gov/node/80669),,,
95017,81303-48970,81303,FE,48956,Brooke Davies,Employer,48970,"WASTE MANAGEMENT OF WASHINGTON, INC. (BOSWELL CONSULTING*)",21-Jun,9/14/2021,17260.0,"WASTE MANAGEMENT OF WASHINGTON, INC.",321.43,0.0,321.43,0.0,0.0,0.0,0.0,0.0,0.0,0.0,321.43,48970.0,Subcontract,17398.0,BOSWELL CONSULTING*,View report (https://accesshub.pdc.wa.gov/node/81303),,,
95018,82136-48970,82136,FE,48956,Brooke Davies,Employer,48970,"WASTE MANAGEMENT OF WASHINGTON, INC. (BOSWELL CONSULTING*)",21-Jul,9/14/2021,17260.0,"WASTE MANAGEMENT OF WASHINGTON, INC.",321.43,0.0,321.43,0.0,0.0,0.0,0.0,0.0,0.0,0.0,321.43,48970.0,Subcontract,17398.0,BOSWELL CONSULTING*,View report (https://accesshub.pdc.wa.gov/node/82136),,,
95021,82964-63472,82964,FE,17358,"Public Affairs Consulting, LLC",Employer,63472,WA ST SNOWMOBILE ASSN,21-Aug,9/14/2021,17282.0,WA ST SNOWMOBILE ASSN,1708.33,-575.0,1133.33,0.0,0.0,0.0,0.0,0.0,0.0,0.0,1133.33,63472.0,Direct,,,View report (https://accesshub.pdc.wa.gov/node/82964),Transportation,Snowmobile,H Sen. Transportation
95022,82964-18207,82964,FE,17358,"Public Affairs Consulting, LLC",Employer,18207,WA ST SELF STORAGE ASSN,21-Aug,9/14/2021,17287.0,WA ST SELF STORAGE ASSN,2491.67,-850.0,1641.67,0.0,0.0,0.0,0.0,0.0,0.0,0.0,1641.67,18207.0,Direct,,,View report (https://accesshub.pdc.wa.gov/node/82964),Business and consumer affairs,Real Estate and Business,Lawmakers and Agencies of Government
95023,82946-19597,82946,FE,17956,LARRY B SHANNON,Employer,19597,WA ST ASSN FOR JUSTICE,21-Aug,9/14/2021,17289.0,WA ST ASSN FOR JUSTICE,14000.0,0.0,14000.0,240.34,0.0,0.0,0.0,0.0,0.0,240.34,14240.34,19597.0,Direct,,,View report (https://accesshub.pdc.wa.gov/node/82946),Labor,labor,"Labor, Tribal and Commerce Affairs Committee"
95024,82985-40385,82985,FE,40384,Jessica Spiegel,Employer,40385,Western States Petroleum Assn.,21-Aug,9/14/2021,17302.0,Western States Petroleum Assn.,570.4,0.0,570.4,100.0,0.0,0.0,0.0,0.0,0.0,100.0,670.4,40385.0,Direct,,,View report (https://accesshub.pdc.wa.gov/node/82985),Environmental Affairs - natural resources - parks,air and water quality regulations,Department of Ecology
95025,82982-19766,82982,FE,18027,ROWLAND THOMPSON,Employer,19766,WINE INSTITUTE,21-Aug,9/14/2021,17312.0,WINE INSTITUTE,1750.0,0.0,1750.0,0.0,0.0,0.0,0.0,0.0,0.0,0.0,1750.0,19766.0,Direct,,,View report (https://accesshub.pdc.wa.gov/node/82982),Business and consumer affairs,Wine sales regulation,Commerce committees and Liquor and Cannabis Board
95026,82942-72224,82942,FE,17520,Emerick & Bloom,Employer,72224,Yakima Valley Memorial Hospital Association,21-Jul,9/14/2021,17321.0,Yakima Valley Memorial Hospital Association,2500.0,0.0,2500.0,0.0,0.0,0.0,0.0,0.0,0.0,0.0,2500.0,72224.0,Direct,,,View report (https://accesshub.pdc.wa.gov/node/82942),Health Care,Hospital Issues,DOH
95027,82945-72224,82945,FE,17520,Emerick & Bloom,Employer,72224,Yakima Valley Memorial Hospital Association,21-Aug,9/14/2021,17321.0,Yakima Valley Memorial Hospital Association,2500.0,0.0,2500.0,0.0,0.0,0.0,0.0,0.0,0.0,0.0,2500.0,72224.0,Direct,,,View report (https://accesshub.pdc.wa.gov/node/82945),Health Care,Hospital Issues,DOH
95028,82964-61590,82964,FE,17358,"Public Affairs Consulting, LLC",Employer,61590,YAKIMA VALLEY LANDLORDS ASSN,21-Aug,9/14/2021,17322.0,YAKIMA VALLEY LANDLORDS ASSN,1000.0,-50.0,950.0,0.0,0.0,0.0,0.0,0.0,0.0,0.0,950.0,61590.0,Direct,,,View report (https://accesshub.pdc.wa.gov/node/82964),Business and consumer affairs,Real-Estate,Financial institutions and insurance & Housing
95029,82964-30404,82964,FE,17358,"Public Affairs Consulting, LLC",Employer,30404,"Delivery Express, Inc.",21-Aug,9/14/2021,26676.0,"Delivery Express, Inc.",6500.0,-600.0,5900.0,0.0,0.0,0.0,0.0,0.0,0.0,0.0,5900.0,30404.0,Direct,,,View report (https://accesshub.pdc.wa.gov/node/82964),Business and consumer affairs,SB 5103,"Labor, Commerce & Transportation"
95030,82227-33677,82227,FE,17977,SOUND VIEW STRATEGIES LLC*,Employer,33677,City of Medina,21-Jul,9/14/2021,26873.0,City of Medina,3000.0,-2000.0,1000.0,0.0,0.0,0.0,0.0,0.0,0.0,0.0,1000.0,33677.0,Direct,,,View report (https://accesshub.pdc.wa.gov/node/82227),Transportation,Transportation Issues,DOT
95031,82951-33677,82951,FE,17977,SOUND VIEW STRATEGIES LLC*,Employer,33677,City of Medina,21-Aug,9/14/2021,26873.0,City of Medina,3000.0,-2000.0,1000.0,0.0,0.0,0.0,0.0,0.0,0.0,0.0,1000.0,33677.0,Direct,,,View report (https://accesshub.pdc.wa.gov/node/82951),Transportation,Transportation Issues,DOT
95032,82650-27670,82650,FE,17813,MILLENNIA PUBLIC AFFAIRS INC*,Employer,27670,"Jazz Pharmaceuticals, Inc. and its subsidiaries, including Greenwich Biosciences, Inc.",21-Aug,9/14/2021,27659.0,"Jazz Pharmaceuticals, Inc. and its subsidiaries, including Greenwich Biosciences, Inc.",3500.0,0.0,3500.0,0.0,0.0,0.0,0.0,0.0,0.0,0.0,3500.0,27670.0,Direct,,,View report (https://accesshub.pdc.wa.gov/node/82650),Business and consumer affairs,Business & Consumer Affairs,House Senate All
95033,82649-38890,82649,FE,37395,The Arledge Group,Employer,38890,City of Tumwater,21-Aug,9/14/2021,30066.0,City of Tumwater,2000.0,0.0,2000.0,0.0,0.0,0.0,0.0,0.0,0.0,0.0,2000.0,38890.0,Direct,,,View report (https://accesshub.pdc.wa.gov/node/82649),Fiscal,Fiscal,House Senate All
95034,75205-30933,75205,FE,17597,PIERCE CONSULTING SVCS LLC*,Employer,30933,Washington State Opportunity Scholarship,21-Jan,9/14/2021,30931.0,Washington State Opportunity Scholarship,2000.0,-233.37,1766.63,0.0,0.0,0.0,0.0,0.0,0.0,0.0,1766.63,30933.0,Direct,,,View report (https://accesshub.pdc.wa.gov/node/75205),Higher education,various,various
95035,77345-30933,77345,FE,17597,PIERCE CONSULTING SVCS LLC*,Employer,30933,Washington State Opportunity Scholarship,21-Feb,9/14/2021,30931.0,Washington State Opportunity Scholarship,2000.0,-233.37,1766.63,0.0,0.0,0.0,0.0,0.0,0.0,0.0,1766.63,30933.0,Direct,,,View report (https://accesshub.pdc.wa.gov/node/77345),Higher education,various,various
95036,78555-30933,78555,FE,17597,PIERCE CONSULTING SVCS LLC*,Employer,30933,Washington State Opportunity Scholarship,21-Mar,9/14/2021,30931.0,Washington State Opportunity Scholarship,2000.0,-233.37,1766.63,0.0,0.0,0.0,0.0,0.0,0.0,0.0,1766.63,30933.0,Direct,,,View report (https://accesshub.pdc.wa.gov/node/78555),Higher education,various,various
95037,79496-30933,79496,FE,17597,PIERCE CONSULTING SVCS LLC*,Employer,30933,Washington State Opportunity Scholarship,21-Apr,9/14/2021,30931.0,Washington State Opportunity Scholarship,2000.0,-233.37,1766.63,0.0,0.0,0.0,0.0,0.0,0.0,0.0,1766.63,30933.0,Direct,,,View report (https://accesshub.pdc.wa.gov/node/79496),Higher education,various,various
95038,80216-30933,80216,FE,17597,PIERCE CONSULTING SVCS LLC*,Employer,30933,Washington State Opportunity Scholarship,21-May,9/14/2021,30931.0,Washington State Opportunity Scholarship,2000.0,-233.37,1766.63,0.0,0.0,0.0,0.0,0.0,0.0,0.0,1766.63,30933.0,Direct,,,View report (https://accesshub.pdc.wa.gov/node/80216),Higher education,various,various
95039,80956-30933,80956,FE,17597,PIERCE CONSULTING SVCS LLC*,Employer,30933,Washington State Opportunity Scholarship,21-Jun,9/14/2021,30931.0,Washington State Opportunity Scholarship,2000.0,-233.37,1766.63,0.0,0.0,0.0,0.0,0.0,0.0,0.0,1766.63,30933.0,Direct,,,View report (https://accesshub.pdc.wa.gov/node/80956),Higher education,various,various
95040,82134-30933,82134,FE,17597,PIERCE CONSULTING SVCS LLC*,Employer,30933,Washington State Opportunity Scholarship,21-Jul,9/14/2021,30931.0,Washington State Opportunity Scholarship,2000.0,-233.37,1766.63,0.0,0.0,0.0,0.0,0.0,0.0,0.0,1766.63,30933.0,Direct,,,View report (https://accesshub.pdc.wa.gov/node/82134),Higher education,various,various
95041,80669-49047,80669,FE,48956,Brooke Davies,Employer,49047,Internet Association (CHRISTOPHERSEN INC*),21-May,9/14/2021,31991.0,Internet Association,331.81,0.0,331.81,0.0,0.0,0.0,0.0,0.0,0.0,0.0,331.81,49047.0,Subcontract,17348.0,CHRISTOPHERSEN INC*,View report (https://accesshub.pdc.wa.gov/node/80669),,,
95042,81303-49047,81303,FE,48956,Brooke Davies,Employer,49047,Internet Association (CHRISTOPHERSEN INC*),21-Jun,9/14/2021,31991.0,Internet Association,331.81,0.0,331.81,0.0,0.0,0.0,0.0,0.0,0.0,0.0,331.81,49047.0,Subcontract,17348.0,CHRISTOPHERSEN INC*,View report (https://accesshub.pdc.wa.gov/node/81303),,,
95043,82136-49047,82136,FE,48956,Brooke Davies,Employer,49047,Internet Association (CHRISTOPHERSEN INC*),21-Jul,9/14/2021,31991.0,Internet Association,331.81,0.0,331.81,0.0,0.0,0.0,0.0,0.0,0.0,0.0,331.81,49047.0,Subcontract,17348.0,CHRISTOPHERSEN INC*,View report (https://accesshub.pdc.wa.gov/node/82136),,,
95044,80210-36740,80210,FE,17398,BOSWELL CONSULTING*,Employer,36740,Port of Hood River,21-May,9/14/2021,36737.0,Port of Hood River,5000.0,-321.43,4678.57,0.0,0.0,0.0,0.0,0.0,0.0,0.0,4678.57,36740.0,Direct,,,View report (https://accesshub.pdc.wa.gov/node/80210),Transportation,various,various
95045,80957-36740,80957,FE,17398,BOSWELL CONSULTING*,Employer,36740,Port of Hood River,21-Jun,9/14/2021,36737.0,Port of Hood River,5000.0,-321.43,4678.57,0.0,0.0,0.0,0.0,0.0,0.0,0.0,4678.57,36740.0,Direct,,,View report (https://accesshub.pdc.wa.gov/node/80957),Transportation,various,various
95046,82089-36740,82089,FE,17398,BOSWELL CONSULTING*,Employer,36740,Port of Hood River,21-Jul,9/14/2021,36737.0,Port of Hood River,5500.0,-321.43,5178.57,0.0,0.0,0.0,0.0,0.0,0.0,0.0,5178.57,36740.0,Direct,,,View report (https://accesshub.pdc.wa.gov/node/82089),Transportation,various,various
95047,80669-48965,80669,FE,48956,Brooke Davies,Employer,48965,Port of Hood River (BOSWELL CONSULTING*),21-May,9/14/2021,36737.0,Port of Hood River,321.43,0.0,321.43,0.0,0.0,0.0,0.0,0.0,0.0,0.0,321.43,48965.0,Subcontract,17398.0,BOSWELL CONSULTING*,View report (https://accesshub.pdc.wa.gov/node/80669),,,
95048,81303-48965,81303,FE,48956,Brooke Davies,Employer,48965,Port of Hood River (BOSWELL CONSULTING*),21-Jun,9/14/2021,36737.0,Port of Hood River,321.43,0.0,321.43,0.0,0.0,0.0,0.0,0.0,0.0,0.0,321.43,48965.0,Subcontract,17398.0,BOSWELL CONSULTING*,View report (https://accesshub.pdc.wa.gov/node/81303),,,
95049,82136-48965,82136,FE,48956,Brooke Davies,Employer,48965,Port of Hood River (BOSWELL CONSULTING*),21-Jul,9/14/2021,36737.0,Port of Hood River,321.43,0.0,321.43,0.0,0.0,0.0,0.0,0.0,0.0,0.0,321.43,48965.0,Subcontract,17398.0,BOSWELL CONSULTING*,View report (https://accesshub.pdc.wa.gov/node/82136),,,
95050,82649-42881,82649,FE,37395,The Arledge Group,Employer,42881,Conservation NW,21-Aug,9/14/2021,38071.0,Conservation NW,3500.0,0.0,3500.0,0.0,0.0,0.0,0.0,0.0,0.0,0.0,3500.0,42881.0,Direct,,,View report (https://accesshub.pdc.wa.gov/node/82649),Environmental Affairs - natural resources - parks,Safe Passages,House Senate All
95051,80669-49112,80669,FE,48956,Brooke Davies,Employer,49112,Recompose (CHRISTOPHERSEN INC*),21-May,9/14/2021,38316.0,Recompose,331.81,0.0,331.81,0.0,0.0,0.0,0.0,0.0,0.0,0.0,331.81,49112.0,Subcontract,17348.0,CHRISTOPHERSEN INC*,View report (https://accesshub.pdc.wa.gov/node/80669),,,
95052,81303-49112,81303,FE,48956,Brooke Davies,Employer,49112,Recompose (CHRISTOPHERSEN INC*),21-Jun,9/14/2021,38316.0,Recompose,331.81,0.0,331.81,0.0,0.0,0.0,0.0,0.0,0.0,0.0,331.81,49112.0,Subcontract,17348.0,CHRISTOPHERSEN INC*,View report (https://accesshub.pdc.wa.gov/node/81303),,,
95053,82136-49112,82136,FE,48956,Brooke Davies,Employer,49112,Recompose (CHRISTOPHERSEN INC*),21-Jul,9/14/2021,38316.0,Recompose,331.81,0.0,331.81,0.0,0.0,0.0,0.0,0.0,0.0,0.0,331.81,49112.0,Subcontract,17348.0,CHRISTOPHERSEN INC*,View report (https://accesshub.pdc.wa.gov/node/82136),,,
95054,82964-41062,82964,FE,17358,"Public Affairs Consulting, LLC",Employer,41062,Plumbing-Heating-Cooling Contractors of Washington,21-Aug,9/14/2021,41058.0,Plumbing-Heating-Cooling Contractors of Washington,2500.0,-1930.0,570.0,0.0,0.0,0.0,0.0,0.0,0.0,0.0,570.0,41062.0,Direct,,,View report (https://accesshub.pdc.wa.gov/node/82964),Labor,Plumbing,Lawmakers and Agencies of Government
95055,82967-48198,82967,FE,17455,CLIFFORD TRAISMAN & ASSOC*,Employer,48198,Olympia School District,21-Aug,9/14/2021,41578.0,Olympia School District,1500.0,0.0,1500.0,0.0,0.0,0.0,0.0,0.0,0.0,0.0,1500.0,48198.0,Direct,,,View report (https://accesshub.pdc.wa.gov/node/82967),Education,K-12 Financing,OSPI
95056,80669-67557,80669,FE,48956,Brooke Davies,Employer,67557,"Assurant, Inc. (CHRISTOPHERSEN INC*)",21-May,9/14/2021,44206.0,"Assurant, Inc.",331.81,0.0,331.81,0.0,0.0,0.0,0.0,0.0,0.0,0.0,331.81,67557.0,Subcontract,17348.0,CHRISTOPHERSEN INC*,View report (https://accesshub.pdc.wa.gov/node/80669),,,
95057,81303-67557,81303,FE,48956,Brooke Davies,Employer,67557,"Assurant, Inc. (CHRISTOPHERSEN INC*)",21-Jun,9/14/2021,44206.0,"Assurant, Inc.",331.81,0.0,331.81,0.0,0.0,0.0,0.0,0.0,0.0,0.0,331.81,67557.0,Subcontract,17348.0,CHRISTOPHERSEN INC*,View report (https://accesshub.pdc.wa.gov/node/81303),,,
95058,82136-67557,82136,FE,48956,Brooke Davies,Employer,67557,"Assurant, Inc. (CHRISTOPHERSEN INC*)",21-Jul,9/14/2021,44206.0,"Assurant, Inc.",331.81,0.0,331.81,0.0,0.0,0.0,0.0,0.0,0.0,0.0,331.81,67557.0,Subcontract,17348.0,CHRISTOPHERSEN INC*,View report (https://accesshub.pdc.wa.gov/node/82136),,,
95059,82649-57509,82649,FE,37395,The Arledge Group,Employer,57509,Purpose Dignity Action,21-Aug,9/14/2021,52068.0,Purpose Dignity Action,4240.0,0.0,4240.0,0.0,0.0,0.0,0.0,0.0,0.0,0.0,4240.0,57509.0,Direct,,,View report (https://accesshub.pdc.wa.gov/node/82649),Law and justice,Law & Justice,House Senate All
95060,82904-69404,82904,FE,69402,Bryan Ricker,Employer,69404,Schweitzer Engineering Laboratories,21-Aug,9/14/2021,55691.0,Schweitzer Engineering Laboratories,1000.0,0.0,1000.0,0.0,0.0,0.0,0.0,0.0,0.0,0.0,1000.0,69404.0,Direct,,,View report (https://accesshub.pdc.wa.gov/node/82904),Health Care,Long Term Care,Rep. Joe Schmick
95061,80669-66834,80669,FE,48956,Brooke Davies,Employer,66834,Pasado's Safe Haven,21-May,9/14/2021,56480.0,Pasado's Safe Haven,2500.0,0.0,2500.0,0.0,0.0,0.0,0.0,0.0,0.0,0.0,2500.0,66834.0,Direct,,,View report (https://accesshub.pdc.wa.gov/node/80669),Business and consumer affairs,HB 1424,various
95062,81303-66834,81303,FE,48956,Brooke Davies,Employer,66834,Pasado's Safe Haven,21-Jun,9/14/2021,56480.0,Pasado's Safe Haven,2500.0,0.0,2500.0,0.0,0.0,0.0,0.0,0.0,0.0,0.0,2500.0,66834.0,Direct,,,View report (https://accesshub.pdc.wa.gov/node/81303),Business and consumer affairs,various,various
95063,82136-66834,82136,FE,48956,Brooke Davies,Employer,66834,Pasado's Safe Haven,21-Jul,9/14/2021,56480.0,Pasado's Safe Haven,2500.0,0.0,2500.0,0.0,0.0,0.0,0.0,0.0,0.0,0.0,2500.0,66834.0,Direct,,,View report (https://accesshub.pdc.wa.gov/node/82136),Business and consumer affairs,various,various
95064,80669-59227,80669,FE,48956,Brooke Davies,Employer,59227,Maverick Gaming LLC (Coaxis Public Affairs ),21-May,9/14/2021,58487.0,Maverick Gaming LLC,1500.0,0.0,1500.0,0.0,0.0,0.0,0.0,0.0,0.0,0.0,1500.0,59227.0,Subcontract,58479.0,Coaxis Public Affairs,View report (https://accesshub.pdc.wa.gov/node/80669),,,
95065,81303-59227,81303,FE,48956,Brooke Davies,Employer,59227,Maverick Gaming LLC (Coaxis Public Affairs ),21-Jun,9/14/2021,58487.0,Maverick Gaming LLC,1500.0,0.0,1500.0,0.0,0.0,0.0,0.0,0.0,0.0,0.0,1500.0,59227.0,Subcontract,58479.0,Coaxis Public Affairs,View report (https://accesshub.pdc.wa.gov/node/81303),,,
95066,82136-59227,82136,FE,48956,Brooke Davies,Employer,59227,Maverick Gaming LLC (Coaxis Public Affairs ),21-Jul,9/14/2021,58487.0,Maverick Gaming LLC,1500.0,0.0,1500.0,0.0,0.0,0.0,0.0,0.0,0.0,0.0,1500.0,59227.0,Subcontract,58479.0,Coaxis Public Affairs,View report (https://accesshub.pdc.wa.gov/node/82136),,,
95067,80210-58821,80210,FE,17398,BOSWELL CONSULTING*,Employer,58821,Violet Power,21-May,9/14/2021,58820.0,Violet Power,9000.0,0.0,9000.0,0.0,0.0,0.0,0.0,0.0,0.0,0.0,9000.0,58821.0,Direct,,,View report (https://accesshub.pdc.wa.gov/node/80210),Energy and utilities,various,various
95068,80957-58821,80957,FE,17398,BOSWELL CONSULTING*,Employer,58821,Violet Power,21-Jun,9/14/2021,58820.0,Violet Power,9000.0,0.0,9000.0,100.0,0.0,0.0,0.0,0.0,0.0,100.0,9100.0,58821.0,Direct,,,View report (https://accesshub.pdc.wa.gov/node/80957),Energy and utilities,various,various
95069,82089-58821,82089,FE,17398,BOSWELL CONSULTING*,Employer,58821,Violet Power,21-Jul,9/14/2021,58820.0,Violet Power,9000.0,0.0,9000.0,0.0,0.0,0.0,0.0,0.0,0.0,0.0,9000.0,58821.0,Direct,,,View report (https://accesshub.pdc.wa.gov/node/82089),Energy and utilities,various,various
95070,82967-62216,82967,FE,17455,CLIFFORD TRAISMAN & ASSOC*,Employer,62216,Bellevue School District,21-Aug,9/14/2021,60963.0,Bellevue School District,2000.0,0.0,2000.0,0.0,0.0,0.0,0.0,0.0,0.0,0.0,2000.0,62216.0,Direct,,,View report (https://accesshub.pdc.wa.gov/node/82967),Education,K-12 Financing,OSPI
95071,80669-64515,80669,FE,48956,Brooke Davies,Employer,64515,Justice Action Network (CHRISTOPHERSEN INC*),21-May,9/14/2021,62015.0,Justice Action Network,331.81,0.0,331.81,0.0,0.0,0.0,0.0,0.0,0.0,0.0,331.81,64515.0,Subcontract,17348.0,CHRISTOPHERSEN INC*,View report (https://accesshub.pdc.wa.gov/node/80669),,,
95072,81303-64515,81303,FE,48956,Brooke Davies,Employer,64515,Justice Action Network (CHRISTOPHERSEN INC*),21-Jun,9/14/2021,62015.0,Justice Action Network,331.81,0.0,331.81,0.0,0.0,0.0,0.0,0.0,0.0,0.0,331.81,64515.0,Subcontract,17348.0,CHRISTOPHERSEN INC*,View report (https://accesshub.pdc.wa.gov/node/81303),,,
95073,82136-64515,82136,FE,48956,Brooke Davies,Employer,64515,Justice Action Network (CHRISTOPHERSEN INC*),21-Jul,9/14/2021,62015.0,Justice Action Network,331.81,0.0,331.81,0.0,0.0,0.0,0.0,0.0,0.0,0.0,331.81,64515.0,Subcontract,17348.0,CHRISTOPHERSEN INC*,View report (https://accesshub.pdc.wa.gov/node/82136),,,
95074,82650-62583,82650,FE,17813,MILLENNIA PUBLIC AFFAIRS INC*,Employer,62583,Philips North America,21-Aug,9/14/2021,62582.0,Philips North America,6000.0,0.0,6000.0,0.0,0.0,0.0,0.0,0.0,0.0,0.0,6000.0,62583.0,Direct,,,View report (https://accesshub.pdc.wa.gov/node/82650),Business and consumer affairs,Health Care Business Privacy,All House Senate
95076,80210-67947,80210,FE,17398,BOSWELL CONSULTING*,Employer,67947,Seattle Arena Company,21-May,9/14/2021,67923.0,Seattle Arena Company,6000.0,-321.41,5678.59,0.0,0.0,0.0,0.0,0.0,0.0,0.0,5678.59,67947.0,Direct,,,View report (https://accesshub.pdc.wa.gov/node/80210),Business and consumer affairs,various,various
95077,80957-67947,80957,FE,17398,BOSWELL CONSULTING*,Employer,67947,Seattle Arena Company,21-Jun,9/14/2021,67923.0,Seattle Arena Company,6000.0,-321.41,5678.59,0.0,0.0,0.0,0.0,0.0,0.0,0.0,5678.59,67947.0,Direct,,,View report (https://accesshub.pdc.wa.gov/node/80957),Business and consumer affairs,various,various
95078,82089-67947,82089,FE,17398,BOSWELL CONSULTING*,Employer,67947,Seattle Arena Company,21-Jul,9/14/2021,67923.0,Seattle Arena Company,6000.0,-321.41,5678.59,0.0,0.0,0.0,0.0,0.0,0.0,0.0,5678.59,67947.0,Direct,,,View report (https://accesshub.pdc.wa.gov/node/82089),Business and consumer affairs,various,various
95079,80669-68010,80669,FE,48956,Brooke Davies,Employer,68010,Seattle Arena Company (BOSWELL CONSULTING*),21-May,9/14/2021,67923.0,Seattle Arena Company,321.41,0.0,321.41,0.0,0.0,0.0,0.0,0.0,0.0,0.0,321.41,68010.0,Subcontract,17398.0,BOSWELL CONSULTING*,View report (https://accesshub.pdc.wa.gov/node/80669),,,
95080,81303-68010,81303,FE,48956,Brooke Davies,Employer,68010,Seattle Arena Company (BOSWELL CONSULTING*),21-Jun,9/14/2021,67923.0,Seattle Arena Company,321.41,0.0,321.41,0.0,0.0,0.0,0.0,0.0,0.0,0.0,321.41,68010.0,Subcontract,17398.0,BOSWELL CONSULTING*,View report (https://accesshub.pdc.wa.gov/node/81303),,,
95081,82136-68010,82136,FE,48956,Brooke Davies,Employer,68010,Seattle Arena Company (BOSWELL CONSULTING*),21-Jul,9/14/2021,67923.0,Seattle Arena Company,321.41,0.0,321.41,0.0,0.0,0.0,0.0,0.0,0.0,0.0,321.41,68010.0,Subcontract,17398.0,BOSWELL CONSULTING*,View report (https://accesshub.pdc.wa.gov/node/82136),,,
95082,82649-70887,82649,FE,37395,The Arledge Group,Employer,70887,MedImpact Healthcare Systems Inc. (GANO & ASSOC*),21-Aug,9/14/2021,69358.0,MedImpact Healthcare Systems Inc.,5000.0,0.0,5000.0,0.0,0.0,0.0,0.0,0.0,0.0,0.0,5000.0,70887.0,Subcontract,17565.0,GANO & ASSOC*,View report (https://accesshub.pdc.wa.gov/node/82649),,,
95084,75205-71254,75205,FE,17597,PIERCE CONSULTING SVCS LLC*,Employer,71254,Mary's Place,21-Jan,9/14/2021,71253.0,Mary's Place,1250.0,-1250.0,0.0,0.0,0.0,0.0,0.0,0.0,0.0,0.0,0.0,71254.0,Direct,,,View report (https://accesshub.pdc.wa.gov/node/75205),Human services,various,various
95085,77345-71254,77345,FE,17597,PIERCE CONSULTING SVCS LLC*,Employer,71254,Mary's Place,21-Feb,9/14/2021,71253.0,Mary's Place,1250.0,-1250.0,0.0,0.0,0.0,0.0,0.0,0.0,0.0,0.0,0.0,71254.0,Direct,,,View report (https://accesshub.pdc.wa.gov/node/77345),Human services,various,various
95086,78555-71254,78555,FE,17597,PIERCE CONSULTING SVCS LLC*,Employer,71254,Mary's Place,21-Mar,9/14/2021,71253.0,Mary's Place,1250.0,-1250.0,0.0,0.0,0.0,0.0,0.0,0.0,0.0,0.0,0.0,71254.0,Direct,,,View report (https://accesshub.pdc.wa.gov/node/78555),Human services,various,various
95087,79496-71254,79496,FE,17597,PIERCE CONSULTING SVCS LLC*,Employer,71254,Mary's Place,21-Apr,9/14/2021,71253.0,Mary's Place,1250.0,-1250.0,0.0,0.0,0.0,0.0,0.0,0.0,0.0,0.0,0.0,71254.0,Direct,,,View report (https://accesshub.pdc.wa.gov/node/79496),Human services,various,various
95088,80216-71254,80216,FE,17597,PIERCE CONSULTING SVCS LLC*,Employer,71254,Mary's Place,21-May,9/14/2021,71253.0,Mary's Place,1250.0,-1250.0,0.0,0.0,0.0,0.0,0.0,0.0,0.0,0.0,0.0,71254.0,Direct,,,View report (https://accesshub.pdc.wa.gov/node/80216),Human services,various,various
95089,80956-71254,80956,FE,17597,PIERCE CONSULTING SVCS LLC*,Employer,71254,Mary's Place,21-Jun,9/14/2021,71253.0,Mary's Place,1250.0,-1250.0,0.0,0.0,0.0,0.0,0.0,0.0,0.0,0.0,0.0,71254.0,Direct,,,View report (https://accesshub.pdc.wa.gov/node/80956),Human services,various,various
95090,82134-71254,82134,FE,17597,PIERCE CONSULTING SVCS LLC*,Employer,71254,Mary's Place,21-Jul,9/14/2021,71253.0,Mary's Place,1250.0,-1250.0,0.0,0.0,0.0,0.0,0.0,0.0,0.0,0.0,0.0,71254.0,Direct,,,View report (https://accesshub.pdc.wa.gov/node/82134),Human services,various,various
95091,82949-74075,82949,FE,51634,Kenton Brine,Employer,74075,NW Insurance Council,21-Aug,9/14/2021,74029.0,NW Insurance Council,3500.0,0.0,3500.0,0.0,0.0,0.0,0.0,0.0,0.0,0.0,3500.0,74075.0,Direct,,,View report (https://accesshub.pdc.wa.gov/node/82949),Financial institutions and insurance,Insurance Commissioner's Credit Scoring Rule,Members of House and Senate Insurance Policy Committees
95092,80669-75871,80669,FE,48956,Brooke Davies,Employer,75871,Cleen Tech INC (CHRISTOPHERSEN INC*),21-May,9/14/2021,75698.0,Cleen Tech INC,2000.0,0.0,2000.0,0.0,0.0,0.0,0.0,0.0,0.0,0.0,2000.0,75871.0,Subcontract,17348.0,CHRISTOPHERSEN INC*,View report (https://accesshub.pdc.wa.gov/node/80669),,,
95093,81303-80680,81303,FE,48956,Brooke Davies,Employer,80680,Cleen Tech INC (Coaxis Public Affairs ),21-Jun,9/14/2021,75698.0,Cleen Tech INC,2000.0,0.0,2000.0,0.0,0.0,0.0,0.0,0.0,0.0,0.0,2000.0,80680.0,Subcontract,58479.0,Coaxis Public Affairs,View report (https://accesshub.pdc.wa.gov/node/81303),,,
95094,82136-80680,82136,FE,48956,Brooke Davies,Employer,80680,Cleen Tech INC (Coaxis Public Affairs ),21-Jul,9/14/2021,75698.0,Cleen Tech INC,2000.0,0.0,2000.0,0.0,0.0,0.0,0.0,0.0,0.0,0.0,2000.0,80680.0,Subcontract,58479.0,Coaxis Public Affairs,View report (https://accesshub.pdc.wa.gov/node/82136),,,
95095,82938-77318,82938,FE,77317,John Dillon,Employer,77318,The Home Depot,21-Aug,9/14/2021,77275.0,The Home Depot,734.45,0.0,734.45,675.3,0.0,0.0,0.0,0.0,0.0,675.3,1409.75,77318.0,Direct,,,View report (https://accesshub.pdc.wa.gov/node/82938),Business and consumer affairs,Organized Retail Crime,Legislature
95096,82649-79391,82649,FE,37395,The Arledge Group,Employer,79391,Northwest Regional Council of SMART,21-Aug,9/14/2021,79368.0,Northwest Regional Council of SMART,11422.6,0.0,11422.6,0.0,0.0,0.0,0.0,0.0,0.0,0.0,11422.6,79391.0,Direct,,,View report (https://accesshub.pdc.wa.gov/node/82649),Fiscal,Fiscal,House & Senate All
95097,83029-18494,83029,FE,17465,Coyne Jesernig LLC,Employer,18494,Darigold,21-Aug,9/15/2021,16378.0,Darigold,6000.0,0.0,6000.0,0.0,0.0,0.0,0.0,0.0,0.0,0.0,6000.0,18494.0,Direct,,,View report (https://accesshub.pdc.wa.gov/node/83029),Environmental Affairs - natural resources - parks,Carbon Tax,"H Env, EET"
95098,83104-63014,83104,FE,17433,CARNEY BADLEY SPELLMAN*,Employer,63014,ABBOTT LABORATORIES,21-Aug,9/15/2021,16060.0,ABBOTT LABORATORIES,3333.34,0.0,3333.34,0.0,0.0,0.0,0.0,0.0,0.0,0.0,3333.34,63014.0,Direct,,,View report (https://accesshub.pdc.wa.gov/node/83104),Health Care,"HB 2360, HB 2496 - potentially others",Department of Ecology
95099,82818-18283,82818,FE,17398,BOSWELL CONSULTING*,Employer,18283,AMERICAN INSTITUTE OF ARCHITECTS WA COUNCIL,21-Aug,9/15/2021,16076.0,AMERICAN INSTITUTE OF ARCHITECTS WA COUNCIL,1750.0,-521.43,1228.57,0.0,0.0,0.0,0.0,0.0,0.0,0.0,1228.57,18283.0,Direct,,,View report (https://accesshub.pdc.wa.gov/node/82818),Business and consumer affairs,various,various
95100,82534-48957,82534,FE,48956,Brooke Davies,Employer,48957,AMERICAN INSTITUTE OF ARCHITECTS WA COUNCIL (BOSWELL CONSULTING*),21-Aug,9/15/2021,16076.0,AMERICAN INSTITUTE OF ARCHITECTS WA COUNCIL,321.43,0.0,321.43,0.0,0.0,0.0,0.0,0.0,0.0,0.0,321.43,48957.0,Subcontract,17398.0,BOSWELL CONSULTING*,View report (https://accesshub.pdc.wa.gov/node/82534),,,
95101,83029-18490,83029,FE,17465,Coyne Jesernig LLC,Employer,18490,ALASKA AIRLINES,21-Aug,9/15/2021,16077.0,ALASKA AIRLINES,6000.0,0.0,6000.0,0.0,0.0,0.0,0.0,0.0,0.0,0.0,6000.0,18490.0,Direct,,,View report (https://accesshub.pdc.wa.gov/node/83029),Transportation,Real ID,H & S Transportation
95102,83104-18371,83104,FE,17433,CARNEY BADLEY SPELLMAN*,Employer,18371,ALLSTATE INSURANCE CO,21-Aug,9/15/2021,16085.0,ALLSTATE INSURANCE CO,4500.0,0.0,4500.0,0.0,0.0,0.0,0.0,0.0,0.0,0.0,4500.0,18371.0,Direct,,,View report (https://accesshub.pdc.wa.gov/node/83104),Business and consumer affairs,"Insurance, Taxation, Tort Issues Insurance, Taxation, Tort Issues",Senate FII Cmte; House BFS Cmte; Senate L&J Cmte; House Jud Cmte; Senate W/M Cmte; House Approp. Cmte; Ins. Comm
95103,83020-19305,83020,FE,17819,MJB CONSULTING*,Employer,19305,American Coatings Association,21-Aug,9/15/2021,16092.0,American Coatings Association,2919.66,0.0,2919.66,0.0,0.0,0.0,0.0,0.0,0.0,0.0,2919.66,19305.0,Direct,,,View report (https://accesshub.pdc.wa.gov/node/83020),,,
95104,83086-50723,83086,FE,50721,Enoka Herat,Employer,50723,AMERICAN CIVIL LIBERTIES UNION OF WA,21-Aug,9/15/2021,16097.0,AMERICAN CIVIL LIBERTIES UNION OF WA,205.65,0.0,205.65,0.0,0.0,0.0,0.0,0.0,0.0,0.0,205.65,50723.0,Direct,,,View report (https://accesshub.pdc.wa.gov/node/83086),Law and justice,"Hb 1054, HB 1310","Rep. Goodman, Rep. Johnson"
95105,83104-18372,83104,FE,17433,CARNEY BADLEY SPELLMAN*,Employer,18372,AMERICAN COUNCIL OF LIFE INSURERS,21-Aug,9/15/2021,16098.0,AMERICAN COUNCIL OF LIFE INSURERS,3750.0,0.0,3750.0,0.0,0.0,0.0,0.0,0.0,0.0,0.0,3750.0,18372.0,Direct,,,View report (https://accesshub.pdc.wa.gov/node/83104),Business and consumer affairs,"Life Insurance, Annuitites, Disability Insurance, Long Term Care Insurance",Senate FI ED & T Committee; House CP & B
95106,83140-70151,83140,FE,17935,Nancy Sapiro,Employer,70151,AMERICAN CONGRESS OF OBSTETRICIANS AND GYNECOLOGISTS,21-Aug,9/15/2021,16099.0,AMERICAN CONGRESS OF OBSTETRICIANS AND GYNECOLOGISTS,1500.0,0.0,1500.0,0.0,0.0,0.0,0.0,0.0,0.0,0.0,1500.0,70151.0,Direct,,,View report (https://accesshub.pdc.wa.gov/node/83140),Health Care,Health Care,"Members of House, Senate, DOH"
95107,83104-18373,83104,FE,17433,CARNEY BADLEY SPELLMAN*,Employer,18373,AMERICAN FAMILY MUTUAL INSURANCE,21-Aug,9/15/2021,16103.0,AMERICAN FAMILY MUTUAL INSURANCE,4333.33,0.0,4333.33,0.0,0.0,0.0,0.0,0.0,0.0,0.0,4333.33,18373.0,Direct,,,View report (https://accesshub.pdc.wa.gov/node/83104),Business and consumer affairs,"Insurance, Taxation, Tort Issues",Senate FII Cmte; House BFS Cmte; Senate L&J Cmte; House Jud Cmte; Senate W/M Cmte; House Approp. Cmte; Ins. Comm
95109,81870-19207,81870,FE,17779,MCBRIDE PUBLIC AFFAIRS LLC*,Employer,19207,"Elevance Health, and its Affiliates",21-Aug,9/15/2021,16107.0,"Elevance Health, and its Affiliates",5000.0,0.0,5000.0,0.0,0.0,0.0,0.0,0.0,0.0,0.0,5000.0,19207.0,Direct,,,View report (https://accesshub.pdc.wa.gov/node/81870),Human services,"Medicaid, 1477",HEALTH CARE BUDGET HUMAN SERVICES
95110,83104-18375,83104,FE,17433,CARNEY BADLEY SPELLMAN*,Employer,18375,AMERICAS HEALTH INSURANCE PLANS,21-Aug,9/15/2021,16110.0,AMERICAS HEALTH INSURANCE PLANS,6333.33,0.0,6333.33,0.0,0.0,0.0,0.0,0.0,0.0,0.0,6333.33,18375.0,Direct,,,View report (https://accesshub.pdc.wa.gov/node/83104),Business and consumer affairs,"Health Insurance, Long Term Care Insurance",Senate HC Cmte; House HC&W Cmte; Ins. Comm.
95111,81870-19208,81870,FE,17779,MCBRIDE PUBLIC AFFAIRS LLC*,Employer,19208,AMGEN INC,21-Aug,9/15/2021,16127.0,AMGEN INC,4500.0,0.0,4500.0,0.0,0.0,0.0,0.0,0.0,0.0,0.0,4500.0,19208.0,Direct,,,View report (https://accesshub.pdc.wa.gov/node/81870),Health Care,"Health Care, 4615",HEALTH CARE TECH WAYS & MEANS
95112,83104-18378,83104,FE,17433,CARNEY BADLEY SPELLMAN*,Employer,18378,Architects and Engineers Legislative Council,21-Aug,9/15/2021,16138.0,Architects and Engineers Legislative Council,6963.33,0.0,6963.33,0.0,0.0,0.0,0.0,0.0,0.0,0.0,6963.33,18378.0,Direct,,,View report (https://accesshub.pdc.wa.gov/node/83104),Business and consumer affairs,"Construction, Consumer Affairs, Taxation, Liability, Health Care, Data Issues, Insurance, Financial Services, Transportation, Environmental Regulation","Senate Commerce, Labor & Sports; Senate Energy, Environment & Telecommunications; Senate Financial Institutions & Insurance; Senate Health Care; Senate Human Services"
95113,83104-18379,83104,FE,17433,CARNEY BADLEY SPELLMAN*,Employer,18379,ASSOCIATED BUILDERS & CONTRACTORS (WESTERN WA CHAPTER),21-Aug,9/15/2021,16148.0,ASSOCIATED BUILDERS & CONTRACTORS (WESTERN WA CHAPTER),3333.33,0.0,3333.33,0.0,0.0,0.0,0.0,0.0,0.0,0.0,3333.33,18379.0,Direct,,,View report (https://accesshub.pdc.wa.gov/node/83104),Business and consumer affairs,"Construction, Consumer Affairs, Taxation, Liability, Health Care, Data Issues, Insurance, Financial Services, Transportation, Environmental Regulation, Economic Development","Senate Commerce, Labor & Sports; Senate Energy, Environment & Telecommunications; Senate Financial Institutions & Insurance; Senate Health Care; Senate Human Services"
95114,83104-18380,83104,FE,17433,CARNEY BADLEY SPELLMAN*,Employer,18380,ABC Inland Pacific,21-Aug,9/15/2021,16150.0,ABC Inland Pacific,937.5,0.0,937.5,0.0,0.0,0.0,0.0,0.0,0.0,0.0,937.5,18380.0,Direct,,,View report (https://accesshub.pdc.wa.gov/node/83104),Business and consumer affairs,"Construction, Consumer Affairs, Taxation, Liability, Health Care, Data Issues, Insurance, Financial Services, Transportation, Environmental Regulation, Economic Development","Senate Commerce, Labor & Sports; Senate Energy, Environment & Telecommunications; Senate Financial Institutions & Insurance; Senate Health Care; Senate Human Services"
95115,83104-18381,83104,FE,17433,CARNEY BADLEY SPELLMAN*,Employer,18381,CONSUMER DATA INDUSTRY ASSN,21-Aug,9/15/2021,16151.0,CONSUMER DATA INDUSTRY ASSN,3713.0,0.0,3713.0,0.0,0.0,0.0,0.0,0.0,0.0,0.0,3713.0,18381.0,Direct,,,View report (https://accesshub.pdc.wa.gov/node/83104),Business and consumer affairs,"Construction, Consumer Affairs, Taxation, Liability, Health Care, Data Issues, Insurance, Financial Services, Transportation, Environmental Regulation, Economic Development","Senate Commerce, Labor & Sports; Senate Energy, Environment & Telecommunications; Senate Financial Institutions & Insurance; Senate Health Care; Senate Human Services"
95116,83104-18382,83104,FE,17433,CARNEY BADLEY SPELLMAN*,Employer,18382,ASSN OF DENTAL SUPPORT ORGANIZATIONS,21-Aug,9/15/2021,16153.0,ASSN OF DENTAL SUPPORT ORGANIZATIONS,2500.0,0.0,2500.0,0.0,0.0,0.0,0.0,0.0,0.0,0.0,2500.0,18382.0,Direct,,,View report (https://accesshub.pdc.wa.gov/node/83104),Business and consumer affairs,"Construction, Consumer Affairs, Taxation, Liability, Health Care, Data Issues, Insurance, Financial Services, Transportation, Environmental Regulation","Senate Commerce, Labor & Sports; Senate Energy, Environment & Telecommunications; Senate Financial Institutions & Insurance; Senate Health Care; Senate Human Services"
95117,82998-19617,82998,FE,17964,SCOTT C SIGMON,Employer,19617,WA ST CHAPTER OF ASSOC PUBLIC SAFETY COMMUNICATIONS OFFICIALS,21-Aug,9/15/2021,16158.0,WA ST CHAPTER OF ASSOC PUBLIC SAFETY COMMUNICATIONS OFFICIALS,2250.0,0.0,2250.0,0.0,0.0,0.0,0.0,0.0,0.0,0.0,2250.0,19617.0,Direct,,,View report (https://accesshub.pdc.wa.gov/node/82998),Local government,E-911,Military Department
95118,82534-49044,82534,FE,48956,Brooke Davies,Employer,49044,ASSN OF WA SPIRITS & WINE DISTRIBUTORS (CHRISTOPHERSEN INC*),21-Aug,9/15/2021,16172.0,ASSN OF WA SPIRITS & WINE DISTRIBUTORS,331.81,0.0,331.81,0.0,0.0,0.0,0.0,0.0,0.0,0.0,331.81,49044.0,Subcontract,17348.0,CHRISTOPHERSEN INC*,View report (https://accesshub.pdc.wa.gov/node/82534),,,
95119,83020-19306,83020,FE,17819,MJB CONSULTING*,Employer,19306,"ASTELLAS PHARMA US, INC.",21-Aug,9/15/2021,16174.0,"ASTELLAS PHARMA US, INC.",5000.0,0.0,5000.0,0.0,0.0,0.0,0.0,0.0,0.0,0.0,5000.0,19306.0,Direct,,,View report (https://accesshub.pdc.wa.gov/node/83020),,,
95120,82363-19555,82363,FE,17926,JOHN ROTHLIN,Employer,19555,AVISTA CORP,21-Aug,9/15/2021,16180.0,AVISTA CORP,13002.0,0.0,13002.0,359.72,0.0,1385.0,0.0,0.0,0.0,1744.72,14746.72,19555.0,Direct,,,View report (https://accesshub.pdc.wa.gov/node/82363),Energy and utilities,"CETA, CCA, Building codes, Low carbon fuel standard,","Commerce, UTC, Governor's office, SBCC, Ecology"
95121,83124-18454,83124,FE,17453,Bill Clarke,Employer,18454,BIOTECHNOLOGY INNOVATION ORGANIZATION,21-Aug,9/15/2021,16193.0,BIOTECHNOLOGY INNOVATION ORGANIZATION,5000.0,0.0,5000.0,0.0,0.0,0.0,0.0,0.0,0.0,0.0,5000.0,18454.0,Direct,,,View report (https://accesshub.pdc.wa.gov/node/83124),Health Care,Drug pricing; drug takeback,H. Health Care; S. Health Care
95122,81870-19210,81870,FE,17779,MCBRIDE PUBLIC AFFAIRS LLC*,Employer,19210,BOEING,21-Aug,9/15/2021,16201.0,BOEING,10000.0,0.0,10000.0,0.0,0.0,0.0,0.0,0.0,0.0,0.0,10000.0,19210.0,Direct,,,View report (https://accesshub.pdc.wa.gov/node/81870),Transportation,TRANSPORTATION,TRANSPORTATION LABOR EDUCATION DOR
95123,83073-46152,83073,FE,17443,CHECKERBOARD CONSULTING SERVICES LLC*,Employer,46152,CANNABIS ALLIANCE,21-Sep,9/15/2021,16222.0,CANNABIS ALLIANCE,3000.0,0.0,3000.0,0.0,0.0,0.0,0.0,0.0,0.0,0.0,3000.0,46152.0,Direct,,,View report (https://accesshub.pdc.wa.gov/node/83073),Business and consumer affairs,Cannabis Commission,S Commerce and labor committee
95124,82990-49849,82990,FE,17448,"DONNA CHRISTENSEN, PACIFIC GOVERNMENT AFFAIRS",Employer,49849,Catholic Community Services of Western WA,21-Aug,9/15/2021,16239.0,Catholic Community Services of Western WA,5000.0,0.0,5000.0,0.0,0.0,0.0,0.0,0.0,0.0,0.0,5000.0,49849.0,Direct,,,View report (https://accesshub.pdc.wa.gov/node/82990),Human services,poverty,"Human services, budget committees, Commerce, DSHS, DCYF"
95125,83160-25642,83160,FE,18088,White Tudor LLC,Employer,25642,CENTER FOR DIAGNOSTIC IMAGING,21-Aug,9/15/2021,16242.0,CENTER FOR DIAGNOSTIC IMAGING,2000.0,0.0,2000.0,0.0,0.0,0.0,0.0,0.0,0.0,0.0,2000.0,25642.0,Direct,,,View report (https://accesshub.pdc.wa.gov/node/83160),Health Care,balance billing,"legislature, OIC"
95126,82819-18515,82819,FE,17472,AHNE PLLC*,Employer,18515,CGI TECHNOLOGIES & SOLUTIONS INC,21-Aug,9/15/2021,16250.0,CGI TECHNOLOGIES & SOLUTIONS INC,5000.0,0.0,5000.0,0.0,0.0,0.0,0.0,0.0,0.0,0.0,5000.0,18515.0,Direct,,,View report (https://accesshub.pdc.wa.gov/node/82819),Technology,various,various
95127,82987-18158,82987,FE,17342,DAVID C ARBAUGH,Employer,18158,CHELAN CO PUBLIC UTILITY DIST #1,21-Aug,9/15/2021,16254.0,CHELAN CO PUBLIC UTILITY DIST #1,9950.0,0.0,9950.0,329.71,0.0,0.0,0.0,0.0,0.0,329.71,10279.71,18158.0,Direct,,,View report (https://accesshub.pdc.wa.gov/node/82987),Energy and utilities,Energy and Water,EWE
95128,83104-18383,83104,FE,17433,CARNEY BADLEY SPELLMAN*,Employer,18383,Chevron U.S.A. Inc. and Affiliates,21-Aug,9/15/2021,16255.0,Chevron U.S.A. Inc. and Affiliates,4583.33,0.0,4583.33,0.0,0.0,0.0,0.0,0.0,0.0,0.0,4583.33,18383.0,Direct,,,View report (https://accesshub.pdc.wa.gov/node/83104),Business and consumer affairs,"Construction, Consumer Affairs, Taxation, Liability, Health Care, Data Issues, Insurance, Financial Services, Transportation, Environmental Regulation, Economic Development","Senate Commerce, Labor & Sports; Senate Energy, Environment & Telecommunications; Senate Financial Institutions & Insurance; Senate Health Care; Senate Human Services"
95129,83111-18686,83111,FE,17532,HUGH EWART,Employer,18686,Seattle Children's Hospital,21-Jul,9/15/2021,16259.0,Seattle Children's Hospital,900.0,0.0,900.0,0.0,0.0,0.0,0.0,0.0,0.0,0.0,900.0,18686.0,Direct,,,View report (https://accesshub.pdc.wa.gov/node/83111),Health Care,DCYF Patient Placement Continuum,DCYF
95131,83104-18384,83104,FE,17433,CARNEY BADLEY SPELLMAN*,Employer,18384,CIGNA CORPORATE SERVICES,21-Aug,9/15/2021,16263.0,CIGNA CORPORATE SERVICES,10000.0,0.0,10000.0,0.0,0.0,0.0,0.0,0.0,0.0,0.0,10000.0,18384.0,Direct,,,View report (https://accesshub.pdc.wa.gov/node/83104),Business and consumer affairs,Health Insurance,Senate HC Cmte; House HC&W Cmte; Ins. Comm.
95132,83163-18125,83163,FE,17331,CINDY ALIA,Employer,18125,CIT ALLIANCE FOR PROPERTY RIGHTS,21-Aug,9/15/2021,16266.0,CIT ALLIANCE FOR PROPERTY RIGHTS,1000.0,0.0,1000.0,0.0,0.0,0.0,0.0,0.0,0.0,0.0,1000.0,18125.0,Direct,,,View report (https://accesshub.pdc.wa.gov/node/83163),State government,property rights,"Senators, Representatives"
95133,81870-19211,81870,FE,17779,MCBRIDE PUBLIC AFFAIRS LLC*,Employer,19211,CITY OF BELLINGHAM,21-Aug,9/15/2021,16276.0,CITY OF BELLINGHAM,2500.0,-1666.67,833.33,0.0,0.0,0.0,0.0,0.0,0.0,0.0,833.33,19211.0,Direct,,,View report (https://accesshub.pdc.wa.gov/node/81870),Local government,Economic Development,MTCA BUDGET LOCAL GOVERNMENT TRANSPORTATION
95134,77827-77826,77827,FE,17528,LUKE ESSER,Employer,77826,CITY OF FEDERAL WAY,21-Feb,9/15/2021,16282.0,CITY OF FEDERAL WAY,2500.0,0.0,2500.0,0.0,0.0,0.0,0.0,0.0,0.0,0.0,2500.0,77826.0,Direct,,,View report (https://accesshub.pdc.wa.gov/node/77827),,,
95135,79055-77826,79055,FE,17528,LUKE ESSER,Employer,77826,CITY OF FEDERAL WAY,21-Mar,9/15/2021,16282.0,CITY OF FEDERAL WAY,2500.0,0.0,2500.0,0.0,0.0,0.0,0.0,0.0,0.0,0.0,2500.0,77826.0,Direct,,,View report (https://accesshub.pdc.wa.gov/node/79055),,,
95136,80027-77826,80027,FE,17528,LUKE ESSER,Employer,77826,CITY OF FEDERAL WAY,21-Apr,9/15/2021,16282.0,CITY OF FEDERAL WAY,2500.0,0.0,2500.0,0.0,0.0,0.0,0.0,0.0,0.0,0.0,2500.0,77826.0,Direct,,,View report (https://accesshub.pdc.wa.gov/node/80027),,,
95137,80693-77826,80693,FE,17528,LUKE ESSER,Employer,77826,CITY OF FEDERAL WAY,21-May,9/15/2021,16282.0,CITY OF FEDERAL WAY,2500.0,0.0,2500.0,0.0,0.0,0.0,0.0,0.0,0.0,0.0,2500.0,77826.0,Direct,,,View report (https://accesshub.pdc.wa.gov/node/80693),,,
95138,83021-19390,83021,FE,17870,OUTCOMES BY LEVY LLC*,Employer,19390,CITY OF FIFE,21-Aug,9/15/2021,16283.0,CITY OF FIFE,4000.0,0.0,4000.0,0.0,0.0,0.0,0.0,0.0,0.0,0.0,4000.0,19390.0,Direct,,,View report (https://accesshub.pdc.wa.gov/node/83021),,,
95139,81870-19212,81870,FE,17779,MCBRIDE PUBLIC AFFAIRS LLC*,Employer,19212,CITY OF KENNEWICK,21-Aug,9/15/2021,16290.0,CITY OF KENNEWICK,4120.0,-2746.66,1373.34,0.0,0.0,0.0,0.0,0.0,0.0,0.0,1373.34,19212.0,Direct,,,View report (https://accesshub.pdc.wa.gov/node/81870),,,
95140,83021-19393,83021,FE,17870,OUTCOMES BY LEVY LLC*,Employer,19393,CITY OF LAKE STEVENS,21-Aug,9/15/2021,16297.0,CITY OF LAKE STEVENS,4800.0,0.0,4800.0,0.0,0.0,0.0,0.0,0.0,0.0,0.0,4800.0,19393.0,Direct,,,View report (https://accesshub.pdc.wa.gov/node/83021),Local government,Public Safety,"8/11 Meeting with Rep. John Lovick to ask about sponsoring ""doxing"" bill in 2022"
95141,77827-49717,77827,FE,17528,LUKE ESSER,Employer,49717,CITY OF PUYALLUP,21-Feb,9/15/2021,16302.0,CITY OF PUYALLUP,2500.0,0.0,2500.0,0.0,0.0,0.0,0.0,0.0,0.0,0.0,2500.0,49717.0,Direct,,,View report (https://accesshub.pdc.wa.gov/node/77827),Environmental Affairs - natural resources - parks,Parks,Senate Ways & Means; House Capital Budget
95142,79055-49717,79055,FE,17528,LUKE ESSER,Employer,49717,CITY OF PUYALLUP,21-Mar,9/15/2021,16302.0,CITY OF PUYALLUP,2500.0,0.0,2500.0,0.0,0.0,0.0,0.0,0.0,0.0,0.0,2500.0,49717.0,Direct,,,View report (https://accesshub.pdc.wa.gov/node/79055),Environmental Affairs - natural resources - parks,Parks,Senate Ways & Means; House Capital Budget
95143,80027-49717,80027,FE,17528,LUKE ESSER,Employer,49717,CITY OF PUYALLUP,21-Apr,9/15/2021,16302.0,CITY OF PUYALLUP,2500.0,0.0,2500.0,0.0,0.0,0.0,0.0,0.0,0.0,0.0,2500.0,49717.0,Direct,,,View report (https://accesshub.pdc.wa.gov/node/80027),Environmental Affairs - natural resources - parks,Parks,Senate Ways & Means; House Capital Budget
95144,83021-19395,83021,FE,17870,OUTCOMES BY LEVY LLC*,Employer,19395,CITY OF RENTON,21-Aug,9/15/2021,16306.0,CITY OF RENTON,13000.0,0.0,13000.0,7.68,0.0,0.0,0.0,0.0,0.0,7.68,13007.68,19395.0,Direct,,,View report (https://accesshub.pdc.wa.gov/node/83021),,,
95145,82987-18159,82987,FE,17342,DAVID C ARBAUGH,Employer,18159,CITY OF RICHLAND,21-Aug,9/15/2021,16308.0,CITY OF RICHLAND,3000.0,0.0,3000.0,0.0,0.0,0.0,0.0,0.0,0.0,0.0,3000.0,18159.0,Direct,,,View report (https://accesshub.pdc.wa.gov/node/82987),Local government,Local Government,Government Operations Local
95146,83140-70415,83140,FE,17935,Nancy Sapiro,Employer,70415,CITY OF SEATTLE,21-Aug,9/15/2021,16311.0,CITY OF SEATTLE,5200.0,0.0,5200.0,0.0,0.0,0.0,0.0,0.0,0.0,0.0,5200.0,70415.0,Direct,,,View report (https://accesshub.pdc.wa.gov/node/83140),Local government,Local Government,Members House and Senate
95147,77827-26311,77827,FE,17528,LUKE ESSER,Employer,26311,CITY OF SPOKANE,21-Feb,9/15/2021,16314.0,CITY OF SPOKANE,3500.0,0.0,3500.0,0.0,0.0,0.0,0.0,0.0,0.0,0.0,3500.0,26311.0,Direct,,,View report (https://accesshub.pdc.wa.gov/node/77827),Environmental Affairs - natural resources - parks,Parks,Senate Ways & Means; House Capital Budget
95148,79055-26311,79055,FE,17528,LUKE ESSER,Employer,26311,CITY OF SPOKANE,21-Mar,9/15/2021,16314.0,CITY OF SPOKANE,3500.0,0.0,3500.0,0.0,0.0,0.0,0.0,0.0,0.0,0.0,3500.0,26311.0,Direct,,,View report (https://accesshub.pdc.wa.gov/node/79055),Environmental Affairs - natural resources - parks,Parks,Senate Ways & Means; House Capital Budget
95149,80027-26311,80027,FE,17528,LUKE ESSER,Employer,26311,CITY OF SPOKANE,21-Apr,9/15/2021,16314.0,CITY OF SPOKANE,3500.0,0.0,3500.0,0.0,0.0,0.0,0.0,0.0,0.0,0.0,3500.0,26311.0,Direct,,,View report (https://accesshub.pdc.wa.gov/node/80027),Environmental Affairs - natural resources - parks,Parks,Senate Ways & Means; House Capital Budget
95150,80693-26311,80693,FE,17528,LUKE ESSER,Employer,26311,CITY OF SPOKANE,21-May,9/15/2021,16314.0,CITY OF SPOKANE,3500.0,0.0,3500.0,0.0,0.0,0.0,0.0,0.0,0.0,0.0,3500.0,26311.0,Direct,,,View report (https://accesshub.pdc.wa.gov/node/80693),Environmental Affairs - natural resources - parks,Parks,Senate Ways & Means; House Capital Budget
95151,83124-47868,83124,FE,17453,Bill Clarke,Employer,47868,CITY OF SUMNER,21-Aug,9/15/2021,16315.0,CITY OF SUMNER,5000.0,0.0,5000.0,0.0,0.0,0.0,0.0,0.0,0.0,0.0,5000.0,47868.0,Direct,,,View report (https://accesshub.pdc.wa.gov/node/83124),Fiscal,Capital Project Funding,House Capital Budget; Senate Ways & Means
95152,77827-46997,77827,FE,17528,LUKE ESSER,Employer,46997,CITY OF YAKIMA,21-Feb,9/15/2021,16321.0,CITY OF YAKIMA,2500.0,0.0,2500.0,0.0,0.0,0.0,0.0,0.0,0.0,0.0,2500.0,46997.0,Direct,,,View report (https://accesshub.pdc.wa.gov/node/77827),Environmental Affairs - natural resources - parks,Parks,Senate Ways & Means; House Capital Budget
95153,79055-46997,79055,FE,17528,LUKE ESSER,Employer,46997,CITY OF YAKIMA,21-Mar,9/15/2021,16321.0,CITY OF YAKIMA,2500.0,0.0,2500.0,0.0,0.0,0.0,0.0,0.0,0.0,0.0,2500.0,46997.0,Direct,,,View report (https://accesshub.pdc.wa.gov/node/79055),Environmental Affairs - natural resources - parks,Parks,Senate Ways & Means; House Capital Budget
95154,80027-46997,80027,FE,17528,LUKE ESSER,Employer,46997,CITY OF YAKIMA,21-Apr,9/15/2021,16321.0,CITY OF YAKIMA,2500.0,0.0,2500.0,0.0,0.0,0.0,0.0,0.0,0.0,0.0,2500.0,46997.0,Direct,,,View report (https://accesshub.pdc.wa.gov/node/80027),Environmental Affairs - natural resources - parks,Parks,Senate Ways & Means; House Capital Budget
95155,80693-46997,80693,FE,17528,LUKE ESSER,Employer,46997,CITY OF YAKIMA,21-May,9/15/2021,16321.0,CITY OF YAKIMA,2500.0,0.0,2500.0,0.0,0.0,0.0,0.0,0.0,0.0,0.0,2500.0,46997.0,Direct,,,View report (https://accesshub.pdc.wa.gov/node/80693),Environmental Affairs - natural resources - parks,Parks,Senate Ways & Means; House Capital Budget
95157,82998-19619,82998,FE,17964,SCOTT C SIGMON,Employer,19619,COASTAL CONSERVATION ASSN WA,21-Aug,9/15/2021,16333.0,COASTAL CONSERVATION ASSN WA,500.0,0.0,500.0,0.0,0.0,0.0,0.0,0.0,0.0,0.0,500.0,19619.0,Direct,,,View report (https://accesshub.pdc.wa.gov/node/82998),Environmental Affairs - natural resources - parks,Columbia River Policy,WDFW
95158,82534-49107,82534,FE,48956,Brooke Davies,Employer,49107,THE COLLEGE BOARD (CHRISTOPHERSEN INC*),21-Aug,9/15/2021,16334.0,THE COLLEGE BOARD,331.81,0.0,331.81,0.0,0.0,0.0,0.0,0.0,0.0,0.0,331.81,49107.0,Subcontract,17348.0,CHRISTOPHERSEN INC*,View report (https://accesshub.pdc.wa.gov/node/82534),,,
95160,83140-23620,83140,FE,17935,Nancy Sapiro,Employer,23620,End of Life Washington,21-Aug,9/15/2021,16352.0,End of Life Washington,2000.0,0.0,2000.0,0.0,0.0,0.0,0.0,0.0,0.0,0.0,2000.0,23620.0,Direct,,,View report (https://accesshub.pdc.wa.gov/node/83140),Health Care,End of Life Care,"Members House and Senate, Office of the Insurance Commissioner"
95161,83124-18455,83124,FE,17453,Bill Clarke,Employer,18455,The Trust for Public Land,21-Aug,9/15/2021,16358.0,The Trust for Public Land,3500.0,0.0,3500.0,0.0,0.0,0.0,0.0,0.0,0.0,0.0,3500.0,18455.0,Direct,,,View report (https://accesshub.pdc.wa.gov/node/83124),Environmental Affairs - natural resources - parks,Parks; recreation; farm/forest preservation,H. Capital Budget; S. Ways & Means; H. Enviro; S. Local Gov; S. Nat. Resources
95162,81870-49669,81870,FE,17779,MCBRIDE PUBLIC AFFAIRS LLC*,Employer,49669,Molson Coors Beverage Company USA LLC,21-Aug,9/15/2021,16366.0,Molson Coors Beverage Company USA LLC,4333.0,0.0,4333.0,0.0,0.0,0.0,0.0,0.0,0.0,0.0,4333.0,49669.0,Direct,,,View report (https://accesshub.pdc.wa.gov/node/81870),Labor,Labor,House Commerce & Gaming AND Senate Labor & Commerce
95164,82534-73882,82534,FE,48956,Brooke Davies,Employer,73882,CRAFT3,21-Aug,9/15/2021,16374.0,CRAFT3,3000.0,0.0,3000.0,0.0,0.0,0.0,0.0,0.0,0.0,0.0,3000.0,73882.0,Direct,,,View report (https://accesshub.pdc.wa.gov/node/82534),,,
95165,81870-19214,81870,FE,17779,MCBRIDE PUBLIC AFFAIRS LLC*,Employer,19214,DART CONTAINER CORP (THROUGH MULTISTATE ASSOCIATES LLC),21-Aug,9/15/2021,16379.0,DART CONTAINER CORP (THROUGH MULTISTATE ASSOCIATES LLC),3500.0,0.0,3500.0,0.0,0.0,0.0,0.0,0.0,0.0,0.0,3500.0,19214.0,Direct,,,View report (https://accesshub.pdc.wa.gov/node/81870),Environmental Affairs - natural resources - parks,"ENVIRONMENT, 5022",ENVIRONMENT LABOR
95166,83005-74331,83005,FE,17992,STEWART GOVERNMENT AFFAIRS,Employer,74331,ELI LILLY & COMPANY,21-Sep,9/15/2021,16410.0,ELI LILLY & COMPANY,6000.0,0.0,6000.0,0.0,0.0,0.0,0.0,0.0,0.0,0.0,6000.0,74331.0,Direct,,,View report (https://accesshub.pdc.wa.gov/node/83005),Health Care,Drug Pricing & Insulin,"House Health Care, Senate Health Care, Ways and Means"
95167,83140-70148,83140,FE,17935,Nancy Sapiro,Employer,70148,CEDAR RIVER CLINICS,21-Aug,9/15/2021,16439.0,CEDAR RIVER CLINICS,400.0,0.0,400.0,0.0,0.0,0.0,0.0,0.0,0.0,0.0,400.0,70148.0,Direct,,,View report (https://accesshub.pdc.wa.gov/node/83140),Health Care,Health Care,Members of Senate and House
95169,83039-82338,83039,FE,47356,Streuli Public Affairs,Employer,82338,Google LLC and its Affiliates,21-Aug,9/15/2021,16475.0,Google LLC and its Affiliates,2500.0,-1250.0,1250.0,0.0,0.0,0.0,0.0,0.0,0.0,0.0,1250.0,82338.0,Direct,,,View report (https://accesshub.pdc.wa.gov/node/83039),Technology,Cloud Technology,Various Legislative Committees and State Agencies
95170,83133-82409,83133,FE,82336,James Lunsford,Employer,82409,Google LLC and its Affiliates (Streuli Public Affairs),21-Aug,9/15/2021,16475.0,Google LLC and its Affiliates,1250.0,0.0,1250.0,0.0,0.0,0.0,0.0,0.0,0.0,0.0,1250.0,82409.0,Subcontract,47356.0,Streuli Public Affairs,View report (https://accesshub.pdc.wa.gov/node/83133),,,
95171,83124-60240,83124,FE,17453,Bill Clarke,Employer,60240,GRANT PUD,21-Aug,9/15/2021,16481.0,GRANT PUD,4250.0,0.0,4250.0,100.0,0.0,0.0,0.0,0.0,0.0,100.0,4350.0,60240.0,Direct,,,View report (https://accesshub.pdc.wa.gov/node/83124),Energy and utilities,Energy,S. Energy & Environment; H. Energy & Environment; S. Ways & Means; H. Finance; S. Local Government; H. Local Government
95172,82818-18285,82818,FE,17398,BOSWELL CONSULTING*,Employer,18285,GREATER SEATTLE CHAMBER OF COMMERCE,21-Aug,9/15/2021,16483.0,GREATER SEATTLE CHAMBER OF COMMERCE,6250.0,-521.43,5728.57,0.0,0.0,0.0,0.0,0.0,0.0,0.0,5728.57,18285.0,Direct,,,View report (https://accesshub.pdc.wa.gov/node/82818),Local government,various,various
95173,82534-48959,82534,FE,48956,Brooke Davies,Employer,48959,GREATER SEATTLE CHAMBER OF COMMERCE (BOSWELL CONSULTING*),21-Aug,9/15/2021,16483.0,GREATER SEATTLE CHAMBER OF COMMERCE,321.43,0.0,321.43,0.0,0.0,0.0,0.0,0.0,0.0,0.0,321.43,48959.0,Subcontract,17398.0,BOSWELL CONSULTING*,View report (https://accesshub.pdc.wa.gov/node/82534),,,
95174,82534-49106,82534,FE,48956,Brooke Davies,Employer,49106,HAMPTON TREE FARMS LLC (CHRISTOPHERSEN INC*),21-Aug,9/15/2021,16490.0,HAMPTON TREE FARMS LLC,331.81,0.0,331.81,0.0,0.0,0.0,0.0,0.0,0.0,0.0,331.81,49106.0,Subcontract,17348.0,CHRISTOPHERSEN INC*,View report (https://accesshub.pdc.wa.gov/node/82534),,,
95175,82435-60444,82435,FE,59659,Orlando Cano Consulting LLC,Employer,60444,ONEAMERICA,21-Aug,9/15/2021,16494.0,ONEAMERICA,4000.0,0.0,4000.0,0.0,0.0,0.0,0.0,0.0,0.0,0.0,4000.0,60444.0,Direct,,,View report (https://accesshub.pdc.wa.gov/node/82435),Fiscal,Legislative,Legislature
95176,81870-19217,81870,FE,17779,MCBRIDE PUBLIC AFFAIRS LLC*,Employer,19217,HONDA NORTH AMERICA (THRU MULTISTATE ASSOCIATES LLC),21-Aug,9/15/2021,16510.0,HONDA NORTH AMERICA (THRU MULTISTATE ASSOCIATES LLC),3500.0,0.0,3500.0,0.0,0.0,0.0,0.0,0.0,0.0,0.0,3500.0,19217.0,Direct,,,View report (https://accesshub.pdc.wa.gov/node/81870),Environmental Affairs - natural resources - parks,"Environmental Affairs, 5000",TRANSPORTATION PUBLIC SAFETY
95178,83113-18996,83113,FE,17659,HOLLY CHISA,Employer,18996,INSTITUTE OF SCRAP RECYCLING PACIFIC NW CHAPTER,21-Aug,9/15/2021,16535.0,INSTITUTE OF SCRAP RECYCLING PACIFIC NW CHAPTER,1666.67,0.0,1666.67,0.0,0.0,0.0,0.0,0.0,0.0,0.0,1666.67,18996.0,Direct,,,View report (https://accesshub.pdc.wa.gov/node/83113),Environmental Affairs - natural resources - parks,All issues,Legislature
95179,82257-25544,82257,FE,17554,DAVID S FOSTER,Employer,25544,INTERCITY TRANSIT,21-Jul,9/15/2021,16542.0,INTERCITY TRANSIT,1750.0,0.0,1750.0,0.0,0.0,0.0,0.0,0.0,0.0,0.0,1750.0,25544.0,Direct,,,View report (https://accesshub.pdc.wa.gov/node/82257),Transportation,Transit,Transportation
95180,82989-25544,82989,FE,17554,DAVID S FOSTER,Employer,25544,INTERCITY TRANSIT,21-Aug,9/15/2021,16542.0,INTERCITY TRANSIT,1750.0,0.0,1750.0,0.0,0.0,0.0,0.0,0.0,0.0,0.0,1750.0,25544.0,Direct,,,View report (https://accesshub.pdc.wa.gov/node/82989),Transportation,Transit,Transportation
95181,83039-49283,83039,FE,47356,Streuli Public Affairs,Employer,49283,IRON WORKERS DIST CNCL OF THE PNW,21-Aug,9/15/2021,16547.0,IRON WORKERS DIST CNCL OF THE PNW,2000.0,0.0,2000.0,0.0,0.0,0.0,0.0,0.0,0.0,0.0,2000.0,49283.0,Direct,,,View report (https://accesshub.pdc.wa.gov/node/83039),Transportation,Building Projects,Various State Agencies and Legislative Committees
95182,83140-19568,83140,FE,17935,Nancy Sapiro,Employer,19568,JEWISH FEDERATION OF GREATER SEATTLE,21-Aug,9/15/2021,16559.0,JEWISH FEDERATION OF GREATER SEATTLE,1000.0,0.0,1000.0,0.0,0.0,0.0,0.0,0.0,0.0,0.0,1000.0,19568.0,Direct,,,View report (https://accesshub.pdc.wa.gov/node/83140),Law and justice,Hate Crimes,Members of House and Senate
95183,77827-18675,77827,FE,17528,LUKE ESSER,Employer,18675,KALISPEL TRIBE,21-Feb,9/15/2021,16570.0,KALISPEL TRIBE,5000.0,0.0,5000.0,0.0,0.0,0.0,0.0,0.0,0.0,0.0,5000.0,18675.0,Direct,,,View report (https://accesshub.pdc.wa.gov/node/77827),Environmental Affairs - natural resources - parks,Natural Resources,"Sen. Natural Resources & Parks; House Environment, Dept. of Commerce; Dept. of Ecology"
95184,79055-18675,79055,FE,17528,LUKE ESSER,Employer,18675,KALISPEL TRIBE,21-Mar,9/15/2021,16570.0,KALISPEL TRIBE,5000.0,0.0,5000.0,0.0,0.0,0.0,0.0,0.0,0.0,0.0,5000.0,18675.0,Direct,,,View report (https://accesshub.pdc.wa.gov/node/79055),Environmental Affairs - natural resources - parks,Natural Resources,"Sen. Natural Resources & Parks; House Environment, Dept. of Commerce; Dept. of Ecology"
95185,80027-18675,80027,FE,17528,LUKE ESSER,Employer,18675,KALISPEL TRIBE,21-Apr,9/15/2021,16570.0,KALISPEL TRIBE,5000.0,0.0,5000.0,0.0,0.0,0.0,0.0,0.0,0.0,0.0,5000.0,18675.0,Direct,,,View report (https://accesshub.pdc.wa.gov/node/80027),Environmental Affairs - natural resources - parks,Natural Resources,"Sen. Natural Resources & Parks; House Environment, Dept. of Commerce; Dept. of Ecology"
95186,80693-18675,80693,FE,17528,LUKE ESSER,Employer,18675,KALISPEL TRIBE,21-May,9/15/2021,16570.0,KALISPEL TRIBE,5000.0,0.0,5000.0,0.0,0.0,0.0,0.0,0.0,0.0,0.0,5000.0,18675.0,Direct,,,View report (https://accesshub.pdc.wa.gov/node/80693),Environmental Affairs - natural resources - parks,Natural Resources,"Sen. Natural Resources & Parks; House Environment, Dept. of Commerce; Dept. of Ecology"
95187,82257-47215,82257,FE,17554,DAVID S FOSTER,Employer,47215,KING CO COUNCIL,21-Jul,9/15/2021,16575.0,KING CO COUNCIL,10450.0,-5225.0,5225.0,0.0,0.0,0.0,0.0,0.0,0.0,0.0,5225.0,47215.0,Direct,,,View report (https://accesshub.pdc.wa.gov/node/82257),Local government,Local Government,"Local Government, Transportation, Appropriations, Ways & Means"
95188,82989-47215,82989,FE,17554,DAVID S FOSTER,Employer,47215,KING CO COUNCIL,21-Aug,9/15/2021,16575.0,KING CO COUNCIL,10450.0,-5225.0,5225.0,0.0,0.0,0.0,0.0,0.0,0.0,0.0,5225.0,47215.0,Direct,,,View report (https://accesshub.pdc.wa.gov/node/82989),Local government,Local Government,"Local Gov, Approps, W&M, Transportation"
95189,81870-19218,81870,FE,17779,MCBRIDE PUBLIC AFFAIRS LLC*,Employer,19218,KITSAP CO,21-Aug,9/15/2021,16580.0,KITSAP CO,5500.0,0.0,5500.0,0.0,0.0,0.0,0.0,0.0,0.0,0.0,5500.0,19218.0,Direct,,,View report (https://accesshub.pdc.wa.gov/node/81870),Local government,"Local Government, 5287",REVENUE LOCAL GOV TRANSPORTATION
95190,83124-18456,83124,FE,17453,Bill Clarke,Employer,18456,KITTITAS CO BOARD OF COMMISSIONERS,21-Aug,9/15/2021,16582.0,KITTITAS CO BOARD OF COMMISSIONERS,4500.0,0.0,4500.0,0.0,0.0,0.0,0.0,0.0,0.0,0.0,4500.0,18456.0,Direct,,,View report (https://accesshub.pdc.wa.gov/node/83124),,,
95191,83029-18495,83029,FE,17465,Coyne Jesernig LLC,Employer,18495,KOCH CO PUBLIC SECTOR LLC & AFFILIATES,21-Aug,9/15/2021,16585.0,KOCH CO PUBLIC SECTOR LLC & AFFILIATES,5000.0,0.0,5000.0,0.0,0.0,0.0,0.0,0.0,0.0,0.0,5000.0,18495.0,Direct,,,View report (https://accesshub.pdc.wa.gov/node/83029),,,
95192,82998-19623,82998,FE,17964,SCOTT C SIGMON,Employer,19623,LEADINGAGE WA,21-Aug,9/15/2021,16588.0,LEADINGAGE WA,9000.0,0.0,9000.0,0.0,0.0,0.0,0.0,0.0,0.0,0.0,9000.0,19623.0,Direct,,,View report (https://accesshub.pdc.wa.gov/node/82998),Health Care,Long Term Care Funding,DSHS
95193,83104-18388,83104,FE,17433,CARNEY BADLEY SPELLMAN*,Employer,18388,LIABILITY REFORM COALITION,21-Aug,9/15/2021,16603.0,LIABILITY REFORM COALITION,4166.67,0.0,4166.67,0.0,0.0,0.0,0.0,0.0,0.0,0.0,4166.67,18388.0,Direct,,,View report (https://accesshub.pdc.wa.gov/node/83104),Business and consumer affairs,"Construction, Consumer Affairs, Taxation, Liability, Health Care, Data Issues, Insurance, Financial Services, Transportation, Environmental Regulation, Economic Development","Senate Commerce, Labor & Sports; Senate Energy, Environment & Telecommunications; Senate Financial Institutions & Insurance; Senate Health Care; Senate Human Services"
95194,83060-53719,83060,FE,29086,Melanie Thurlow,Employer,53719,LIBERTY MUTUAL INSURANCE,21-Aug,9/15/2021,16604.0,LIBERTY MUTUAL INSURANCE,3000.0,0.0,3000.0,0.0,0.0,0.0,0.0,0.0,0.0,0.0,3000.0,53719.0,Direct,,,View report (https://accesshub.pdc.wa.gov/node/83060),Financial institutions and insurance,COVID19 Emergency Orders,Office of Insurance Commissioner
95195,81870-19219,81870,FE,17779,MCBRIDE PUBLIC AFFAIRS LLC*,Employer,19219,McDonalds Corporation,21-Aug,9/15/2021,16625.0,McDonalds Corporation,3333.33,0.0,3333.33,0.0,0.0,0.0,0.0,0.0,0.0,0.0,3333.33,19219.0,Direct,,,View report (https://accesshub.pdc.wa.gov/node/81870),Business and consumer affairs,COMMERCE,LABOR COMMERCE AND LABOR
95196,83035-31249,83035,FE,31246,Scott Middleton,Employer,31249,MECHANICAL CONTRACTORS ASSN WESTERN WA,21-Aug,9/15/2021,16629.0,MECHANICAL CONTRACTORS ASSN WESTERN WA,2500.0,0.0,2500.0,0.0,0.0,0.0,0.0,0.0,0.0,0.0,2500.0,31249.0,Direct,,,View report (https://accesshub.pdc.wa.gov/node/83035),Labor,Long Term Care,All members of legislature
95197,82534-49110,82534,FE,48956,Brooke Davies,Employer,49110,MERCK SHARP & DOHME LLC & AFFILIATES (CHRISTOPHERSEN INC*),21-Aug,9/15/2021,16632.0,MERCK SHARP & DOHME LLC & AFFILIATES,331.81,0.0,331.81,0.0,0.0,0.0,0.0,0.0,0.0,0.0,331.81,49110.0,Subcontract,17348.0,CHRISTOPHERSEN INC*,View report (https://accesshub.pdc.wa.gov/node/82534),,,
95198,83132-63047,83132,FE,17537,KRISTEN FEDERICI,Employer,63047,Molina Healthcare Inc,21-Apr,9/15/2021,16641.0,Molina Healthcare Inc,1428.0,0.0,1428.0,0.0,0.0,0.0,0.0,0.0,0.0,0.0,1428.0,63047.0,Direct,,,View report (https://accesshub.pdc.wa.gov/node/83132),Health Care,Medicaid,"Health Care, Appropriations, Ways and Means"
95199,83136-63047,83136,FE,17537,KRISTEN FEDERICI,Employer,63047,Molina Healthcare Inc,21-May,9/15/2021,16641.0,Molina Healthcare Inc,504.0,0.0,504.0,0.0,0.0,0.0,0.0,0.0,0.0,0.0,504.0,63047.0,Direct,,,View report (https://accesshub.pdc.wa.gov/node/83136),Health Care,Medicaid,"Health Care, Appropriations, Ways and Means"
95200,83138-63047,83138,FE,17537,KRISTEN FEDERICI,Employer,63047,Molina Healthcare Inc,21-Jun,9/15/2021,16641.0,Molina Healthcare Inc,1344.0,0.0,1344.0,0.0,0.0,0.0,0.0,0.0,0.0,0.0,1344.0,63047.0,Direct,,,View report (https://accesshub.pdc.wa.gov/node/83138),Health Care,Medicaid,"Health Care, Appropriations, Ways and Means"
95201,83144-63047,83144,FE,17537,KRISTEN FEDERICI,Employer,63047,Molina Healthcare Inc,21-Jul,9/15/2021,16641.0,Molina Healthcare Inc,504.0,0.0,504.0,0.0,0.0,0.0,0.0,0.0,0.0,0.0,504.0,63047.0,Direct,,,View report (https://accesshub.pdc.wa.gov/node/83144),,,
95203,81870-69394,81870,FE,17779,MCBRIDE PUBLIC AFFAIRS LLC*,Employer,69394,MT SPOKANE 2000,21-Aug,9/15/2021,16649.0,MT SPOKANE 2000,3000.0,0.0,3000.0,0.0,0.0,0.0,0.0,0.0,0.0,0.0,3000.0,69394.0,Direct,,,View report (https://accesshub.pdc.wa.gov/node/81870),State government,"Parks, environment, fiscal, labor",House Senate All - Department of Commerce
95204,83104-18390,83104,FE,17433,CARNEY BADLEY SPELLMAN*,Employer,18390,NATL ASSN OF INSURANCE & FINANCIAL ADVISORS,21-Aug,9/15/2021,16655.0,NATL ASSN OF INSURANCE & FINANCIAL ADVISORS,3000.0,0.0,3000.0,0.0,0.0,0.0,0.0,0.0,0.0,0.0,3000.0,18390.0,Direct,,,View report (https://accesshub.pdc.wa.gov/node/83104),Business and consumer affairs,"Health Insurance, Life Insurance, Annuities, Long Term Care Insurance, Disability Insurance, Taxation",Senate HC Cmte; Senate W&M Cmte; Senate FII Cmte; House HC&W Cmte; House BFS Cmte; House Approp. Cmte; Ins. Comm
95205,81870-19221,81870,FE,17779,MCBRIDE PUBLIC AFFAIRS LLC*,Employer,19221,NATIONAL ELEVATOR INDUSTRY INC,21-Aug,9/15/2021,16663.0,NATIONAL ELEVATOR INDUSTRY INC,3000.0,0.0,3000.0,0.0,0.0,0.0,0.0,0.0,0.0,0.0,3000.0,19221.0,Direct,,,View report (https://accesshub.pdc.wa.gov/node/81870),Business and consumer affairs,COMMERCE,ELEVATOR REGS L&I LABOR COMMERCE
95206,83104-18391,83104,FE,17433,CARNEY BADLEY SPELLMAN*,Employer,18391,AMERICAN PROPERTY CASUALTY INSURANCE ASSOCIATION,21-Aug,9/15/2021,16668.0,AMERICAN PROPERTY CASUALTY INSURANCE ASSOCIATION,8333.33,0.0,8333.33,0.0,0.0,0.0,0.0,0.0,0.0,0.0,8333.33,18391.0,Direct,,,View report (https://accesshub.pdc.wa.gov/node/83104),Business and consumer affairs,"Insurance, Taxation, Tort Issues",Senate FII Cmte; House BFS Cmte; Senate L&J Cmte; House Jud Cmte; Senate W/M Cmte; House Approp. Cmte; Ins. Comm
95207,83107-58149,83107,FE,58148,Justin Allegro,Employer,58149,THE NATURE CONSERVANCY,21-Aug,9/15/2021,16677.0,THE NATURE CONSERVANCY,709.0,0.0,709.0,0.0,0.0,0.0,0.0,0.0,0.0,0.0,709.0,58149.0,Direct,,,View report (https://accesshub.pdc.wa.gov/node/83107),Environmental Affairs - natural resources - parks,"Forest, Water, and Climate legislative planning for 2022","Natural Resource, Energy and Environment, Transportation Committee members and staff in the House and Senate, Governor policy staff on same issues, conservation agency legislative and policy staff"
95208,83160-62012,83160,FE,18088,White Tudor LLC,Employer,62012,NATURAL RESOURCES DEFENSE COUNCIL INC. AND ITS AFFILIATES,21-Aug,9/15/2021,16679.0,NATURAL RESOURCES DEFENSE COUNCIL INC. AND ITS AFFILIATES,1000.0,0.0,1000.0,0.0,0.0,0.0,0.0,0.0,0.0,0.0,1000.0,62012.0,Direct,,,View report (https://accesshub.pdc.wa.gov/node/83160),,,
95210,83028-19184,83028,FE,17769,Cyan Strategies,Employer,19184,NISSAN NORTH AMERICA,21-Aug,9/15/2021,16688.0,NISSAN NORTH AMERICA,1900.0,0.0,1900.0,0.0,0.0,0.0,0.0,0.0,0.0,0.0,1900.0,19184.0,Direct,,,View report (https://accesshub.pdc.wa.gov/node/83028),Transportation,EV issues,Transportation Committees
95211,82998-19624,82998,FE,17964,SCOTT C SIGMON,Employer,19624,CONSUMER HEALTHCARE PRODUCTS ASSN,21-Aug,9/15/2021,16692.0,CONSUMER HEALTHCARE PRODUCTS ASSN,4000.0,0.0,4000.0,0.0,0.0,0.0,0.0,0.0,0.0,0.0,4000.0,19624.0,Direct,,,View report (https://accesshub.pdc.wa.gov/node/82998),Environmental Affairs - natural resources - parks,Plastic Packaging,Department of Ecology
95212,82818-18287,82818,FE,17398,BOSWELL CONSULTING*,Employer,18287,NORTHWEST AUTOMATIC VENDING ASSN,21-Aug,9/15/2021,16699.0,NORTHWEST AUTOMATIC VENDING ASSN,1500.0,-521.43,978.57,617.54,0.0,0.0,0.0,0.0,0.0,617.54,1596.11,18287.0,Direct,,,View report (https://accesshub.pdc.wa.gov/node/82818),Business and consumer affairs,various,various
95213,82534-48962,82534,FE,48956,Brooke Davies,Employer,48962,NORTHWEST AUTOMATIC VENDING ASSN (BOSWELL CONSULTING*),21-Aug,9/15/2021,16699.0,NORTHWEST AUTOMATIC VENDING ASSN,321.43,0.0,321.43,0.0,0.0,0.0,0.0,0.0,0.0,0.0,321.43,48962.0,Subcontract,17398.0,BOSWELL CONSULTING*,View report (https://accesshub.pdc.wa.gov/node/82534),,,
95214,83013-39275,83013,FE,39274,Amy Wheeless,Employer,39275,NORTHWEST ENERGY COALITION,21-Aug,9/15/2021,16700.0,NORTHWEST ENERGY COALITION,200.0,0.0,200.0,0.0,0.0,0.0,0.0,0.0,0.0,0.0,200.0,39275.0,Direct,,,View report (https://accesshub.pdc.wa.gov/node/83013),,,
95215,83167-50737,83167,FE,50258,Joe Adamack,Employer,50737,GoWest Credit Union Association,21-Aug,9/15/2021,16703.0,GoWest Credit Union Association,3500.0,0.0,3500.0,34.84,0.0,0.0,0.0,0.0,0.0,34.84,3534.84,50737.0,Direct,,,View report (https://accesshub.pdc.wa.gov/node/83167),Financial institutions and insurance,"Credit union issues, financial services issues, HB 1165","Senate and House Financial Services Committee, Dept of Financial Insitutions"
95216,83029-18496,83029,FE,17465,Coyne Jesernig LLC,Employer,18496,NORTHWEST FARM CREDIT SERVICES,21-Aug,9/15/2021,16706.0,NORTHWEST FARM CREDIT SERVICES,5000.0,0.0,5000.0,0.0,0.0,0.0,0.0,0.0,0.0,0.0,5000.0,18496.0,Direct,,,View report (https://accesshub.pdc.wa.gov/node/83029),Environmental Affairs - natural resources - parks,Carnon Tax,"H Env, EET"
95217,83113-18998,83113,FE,17659,HOLLY CHISA,Employer,18998,NW GROCERY ASSN,21-Aug,9/15/2021,16707.0,NW GROCERY ASSN,7500.0,-3000.0,4500.0,0.0,0.0,0.0,0.0,0.0,0.0,0.0,4500.0,18998.0,Direct,,,View report (https://accesshub.pdc.wa.gov/node/83113),Environmental Affairs - natural resources - parks,All issues,Legislature and agencies
95218,83005-62765,83005,FE,17992,STEWART GOVERNMENT AFFAIRS,Employer,62765,NW GROCERY ASSN (HOLLY CHISA),21-Sep,9/15/2021,16707.0,NW GROCERY ASSN,3000.0,0.0,3000.0,0.0,0.0,0.0,0.0,0.0,0.0,0.0,3000.0,62765.0,Subcontract,17659.0,HOLLY CHISA,View report (https://accesshub.pdc.wa.gov/node/83005),,,
95219,82534-49111,82534,FE,48956,Brooke Davies,Employer,49111,NORTHWEST KIDNEY CENTERS (CHRISTOPHERSEN INC*),21-Aug,9/15/2021,16711.0,NORTHWEST KIDNEY CENTERS,331.81,0.0,331.81,0.0,0.0,0.0,0.0,0.0,0.0,0.0,331.81,49111.0,Subcontract,17348.0,CHRISTOPHERSEN INC*,View report (https://accesshub.pdc.wa.gov/node/82534),,,
95220,83104-18392,83104,FE,17433,CARNEY BADLEY SPELLMAN*,Employer,18392,NORTHWEST MARINE TRADE ASSN,21-Aug,9/15/2021,16714.0,NORTHWEST MARINE TRADE ASSN,3500.0,0.0,3500.0,0.0,0.0,0.0,0.0,0.0,0.0,0.0,3500.0,18392.0,Direct,,,View report (https://accesshub.pdc.wa.gov/node/83104),Business and consumer affairs,"Construction, Consumer Affairs, Taxation, Liability, Health Care, Data Issues, Insurance, Financial Services, Transportation, Environmental Regulation, Economic Development","Senate Commerce, Labor & Sports; Senate Energy, Environment & Telecommunications; Senate Financial Institutions & Insurance; Senate Health Care; Senate Human Services"
95221,83104-18393,83104,FE,17433,CARNEY BADLEY SPELLMAN*,Employer,18393,PACIFIC PROPANE GAS ASSN,21-Aug,9/15/2021,16716.0,PACIFIC PROPANE GAS ASSN,2746.67,0.0,2746.67,0.0,0.0,0.0,0.0,0.0,0.0,0.0,2746.67,18393.0,Direct,,,View report (https://accesshub.pdc.wa.gov/node/83104),Business and consumer affairs,Energy; Alternative Fuels; Taxation,Senate EE&T Cmte; Senate W&M Cmte; Senate Trans Cmte; House Fin. Cmte; House Environ. Cmte; House T&ED Cmte; House Approp. Cmte
95222,82685-71889,82685,FE,48411,Ashley Sutton,Employer,71889,LEGAL VOICE,21-Jul,9/15/2021,16723.0,LEGAL VOICE,3000.0,0.0,3000.0,0.0,0.0,0.0,0.0,0.0,0.0,0.0,3000.0,71889.0,Direct,,,View report (https://accesshub.pdc.wa.gov/node/82685),Health Care,repro health,Members of the Legislature
95223,83079-71889,83079,FE,48411,Ashley Sutton,Employer,71889,LEGAL VOICE,21-Aug,9/15/2021,16723.0,LEGAL VOICE,3000.0,0.0,3000.0,0.0,0.0,0.0,0.0,0.0,0.0,0.0,3000.0,71889.0,Direct,,,View report (https://accesshub.pdc.wa.gov/node/83079),Health Care,Repro health,Members of the Legislature
95224,82818-18288,82818,FE,17398,BOSWELL CONSULTING*,Employer,18288,NUCOR STEEL SEATTLE INC,21-Aug,9/15/2021,16727.0,NUCOR STEEL SEATTLE INC,5000.0,-521.43,4478.57,0.0,0.0,0.0,0.0,0.0,0.0,0.0,4478.57,18288.0,Direct,,,View report (https://accesshub.pdc.wa.gov/node/82818),Business and consumer affairs,various,various
95225,82534-48961,82534,FE,48956,Brooke Davies,Employer,48961,NUCOR STEEL SEATTLE INC (BOSWELL CONSULTING*),21-Aug,9/15/2021,16727.0,NUCOR STEEL SEATTLE INC,321.43,0.0,321.43,0.0,0.0,0.0,0.0,0.0,0.0,0.0,321.43,48961.0,Subcontract,17398.0,BOSWELL CONSULTING*,View report (https://accesshub.pdc.wa.gov/node/82534),,,
95226,82819-18516,82819,FE,17472,AHNE PLLC*,Employer,18516,OVERTON & ASSOC,21-Aug,9/15/2021,16744.0,OVERTON & ASSOC,2666.66,0.0,2666.66,93.52,0.0,0.0,0.0,0.0,0.0,93.52,2760.18,18516.0,Direct,,,View report (https://accesshub.pdc.wa.gov/node/82819),Environmental Affairs - natural resources - parks,various,various
95227,82998-19625,82998,FE,17964,SCOTT C SIGMON,Employer,19625,PARTNERS IN CAREERS,21-Aug,9/15/2021,16764.0,PARTNERS IN CAREERS,1500.0,0.0,1500.0,0.0,0.0,0.0,0.0,0.0,0.0,0.0,1500.0,19625.0,Direct,,,View report (https://accesshub.pdc.wa.gov/node/82998),Human services,Work Force Training,Career Connect Washington
95228,82534-49109,82534,FE,48956,Brooke Davies,Employer,49109,Pediatrix Medical Group (CHRISTOPHERSEN INC*),21-Aug,9/15/2021,16769.0,Pediatrix Medical Group,331.81,0.0,331.81,0.0,0.0,0.0,0.0,0.0,0.0,0.0,331.81,49109.0,Subcontract,17348.0,CHRISTOPHERSEN INC*,View report (https://accesshub.pdc.wa.gov/node/82534),,,
95229,83104-18394,83104,FE,17433,CARNEY BADLEY SPELLMAN*,Employer,18394,PHARMACEUTICAL RSRCH/MFG OF AMERICA,21-Aug,9/15/2021,16776.0,PHARMACEUTICAL RSRCH/MFG OF AMERICA,11250.0,0.0,11250.0,0.0,0.0,0.0,0.0,0.0,0.0,0.0,11250.0,18394.0,Direct,,,View report (https://accesshub.pdc.wa.gov/node/83104),Business and consumer affairs,"Construction, Consumer Affairs, Taxation, Liability, Health Care, Data Issues, Insurance, Financial Services, Transportation, Environmental Regulation, Economic Development","Senate Commerce, Labor & Sports; Senate Energy, Environment & Telecommunications; Senate Financial Institutions & Insurance; Senate Health Care; Senate Human Services"
95230,83029-18499,83029,FE,17465,Coyne Jesernig LLC,Employer,18499,PHILLIPS 66,21-Aug,9/15/2021,16779.0,PHILLIPS 66,6000.0,0.0,6000.0,0.0,0.0,0.0,0.0,0.0,0.0,0.0,6000.0,18499.0,Direct,,,View report (https://accesshub.pdc.wa.gov/node/83029),Environmental Affairs - natural resources - parks,Carbon Tax,"H Env, EET"
95231,83174-19684,83174,FE,17991,MELANIE STEWART & ASSOC LLC*,Employer,19684,PIERCE CO ALLIANCE,21-Aug,9/15/2021,16782.0,PIERCE CO ALLIANCE,4000.0,-2000.0,2000.0,0.0,0.0,0.0,0.0,0.0,0.0,0.0,2000.0,19684.0,Direct,,,View report (https://accesshub.pdc.wa.gov/node/83174),,,
95232,82818-18289,82818,FE,17398,BOSWELL CONSULTING*,Employer,18289,MC Construction,21-Aug,9/15/2021,16790.0,MC Construction,3000.0,-521.43,2478.57,0.0,0.0,0.0,0.0,0.0,0.0,0.0,2478.57,18289.0,Direct,,,View report (https://accesshub.pdc.wa.gov/node/82818),Business and consumer affairs,various,various
95233,82534-48964,82534,FE,48956,Brooke Davies,Employer,48964,MC Construction (BOSWELL CONSULTING*),21-Aug,9/15/2021,16790.0,MC Construction,321.43,0.0,321.43,0.0,0.0,0.0,0.0,0.0,0.0,0.0,321.43,48964.0,Subcontract,17398.0,BOSWELL CONSULTING*,View report (https://accesshub.pdc.wa.gov/node/82534),,,
95234,81870-19222,81870,FE,17779,MCBRIDE PUBLIC AFFAIRS LLC*,Employer,19222,PORT OF BELLINGHAM,21-Aug,9/15/2021,16792.0,PORT OF BELLINGHAM,2500.0,-1666.66,833.34,0.0,0.0,0.0,0.0,0.0,0.0,0.0,833.34,19222.0,Direct,,,View report (https://accesshub.pdc.wa.gov/node/81870),Local government,MTCA,BUDGET LOCAL GOVT TRANSPORTATION
95236,82819-19935,82819,FE,17472,AHNE PLLC*,Employer,19935,PORT GAMBLE S'KLALLAM TRIBE (DAVOR GJURASIC),21-Aug,9/15/2021,16799.0,PORT GAMBLE S'KLALLAM TRIBE,3333.33,0.0,3333.33,0.0,0.0,0.0,0.0,0.0,0.0,0.0,3333.33,19935.0,Subcontract,17575.0,DAVOR GJURASIC,View report (https://accesshub.pdc.wa.gov/node/82819),,,
95237,82818-49202,82818,FE,17398,BOSWELL CONSULTING*,Employer,49202,PORT OF KALAMA,21-Aug,9/15/2021,16800.0,PORT OF KALAMA,2500.0,-521.43,1978.57,0.0,0.0,0.0,0.0,0.0,0.0,0.0,1978.57,49202.0,Direct,,,View report (https://accesshub.pdc.wa.gov/node/82818),Transportation,various,various
95238,82534-67266,82534,FE,48956,Brooke Davies,Employer,67266,PORT OF KALAMA (BOSWELL CONSULTING*),21-Aug,9/15/2021,16800.0,PORT OF KALAMA,321.43,0.0,321.43,0.0,0.0,0.0,0.0,0.0,0.0,0.0,321.43,67266.0,Subcontract,17398.0,BOSWELL CONSULTING*,View report (https://accesshub.pdc.wa.gov/node/82534),,,
95239,83104-18395,83104,FE,17433,CARNEY BADLEY SPELLMAN*,Employer,18395,PROFESSIONAL INSURANCE AGENTS ASSN,21-Aug,9/15/2021,16815.0,PROFESSIONAL INSURANCE AGENTS ASSN,1750.0,0.0,1750.0,0.0,0.0,0.0,0.0,0.0,0.0,0.0,1750.0,18395.0,Direct,,,View report (https://accesshub.pdc.wa.gov/node/83104),Business and consumer affairs,"Insurance, Taxation",Ins. Comm
95240,83139-59427,83139,FE,59426,Richard B Chisa,Employer,59427,PUBLIC SCHOOL EMPLOYEES OF WA,21-Aug,9/15/2021,16824.0,PUBLIC SCHOOL EMPLOYEES OF WA,27778.59,0.0,27778.59,194.96,0.0,52426.05,0.0,0.0,0.0,52621.01,80399.6,59427.0,Direct,,,View report (https://accesshub.pdc.wa.gov/node/83139),Education,unknown,unknown
95241,83102-19901,83102,FE,18096,BRUCE WISHART,Employer,19901,PUGET SOUND KEEPER ALLIANCE,21-Aug,9/15/2021,16829.0,PUGET SOUND KEEPER ALLIANCE,500.0,0.0,500.0,0.0,0.0,0.0,0.0,0.0,0.0,0.0,500.0,19901.0,Direct,,,View report (https://accesshub.pdc.wa.gov/node/83102),Environmental Affairs - natural resources - parks,water quality,"House and Senate Environment and Energy Committees, Department of Ecology"
95242,83171-19836,83171,FE,18059,DAWN P VYVYAN,Employer,19836,PUYALLUP TRIBE OF INDIANS,21-Aug,9/15/2021,16835.0,PUYALLUP TRIBE OF INDIANS,7000.0,0.0,7000.0,0.0,0.0,0.0,0.0,0.0,0.0,0.0,7000.0,19836.0,Direct,,,View report (https://accesshub.pdc.wa.gov/node/83171),Local government,Land Use Environment,Senate Committee Ecology
95243,81870-19224,81870,FE,17779,MCBRIDE PUBLIC AFFAIRS LLC*,Employer,19224,QUEST DIAGNOSTICS,21-Aug,9/15/2021,16836.0,QUEST DIAGNOSTICS,5000.0,0.0,5000.0,0.0,0.0,0.0,0.0,0.0,0.0,0.0,5000.0,19224.0,Direct,,,View report (https://accesshub.pdc.wa.gov/node/81870),Health Care,"5062, HEALTH CARE (Opioid prescribing rule making)","MEDICAID HEALTH CARE AUTHORITY, DEPT. OF HEALTH"
95244,83021-19397,83021,FE,17870,OUTCOMES BY LEVY LLC*,Employer,19397,RECREATIONAL BOATING ASSN OF WA,21-Aug,9/15/2021,16844.0,RECREATIONAL BOATING ASSN OF WA,1500.0,0.0,1500.0,37.28,0.0,0.0,0.0,0.0,0.0,37.28,1537.28,19397.0,Direct,,,View report (https://accesshub.pdc.wa.gov/node/83021),Environmental Affairs - natural resources - parks,"Seattle Harbor Patrol, marina upgrade permitting, recreational boating/State parks",8/5 meeting w/ Seattle Acting Police Chief Adrian Diaz re SEA Harbor Patrol; 8/31 mtg w/ Stephanie Houser of US Rep Matt Cartwright re marine permitting from NMFS; 8/31 dinner meeting w/ State Parks Dir. Pete Mayer
95245,83029-18500,83029,FE,17465,Coyne Jesernig LLC,Employer,18500,WestRock,21-Aug,9/15/2021,16863.0,WestRock,3000.0,0.0,3000.0,0.0,0.0,0.0,0.0,0.0,0.0,0.0,3000.0,18500.0,Direct,,,View report (https://accesshub.pdc.wa.gov/node/83029),Environmental Affairs - natural resources - parks,Carbon Tax,"H Env, EET"
95246,82257-18740,82257,FE,17554,DAVID S FOSTER,Employer,18740,SEATTLE AQUARIUM SOCIETY,21-Jul,9/15/2021,16888.0,SEATTLE AQUARIUM SOCIETY,3000.0,0.0,3000.0,0.0,0.0,0.0,0.0,0.0,0.0,0.0,3000.0,18740.0,Direct,,,View report (https://accesshub.pdc.wa.gov/node/82257),Fiscal,Capital Budget,"Cap Budget, Appropriations, Ways & Means"
95247,82989-18740,82989,FE,17554,DAVID S FOSTER,Employer,18740,SEATTLE AQUARIUM SOCIETY,21-Aug,9/15/2021,16888.0,SEATTLE AQUARIUM SOCIETY,3000.0,0.0,3000.0,0.0,0.0,0.0,0.0,0.0,0.0,0.0,3000.0,18740.0,Direct,,,View report (https://accesshub.pdc.wa.gov/node/82989),Fiscal,Capital Budget,"Capital Budget, Approps, W&M"
95248,83080-29754,83080,FE,29753,Erin Haick,Employer,29754,SERVICE EMPLOYEES INTL UNION DIST 925,21-Aug,9/15/2021,16904.0,SERVICE EMPLOYEES INTL UNION DIST 925,252.75,0.0,252.75,0.0,0.0,0.0,0.0,0.0,0.0,0.0,252.75,29754.0,Direct,,,View report (https://accesshub.pdc.wa.gov/node/83080),Labor,child care,all
95249,77827-18676,77827,FE,17528,LUKE ESSER,Employer,18676,SEIU 775,21-Feb,9/15/2021,16905.0,SEIU 775,4500.0,0.0,4500.0,0.0,0.0,0.0,0.0,0.0,0.0,0.0,4500.0,18676.0,Direct,,,View report (https://accesshub.pdc.wa.gov/node/77827),Fiscal,Medicaid,Sen. Ways & Means; House Appropriations
95250,79055-18676,79055,FE,17528,LUKE ESSER,Employer,18676,SEIU 775,21-Mar,9/15/2021,16905.0,SEIU 775,4500.0,0.0,4500.0,0.0,0.0,0.0,0.0,0.0,0.0,0.0,4500.0,18676.0,Direct,,,View report (https://accesshub.pdc.wa.gov/node/79055),Fiscal,Medicaid,Sen. Ways & Means; House Appropriations
95251,80027-18676,80027,FE,17528,LUKE ESSER,Employer,18676,SEIU 775,21-Apr,9/15/2021,16905.0,SEIU 775,4500.0,0.0,4500.0,0.0,0.0,0.0,0.0,0.0,0.0,0.0,4500.0,18676.0,Direct,,,View report (https://accesshub.pdc.wa.gov/node/80027),Fiscal,Medicaid,Sen. Ways & Means; House Appropriations
95252,80693-18676,80693,FE,17528,LUKE ESSER,Employer,18676,SEIU 775,21-May,9/15/2021,16905.0,SEIU 775,4500.0,0.0,4500.0,0.0,0.0,0.0,0.0,0.0,0.0,0.0,4500.0,18676.0,Direct,,,View report (https://accesshub.pdc.wa.gov/node/80693),Fiscal,Medicaid,Sen. Ways & Means; House Appropriations
95253,83102-19902,83102,FE,18096,BRUCE WISHART,Employer,19902,Sierra Club,21-Aug,9/15/2021,16915.0,Sierra Club,1700.0,0.0,1700.0,0.0,0.0,0.0,0.0,0.0,0.0,0.0,1700.0,19902.0,Direct,,,View report (https://accesshub.pdc.wa.gov/node/83102),Environmental Affairs - natural resources - parks,"Energy, climate, water resources","House and Senate Environment and Energy Committees, Department of Ecology"
95254,82987-53945,82987,FE,17342,DAVID C ARBAUGH,Employer,53945,Sierra Pacific Industries,21-Aug,9/15/2021,16916.0,Sierra Pacific Industries,3000.0,0.0,3000.0,57.68,0.0,0.0,0.0,0.0,0.0,57.68,3057.68,53945.0,Direct,,,View report (https://accesshub.pdc.wa.gov/node/82987),Fiscal,Natural Resource - Timber Issues; Tax Policy,"Environment & Energy; Finance; Appropriations; Labor & Workplace Standards; Rural Development, Agriculture & Natural Resources; Agriculture, Water, Natural Resources & Parks; Environment, Energy & Technology; Labor & Commerce; Ways & Means."
95255,77827-40644,77827,FE,17528,LUKE ESSER,Employer,40644,SIGNATURE HEALTHCARE SERVICES LLC,21-Feb,9/15/2021,16917.0,SIGNATURE HEALTHCARE SERVICES LLC,4000.0,0.0,4000.0,0.0,0.0,0.0,0.0,0.0,0.0,0.0,4000.0,40644.0,Direct,,,View report (https://accesshub.pdc.wa.gov/node/77827),Health Care,Mental Health,"Senate Health & Long Term Care; House Health Care & Wellness, Dept. of Health, Dept. of Social & Health Services"
95256,79055-40644,79055,FE,17528,LUKE ESSER,Employer,40644,SIGNATURE HEALTHCARE SERVICES LLC,21-Mar,9/15/2021,16917.0,SIGNATURE HEALTHCARE SERVICES LLC,4000.0,0.0,4000.0,0.0,0.0,0.0,0.0,0.0,0.0,0.0,4000.0,40644.0,Direct,,,View report (https://accesshub.pdc.wa.gov/node/79055),Health Care,Mental Health,"Senate Health & Long Term Care; House Health Care & Wellness, Dept. of Health, Dept. of Social & Health Services"
95257,80027-40644,80027,FE,17528,LUKE ESSER,Employer,40644,SIGNATURE HEALTHCARE SERVICES LLC,21-Apr,9/15/2021,16917.0,SIGNATURE HEALTHCARE SERVICES LLC,4000.0,0.0,4000.0,0.0,0.0,0.0,0.0,0.0,0.0,0.0,4000.0,40644.0,Direct,,,View report (https://accesshub.pdc.wa.gov/node/80027),Health Care,Mental Health,"Senate Health & Long Term Care; House Health Care & Wellness, Dept. of Health, Dept. of Social & Health Services"
95258,80693-40644,80693,FE,17528,LUKE ESSER,Employer,40644,SIGNATURE HEALTHCARE SERVICES LLC,21-May,9/15/2021,16917.0,SIGNATURE HEALTHCARE SERVICES LLC,4000.0,0.0,4000.0,0.0,0.0,0.0,0.0,0.0,0.0,0.0,4000.0,40644.0,Direct,,,View report (https://accesshub.pdc.wa.gov/node/80693),Health Care,Mental Health,"Senate Health & Long Term Care; House Health Care & Wellness, Dept. of Health, Dept. of Social & Health Services"
95260,83075-60680,83075,FE,60679,Brandon Anderson,Employer,60680,SOCIETY OF PROFESSIONAL ENGINEERING EMPLOYEES IN AEROSPACE SPEEA,21-Aug,9/15/2021,16928.0,SOCIETY OF PROFESSIONAL ENGINEERING EMPLOYEES IN AEROSPACE SPEEA,5812.0,0.0,5812.0,0.0,0.0,0.0,0.0,0.0,0.0,0.0,5812.0,60680.0,Direct,,,View report (https://accesshub.pdc.wa.gov/node/83075),Labor,"COVID relief, aerospace workforce","WA legislators, governor, ESD, L&I"
95261,83104-18398,83104,FE,17433,CARNEY BADLEY SPELLMAN*,Employer,18398,7-ELEVEN INC,21-Aug,9/15/2021,16931.0,7-ELEVEN INC,3333.33,0.0,3333.33,0.0,0.0,0.0,0.0,0.0,0.0,0.0,3333.33,18398.0,Direct,,,View report (https://accesshub.pdc.wa.gov/node/83104),Business and consumer affairs,"Construction, Consumer Affairs, Taxation, Liability, Health Care, Data Issues, Insurance, Financial Services, Transportation, Environmental Regulation","Senate Commerce, Labor & Sports; Senate Energy, Environment & Telecommunications; Senate Financial Institutions & Insurance; Senate Health Care; Senate Human Services"
95262,82818-40845,82818,FE,17398,BOSWELL CONSULTING*,Employer,40845,PEACEHEALTH,21-Aug,9/15/2021,16934.0,PEACEHEALTH,10000.0,-521.43,9478.57,191.52,0.0,0.0,0.0,0.0,0.0,191.52,9670.09,40845.0,Direct,,,View report (https://accesshub.pdc.wa.gov/node/82818),Health Care,various,various
95263,82534-48963,82534,FE,48956,Brooke Davies,Employer,48963,PEACEHEALTH (BOSWELL CONSULTING*),21-Aug,9/15/2021,16934.0,PEACEHEALTH,321.43,0.0,321.43,0.0,0.0,0.0,0.0,0.0,0.0,0.0,321.43,48963.0,Subcontract,17398.0,BOSWELL CONSULTING*,View report (https://accesshub.pdc.wa.gov/node/82534),,,
95264,83020-19310,83020,FE,17819,MJB CONSULTING*,Employer,19310,SPOKANE COUNTY,21-Aug,9/15/2021,16939.0,SPOKANE COUNTY,5000.0,0.0,5000.0,0.0,0.0,0.0,0.0,0.0,0.0,0.0,5000.0,19310.0,Direct,,,View report (https://accesshub.pdc.wa.gov/node/83020),,,
95265,83104-18399,83104,FE,17433,CARNEY BADLEY SPELLMAN*,Employer,18399,SPOKANE INTL AIRPORT,21-Aug,9/15/2021,16941.0,SPOKANE INTL AIRPORT,7083.33,0.0,7083.33,0.0,0.0,0.0,0.0,0.0,0.0,0.0,7083.33,18399.0,Direct,,,View report (https://accesshub.pdc.wa.gov/node/83104),Labor,"Construction, Consumer Affairs, Taxation, Liability, Health Care, Data Issues, Insurance, Financial Services, Transportation, Environmental Regulation, Economic Development","Senate Commerce, Labor & Sports; Senate Energy, Environment & Telecommunications; Senate Financial Institutions & Insurance; Senate Health Care; Senate Human Services"
95266,81870-68909,81870,FE,17779,MCBRIDE PUBLIC AFFAIRS LLC*,Employer,68909,SPOKANE PUBLIC FACILITIES DIST,21-Aug,9/15/2021,16942.0,SPOKANE PUBLIC FACILITIES DIST,3000.0,0.0,3000.0,0.0,0.0,0.0,0.0,0.0,0.0,0.0,3000.0,68909.0,Direct,,,View report (https://accesshub.pdc.wa.gov/node/81870),Fiscal,"local government, fiscal, 1080/5083",House Senate All - Department of Commerce
95267,82534-49113,82534,FE,48956,Brooke Davies,Employer,49113,"STAND FOR CHILDREN, INC. (CHRISTOPHERSEN INC*)",21-Aug,9/15/2021,16949.0,"STAND FOR CHILDREN, INC.",350.0,0.0,350.0,0.0,0.0,0.0,0.0,0.0,0.0,0.0,350.0,49113.0,Subcontract,17348.0,CHRISTOPHERSEN INC*,View report (https://accesshub.pdc.wa.gov/node/82534),,,
95268,83176-45763,83176,FE,27426,Peggen & Mara Political Consulting LLP,Employer,45763,STILLAGUAMISH TRIBE OF INDIANS,21-Aug,9/15/2021,16955.0,STILLAGUAMISH TRIBE OF INDIANS,3500.0,0.0,3500.0,0.0,0.0,0.0,0.0,0.0,0.0,0.0,3500.0,45763.0,Direct,,,View report (https://accesshub.pdc.wa.gov/node/83176),Fiscal,Capital Budget,3/10/21 Rep Goodman re: SB 5051 3/16/21 Sen Pedersen re: SB 5051 3/16/21 Rep Lekanoff re: SB 5051 3/25/21 Rep Steele re: capital budget 3/29/21 Rep Tharinger re: SB 5051 3/29/21 Rep Calider re: SB 5051
95269,81870-68980,81870,FE,17779,MCBRIDE PUBLIC AFFAIRS LLC*,Employer,68980,Superior Court Judges Association,21-Aug,9/15/2021,16960.0,Superior Court Judges Association,8750.0,0.0,8750.0,0.0,0.0,0.0,0.0,0.0,0.0,0.0,8750.0,68980.0,Direct,,,View report (https://accesshub.pdc.wa.gov/node/81870),Law and justice,"Judiciary, human services, local government","House Senate All - Department of Corrections, Administrative Office of the Courts"
95270,81870-75131,81870,FE,17779,MCBRIDE PUBLIC AFFAIRS LLC*,Employer,75131,SURPLUS LINE ASSN OF WA,21-Aug,9/15/2021,16962.0,SURPLUS LINE ASSN OF WA,7500.0,0.0,7500.0,0.0,0.0,0.0,0.0,0.0,0.0,0.0,7500.0,75131.0,Direct,,,View report (https://accesshub.pdc.wa.gov/node/81870),Financial institutions and insurance,"Insurance, OIC, Business",House Senate All
95272,83029-18501,83029,FE,17465,Coyne Jesernig LLC,Employer,18501,SYNGENTA,21-Aug,9/15/2021,16964.0,SYNGENTA,2000.0,0.0,2000.0,0.0,0.0,0.0,0.0,0.0,0.0,0.0,2000.0,18501.0,Direct,,,View report (https://accesshub.pdc.wa.gov/node/83029),Environmental Affairs - natural resources - parks,Carbon Tax,"H Env, EET"
95273,83178-18558,83178,FE,17489,WILLIAM F DEWEY,Employer,18558,TAYLOR SHELLFISH CO INC,21-Aug,9/15/2021,16973.0,TAYLOR SHELLFISH CO INC,470.16,0.0,470.16,0.0,0.0,0.0,0.0,0.0,0.0,0.0,470.16,18558.0,Direct,,,View report (https://accesshub.pdc.wa.gov/node/83178),Environmental Affairs - natural resources - parks,Puget Sound restoration,PSP Ecosystem Coordination Board
95274,81870-19225,81870,FE,17779,MCBRIDE PUBLIC AFFAIRS LLC*,Employer,19225,THYSSENKRUPP ELEVATOR,21-Aug,9/15/2021,16983.0,THYSSENKRUPP ELEVATOR,5000.0,0.0,5000.0,0.0,0.0,0.0,0.0,0.0,0.0,0.0,5000.0,19225.0,Direct,,,View report (https://accesshub.pdc.wa.gov/node/81870),Labor,COMMERCE LABOR,LABOR & INDUSTRIES
95275,82818-18291,82818,FE,17398,BOSWELL CONSULTING*,Employer,18291,Uber Technologies Inc and Affiliates,21-Aug,9/15/2021,17001.0,Uber Technologies Inc and Affiliates,5000.0,-521.43,4478.57,0.0,0.0,0.0,0.0,0.0,0.0,0.0,4478.57,18291.0,Direct,,,View report (https://accesshub.pdc.wa.gov/node/82818),Transportation,various,various
95276,82534-48967,82534,FE,48956,Brooke Davies,Employer,48967,Uber Technologies Inc and Affiliates (BOSWELL CONSULTING*),21-Aug,9/15/2021,17001.0,Uber Technologies Inc and Affiliates,321.43,0.0,321.43,0.0,0.0,0.0,0.0,0.0,0.0,0.0,321.43,48967.0,Subcontract,17398.0,BOSWELL CONSULTING*,View report (https://accesshub.pdc.wa.gov/node/82534),,,
95277,82998-19626,82998,FE,17964,SCOTT C SIGMON,Employer,19626,"UCB, INC",21-Aug,9/15/2021,17002.0,"UCB, INC",4166.66,0.0,4166.66,0.0,0.0,0.0,0.0,0.0,0.0,0.0,4166.66,19626.0,Direct,,,View report (https://accesshub.pdc.wa.gov/node/82998),Health Care,Prescription Drugs,HCA
95278,81870-71478,81870,FE,17779,MCBRIDE PUBLIC AFFAIRS LLC*,Employer,71478,UNION PACIFIC RAILROAD CO,21-Aug,9/15/2021,17004.0,UNION PACIFIC RAILROAD CO,4666.0,0.0,4666.0,0.0,0.0,0.0,0.0,0.0,0.0,0.0,4666.0,71478.0,Direct,,,View report (https://accesshub.pdc.wa.gov/node/81870),Transportation,"Transportation, commerce, fiscal, environment, labor",Senate and House All - Utilities and Transportation Commission
95279,83137-32066,83137,FE,32065,Samantha Grad,Employer,32066,UNITED FOOD & COMM WRKRS # 3000,21-Aug,9/15/2021,17005.0,UNITED FOOD & COMM WRKRS # 3000,5189.6,0.0,5189.6,0.0,0.0,0.0,0.0,0.0,0.0,0.0,5189.6,32066.0,Direct,,,View report (https://accesshub.pdc.wa.gov/node/83137),Labor,labor policies,"Legislature, ESD, LNI, DOH, Gov"
95280,83165-82793,83165,FE,82792,Karsten Wise,Employer,82793,UNITED FOOD & COMM WRKRS # 3000,21-Aug,9/15/2021,17005.0,UNITED FOOD & COMM WRKRS # 3000,2215.0,0.0,2215.0,0.0,0.0,0.0,0.0,0.0,0.0,0.0,2215.0,82793.0,Direct,,,View report (https://accesshub.pdc.wa.gov/node/83165),Labor,Labor issues,Legislature
95281,83113-19000,83113,FE,17659,HOLLY CHISA,Employer,19000,UNITED TRUSTEES ASSN,21-Aug,9/15/2021,17015.0,UNITED TRUSTEES ASSN,1666.67,0.0,1666.67,0.0,0.0,0.0,0.0,0.0,0.0,0.0,1666.67,19000.0,Direct,,,View report (https://accesshub.pdc.wa.gov/node/83113),,,
95282,82992-19104,82992,FE,17719,HERB KROHN,Employer,19104,SMART TD PAC,21-Aug,9/15/2021,17017.0,SMART TD PAC,2000.0,0.0,2000.0,0.0,0.0,0.0,0.0,0.0,0.0,0.0,2000.0,19104.0,Direct,,,View report (https://accesshub.pdc.wa.gov/node/82992),,,
95283,82818-28159,82818,FE,17398,BOSWELL CONSULTING*,Employer,28159,VALLEY MEDICAL CENTER,21-Aug,9/15/2021,17027.0,VALLEY MEDICAL CENTER,7000.0,-521.43,6478.57,0.0,0.0,0.0,0.0,0.0,0.0,0.0,6478.57,28159.0,Direct,,,View report (https://accesshub.pdc.wa.gov/node/82818),Health Care,various,various
95284,82534-48968,82534,FE,48956,Brooke Davies,Employer,48968,VALLEY MEDICAL CENTER (BOSWELL CONSULTING*),21-Aug,9/15/2021,17027.0,VALLEY MEDICAL CENTER,321.43,0.0,321.43,0.0,0.0,0.0,0.0,0.0,0.0,0.0,321.43,48968.0,Subcontract,17398.0,BOSWELL CONSULTING*,View report (https://accesshub.pdc.wa.gov/node/82534),,,
95285,82818-18292,82818,FE,17398,BOSWELL CONSULTING*,Employer,18292,VIGOR INDUSTRIAL,21-Aug,9/15/2021,17035.0,VIGOR INDUSTRIAL,5500.0,-521.43,4978.57,0.0,0.0,0.0,0.0,0.0,0.0,0.0,4978.57,18292.0,Direct,,,View report (https://accesshub.pdc.wa.gov/node/82818),Business and consumer affairs,various,various
95286,82534-48969,82534,FE,48956,Brooke Davies,Employer,48969,VIGOR INDUSTRIAL (BOSWELL CONSULTING*),21-Aug,9/15/2021,17035.0,VIGOR INDUSTRIAL,321.43,0.0,321.43,0.0,0.0,0.0,0.0,0.0,0.0,0.0,321.43,48969.0,Subcontract,17398.0,BOSWELL CONSULTING*,View report (https://accesshub.pdc.wa.gov/node/82534),,,
95287,82943-18962,82943,FE,17634,DEBORAH HERRON,Employer,18962,WALMART INC.,21-Aug,9/15/2021,17042.0,WALMART INC.,420.67,0.0,420.67,0.0,0.0,0.0,0.0,0.0,0.0,0.0,420.67,18962.0,Direct,,,View report (https://accesshub.pdc.wa.gov/node/82943),Business and consumer affairs,eCommerce Fairness,Legislature
95288,83160-24893,83160,FE,18088,White Tudor LLC,Employer,24893,WA ASSN OF AREA AGENCIES ON AGING,21-Aug,9/15/2021,17044.0,WA ASSN OF AREA AGENCIES ON AGING,5000.0,0.0,5000.0,0.0,0.0,0.0,0.0,0.0,0.0,0.0,5000.0,24893.0,Direct,,,View report (https://accesshub.pdc.wa.gov/node/83160),Health Care,many,"DSHS, OFM, legislature"
95289,83104-18402,83104,FE,17433,CARNEY BADLEY SPELLMAN*,Employer,18402,WA ACADEMY OF EYE PHYSICIANS & SURGEONS,21-Aug,9/15/2021,17051.0,WA ACADEMY OF EYE PHYSICIANS & SURGEONS,2475.0,0.0,2475.0,0.0,0.0,0.0,0.0,0.0,0.0,0.0,2475.0,18402.0,Direct,,,View report (https://accesshub.pdc.wa.gov/node/83104),Business and consumer affairs,"Construction, Consumer Affairs, Taxation, Liability, Health Care, Data Issues, Insurance, Financial Services, Transportation, Environmental Regulation, Economic Development","Senate Commerce, Labor & Sports; Senate Energy, Environment & Telecommunications; Senate Financial Institutions & Insurance; Senate Health Care; Senate Human Services"
95290,83020-28317,83020,FE,17819,MJB CONSULTING*,Employer,28317,OPTOMETRIC PHYSICIANS OF WA,21-Aug,9/15/2021,17057.0,OPTOMETRIC PHYSICIANS OF WA,6000.0,0.0,6000.0,0.0,0.0,0.0,0.0,0.0,0.0,0.0,6000.0,28317.0,Direct,,,View report (https://accesshub.pdc.wa.gov/node/83020),Health Care,Sunrise Review,Department of Health
95291,83124-18459,83124,FE,17453,Bill Clarke,Employer,18459,WA ASSN OF REALTORS,21-Aug,9/15/2021,17059.0,WA ASSN OF REALTORS,6000.0,0.0,6000.0,0.0,0.0,0.0,0.0,0.0,0.0,0.0,6000.0,18459.0,Direct,,,View report (https://accesshub.pdc.wa.gov/node/83124),Business and consumer affairs,Growth Management; taxation; housing; water,S. Local Gov; H. Enviro; S. Finance; S. Ways & Means
95292,83100-18873,83100,FE,17585,NATHAN GORTON,Employer,18873,WA ASSN OF REALTORS,21-Aug,9/15/2021,17059.0,WA ASSN OF REALTORS,8000.0,0.0,8000.0,0.0,0.0,0.0,0.0,0.0,0.0,0.0,8000.0,18873.0,Direct,,,View report (https://accesshub.pdc.wa.gov/node/83100),Fiscal,Budget,"Ways and Means, Appropriations, Finance"
95295,83039-47358,83039,FE,47356,Streuli Public Affairs,Employer,47358,WA CATTLEMEN'S ASSN,21-Aug,9/15/2021,17072.0,WA CATTLEMEN'S ASSN,2000.0,0.0,2000.0,0.0,0.0,0.0,0.0,0.0,0.0,0.0,2000.0,47358.0,Direct,,,View report (https://accesshub.pdc.wa.gov/node/83039),Agriculture,Beef,Various Legislative Committees and State Agencies
95296,82534-49114,82534,FE,48956,Brooke Davies,Employer,49114,WA CANNABUSINESS ASSN (CHRISTOPHERSEN INC*),21-Aug,9/15/2021,17073.0,WA CANNABUSINESS ASSN,331.9,0.0,331.9,0.0,0.0,0.0,0.0,0.0,0.0,0.0,331.9,49114.0,Subcontract,17348.0,CHRISTOPHERSEN INC*,View report (https://accesshub.pdc.wa.gov/node/82534),,,
95297,82990-18438,82990,FE,17448,"DONNA CHRISTENSEN, PACIFIC GOVERNMENT AFFAIRS",Employer,18438,WA COALITION FOR GIFTED EDUCATION,21-Aug,9/15/2021,17079.0,WA COALITION FOR GIFTED EDUCATION,850.0,0.0,850.0,0.0,0.0,0.0,0.0,0.0,0.0,0.0,850.0,18438.0,Direct,,,View report (https://accesshub.pdc.wa.gov/node/82990),Education,HCP,"Education,Early Learning & K-12, Appropriations, Ways & Means, OSPI"
95298,83160-19887,83160,FE,18088,White Tudor LLC,Employer,19887,WA ASSN FOR COMMUNITY HEALTH,21-Aug,9/15/2021,17084.0,WA ASSN FOR COMMUNITY HEALTH,7000.0,0.0,7000.0,0.0,0.0,0.0,0.0,0.0,0.0,0.0,7000.0,19887.0,Direct,,,View report (https://accesshub.pdc.wa.gov/node/83160),Health Care,many,"HCA, DOH, legislature"
95299,83102-49153,83102,FE,18096,BRUCE WISHART,Employer,49153,ZERO WASTE WA,21-Aug,9/15/2021,17086.0,ZERO WASTE WA,2000.0,0.0,2000.0,0.0,0.0,0.0,0.0,0.0,0.0,0.0,2000.0,49153.0,Direct,,,View report (https://accesshub.pdc.wa.gov/node/83102),Environmental Affairs - natural resources - parks,Solid Waste and Recycling Legislation,House and Senate Environment and Energy Committees
95300,82818-18293,82818,FE,17398,BOSWELL CONSULTING*,Employer,18293,CLEANTECH ALLIANCE,21-Aug,9/15/2021,17088.0,CLEANTECH ALLIANCE,4000.0,-521.43,3478.57,0.0,0.0,0.0,0.0,0.0,0.0,0.0,3478.57,18293.0,Direct,,,View report (https://accesshub.pdc.wa.gov/node/82818),Energy and utilities,various,various
95301,82534-48958,82534,FE,48956,Brooke Davies,Employer,48958,CLEANTECH ALLIANCE (BOSWELL CONSULTING*),21-Aug,9/15/2021,17088.0,CLEANTECH ALLIANCE,321.43,0.0,321.43,0.0,0.0,0.0,0.0,0.0,0.0,0.0,321.43,48958.0,Subcontract,17398.0,BOSWELL CONSULTING*,View report (https://accesshub.pdc.wa.gov/node/82534),,,
95302,82994-29932,82994,FE,29929,Sean P Pickard,Employer,29932,Delta Dental of WA,21-Jul,9/15/2021,17096.0,Delta Dental of WA,1000.0,0.0,1000.0,275.0,0.0,0.0,0.0,0.0,0.0,275.0,1275.0,29932.0,Direct,,,View report (https://accesshub.pdc.wa.gov/node/82994),Health Care,"Health care, oral health","OIC and legislative committees related to health care, insurance"
