,id,report_number,origin,filer_id,filer_name,type,funding_source_id,funding_source_name,filing_period,receipt_date,employer_id,employer_name,compensation,sub_lobbyist_compensation,net_compensation,personal_expenses,entertainment,contributions,advertising,political_ads,other,total_expenses,net_total,employment_registration_id,employment_type,contractor_id,contractor_name,url,legislation_subject_matter,issue_bill_number,committee_lobbied
90000,79856-64874,79856,FE,17434,CASCADE GOVT AFFAIRS LLC*,Employer,64874,Washington Association of Colon Hydrotherapy,21-Apr,5/17/2021,64754.0,Washington Association of Colon Hydrotherapy,1000.0,0.0,1000.0,0.0,0.0,0.0,0.0,0.0,0.0,0.0,1000.0,64874.0,Direct,,,View report (https://accesshub.pdc.wa.gov/node/79856),Health Care,2775 - Certification,Health Care Committees
90001,79900-65305,79900,FE,17522,ENGAGE STRATEGIES SPC*,Employer,65305,Washington Outdoor School Consortium on behalf Wa School Principals Education Foundation,21-Mar,5/17/2021,65012.0,Washington Outdoor School Consortium on behalf Wa School Principals Education Foundation,1000.0,0.0,1000.0,0.0,0.0,0.0,0.0,0.0,0.0,0.0,1000.0,65305.0,Direct,,,View report (https://accesshub.pdc.wa.gov/node/79900),Education,Outdoor school funding,"OFM, OSPI"
90002,79901-65305,79901,FE,17522,ENGAGE STRATEGIES SPC*,Employer,65305,Washington Outdoor School Consortium on behalf Wa School Principals Education Foundation,21-Apr,5/17/2021,65012.0,Washington Outdoor School Consortium on behalf Wa School Principals Education Foundation,1000.0,0.0,1000.0,0.0,0.0,0.0,0.0,0.0,0.0,0.0,1000.0,65305.0,Direct,,,View report (https://accesshub.pdc.wa.gov/node/79901),Education,Outdoor school funding,"OFM, OSPI"
90003,79875-69369,79875,FE,17433,CARNEY BADLEY SPELLMAN*,Employer,69369,American Fraternal Alliance,21-Apr,5/17/2021,69363.0,American Fraternal Alliance,10000.0,0.0,10000.0,0.0,0.0,0.0,0.0,0.0,0.0,0.0,10000.0,69369.0,Direct,,,View report (https://accesshub.pdc.wa.gov/node/79875),Fiscal,Tax and Fiscal Policy Bills to be considered in 2021,Senate Ways and Means Committee; House Finance Committee; House Appropriations Committee
90004,79714-71819,79714,FE,25651,Insight Strategic Partners LLC,Employer,71819,"DoorDash, Inc",21-Apr,5/17/2021,70327.0,"DoorDash, Inc",10000.0,0.0,10000.0,0.0,0.0,0.0,0.0,0.0,0.0,0.0,10000.0,71819.0,Direct,,,View report (https://accesshub.pdc.wa.gov/node/79714),Transportation,Transportation,Transportation & Technology
90005,79714-73393,79714,FE,25651,Insight Strategic Partners LLC,Employer,73393,Port of Port Townsend,21-Apr,5/17/2021,72585.0,Port of Port Townsend,2750.0,0.0,2750.0,0.0,0.0,0.0,0.0,0.0,0.0,0.0,2750.0,73393.0,Direct,,,View report (https://accesshub.pdc.wa.gov/node/79714),Transportation,Transportation & Economic Development,Transportation & Economic Development
90006,79714-73543,79714,FE,25651,Insight Strategic Partners LLC,Employer,73543,"Secure Identity, LLC",21-Apr,5/17/2021,73165.0,"Secure Identity, LLC",8000.0,0.0,8000.0,0.0,0.0,0.0,0.0,0.0,0.0,0.0,8000.0,73543.0,Direct,,,View report (https://accesshub.pdc.wa.gov/node/79714),Technology,"Privacy, health and technology",Technology
90007,79714-73699,79714,FE,25651,Insight Strategic Partners LLC,Employer,73699,"NextEra Energy Resources, LLC",21-Apr,5/17/2021,73563.0,"NextEra Energy Resources, LLC",6000.0,0.0,6000.0,0.0,0.0,0.0,0.0,0.0,0.0,0.0,6000.0,73699.0,Direct,,,View report (https://accesshub.pdc.wa.gov/node/79714),Energy and utilities,Energy,Energy
90008,79856-75628,79856,FE,17434,CASCADE GOVT AFFAIRS LLC*,Employer,75628,Sumner-Bonney Lake School District,21-Apr,5/17/2021,74028.0,Sumner-Bonney Lake School District,2000.0,0.0,2000.0,0.0,0.0,0.0,0.0,0.0,0.0,0.0,2000.0,75628.0,Direct,,,View report (https://accesshub.pdc.wa.gov/node/79856),,,
90009,79714-74564,79714,FE,25651,Insight Strategic Partners LLC,Employer,74564,"Electronic Transaction Consultants, Inc",21-Apr,5/17/2021,74268.0,"Electronic Transaction Consultants, Inc",6000.0,0.0,6000.0,0.0,0.0,0.0,0.0,0.0,0.0,0.0,6000.0,74564.0,Direct,,,View report (https://accesshub.pdc.wa.gov/node/79714),Transportation,Transportation,WSOT & Governor's Office
90010,79870-74806,79870,FE,51590,Lodestar Strategic LLC,Employer,74806,LeaseLock,21-Apr,5/17/2021,74805.0,LeaseLock,7000.0,-3000.0,4000.0,0.0,0.0,0.0,0.0,0.0,0.0,0.0,4000.0,74806.0,Direct,,,View report (https://accesshub.pdc.wa.gov/node/79870),Business and consumer affairs,HB1515,"House and Senate Housing Committee members, House and Senate leadership"
90011,79856-75990,79856,FE,17434,CASCADE GOVT AFFAIRS LLC*,Employer,75990,Puyallup School District,21-Apr,5/17/2021,75704.0,Puyallup School District,4500.0,0.0,4500.0,0.0,0.0,0.0,0.0,0.0,0.0,0.0,4500.0,75990.0,Direct,,,View report (https://accesshub.pdc.wa.gov/node/79856),Education,Education Policy and Funding,All Education and Fiscal Committees
90012,79856-75989,79856,FE,17434,CASCADE GOVT AFFAIRS LLC*,Employer,75989,Fife Public Schools,21-Apr,5/17/2021,75734.0,Fife Public Schools,1250.0,0.0,1250.0,0.0,0.0,0.0,0.0,0.0,0.0,0.0,1250.0,75989.0,Direct,,,View report (https://accesshub.pdc.wa.gov/node/79856),Education,Education Policy and Funding,All Education and Fiscal Committees
90013,79867-76420,79867,FE,17338,AMBER CARTER GOVT RELATIONS LLC*,Employer,76420,Campaign for Recycling and the Environment (GALLATIN PUBLIC AFFAIRS*),21-Apr,5/17/2021,75961.0,Campaign for Recycling and the Environment,3000.0,0.0,3000.0,0.0,0.0,0.0,0.0,0.0,0.0,0.0,3000.0,76420.0,Subcontract,17564.0,GALLATIN PUBLIC AFFAIRS*,View report (https://accesshub.pdc.wa.gov/node/79867),,,
90014,79867-76410,79867,FE,17338,AMBER CARTER GOVT RELATIONS LLC*,Employer,76410,"Maverik, Inc (GALLATIN PUBLIC AFFAIRS*)",21-Apr,5/17/2021,76057.0,"Maverik, Inc",3500.0,0.0,3500.0,0.0,0.0,0.0,0.0,0.0,0.0,0.0,3500.0,76410.0,Subcontract,17564.0,GALLATIN PUBLIC AFFAIRS*,View report (https://accesshub.pdc.wa.gov/node/79867),,,
90015,79714-76456,79714,FE,25651,Insight Strategic Partners LLC,Employer,76456,Fountain House,21-Apr,5/17/2021,76451.0,Fountain House,6500.0,0.0,6500.0,0.0,0.0,0.0,0.0,0.0,0.0,0.0,6500.0,76456.0,Direct,,,View report (https://accesshub.pdc.wa.gov/node/79714),Human services,"Human Service, Healthcare",Human Services
90016,79875-77161,79875,FE,17433,CARNEY BADLEY SPELLMAN*,Employer,77161,Experian Information Solutions,21-Apr,5/17/2021,77142.0,Experian Information Solutions,5000.0,0.0,5000.0,0.0,0.0,0.0,0.0,0.0,0.0,0.0,5000.0,77161.0,Direct,,,View report (https://accesshub.pdc.wa.gov/node/79875),Business and consumer affairs,"Consumer Affairs, Taxation, Liability, Data Issues, Insurance, Financial Services, Economic Development","Senate Commerce; Senate Energy, Environment & Telecommunications; Senate Financial Institutions & Insurance."
90017,79714-77783,79714,FE,25651,Insight Strategic Partners LLC,Employer,77783,"Global Payments, Inc.",21-Apr,5/17/2021,77667.0,"Global Payments, Inc.",3500.0,0.0,3500.0,0.0,0.0,0.0,0.0,0.0,0.0,0.0,3500.0,77783.0,Direct,,,View report (https://accesshub.pdc.wa.gov/node/79714),State government,Taxes,"State Government, Financial"
90018,79856-78456,79856,FE,17434,CASCADE GOVT AFFAIRS LLC*,Employer,78456,"Supernal, LLC",21-Apr,5/17/2021,78452.0,"Supernal, LLC",7000.0,0.0,7000.0,0.0,0.0,0.0,0.0,0.0,0.0,0.0,7000.0,78456.0,Direct,,,View report (https://accesshub.pdc.wa.gov/node/79856),Transportation,Advanced Air Mobility Issues,Transportation Committee Members
90019,79915-71890,79915,FE,48411,Ashley Sutton,Employer,71890,AMERICAN CIVIL LIBERTIES UNION OF WA,21-Apr,5/18/2021,16097.0,AMERICAN CIVIL LIBERTIES UNION OF WA,3500.0,0.0,3500.0,0.0,0.0,0.0,0.0,0.0,0.0,0.0,3500.0,71890.0,Direct,,,View report (https://accesshub.pdc.wa.gov/node/79915),State government,Voting access,Members fof the Legislature
90020,79917-19129,79917,FE,17741,JEAN M LEONARD*,Employer,19129,AMERICAN INTERNATIONAL GROUP INC,21-Apr,5/18/2021,16112.0,AMERICAN INTERNATIONAL GROUP INC,3500.0,-1672.02,1827.98,0.0,0.0,0.0,0.0,0.0,0.0,0.0,1827.98,19129.0,Direct,,,View report (https://accesshub.pdc.wa.gov/node/79917),Financial institutions and insurance,Insurance,"CPB, CRJ, TR, LJ, FIEDT"
90021,79725-26630,79725,FE,17599,Grist Public Affairs LLC,Employer,26630,AARP WA ST OFFICE,21-Apr,5/18/2021,16121.0,AARP WA ST OFFICE,3208.33,0.0,3208.33,0.0,0.0,0.0,0.0,0.0,0.0,0.0,3208.33,26630.0,Direct,,,View report (https://accesshub.pdc.wa.gov/node/79725),Human services,"consumer protection. retirement savings, Rx drugs, long term care, housing","Health Care, Bus & Financial Svcs, Consumer Protection, Ways and Means, Appropriations, Housing"
90022,79926-37347,79926,FE,25302,Northwest Solutions,Employer,37347,CITY OF WALLA WALLA,21-Apr,5/18/2021,16271.0,CITY OF WALLA WALLA,1750.0,0.0,1750.0,0.0,0.0,0.0,0.0,0.0,0.0,0.0,1750.0,37347.0,Direct,,,View report (https://accesshub.pdc.wa.gov/node/79926),State government,HB 1523,"Rep Goodman, Peterson, Steele, Sen Warnick, Fortunado, Rep Ramos, Macri, Sen Dozier, Rep Wylie, Robertson, Volz"
90023,79921-37638,79921,FE,17709,DAVE KNUTSON,Employer,37638,COMMUNITY HEALTH NETWORK OF WA,21-Apr,5/18/2021,16348.0,COMMUNITY HEALTH NETWORK OF WA,5000.0,0.0,5000.0,0.0,0.0,0.0,0.0,0.0,0.0,0.0,5000.0,37638.0,Direct,,,View report (https://accesshub.pdc.wa.gov/node/79921),Health Care,health care coverage,Legislative Health Care Committee
90024,79929-49749,79929,FE,49748,Jeannie Nist,Employer,49749,COMMUNITIES IN SCHOOLS OF WA,21-Apr,5/18/2021,16351.0,COMMUNITIES IN SCHOOLS OF WA,346.16,0.0,346.16,0.0,0.0,0.0,0.0,0.0,0.0,0.0,346.16,49749.0,Direct,,,View report (https://accesshub.pdc.wa.gov/node/79929),Education,"Education, student supports","OSPI, House and Senate Members"
90025,79917-19130,79917,FE,17741,JEAN M LEONARD*,Employer,19130,ENTERTAINMENT SOFTWARE ASSN,21-Apr,5/18/2021,16416.0,ENTERTAINMENT SOFTWARE ASSN,10833.33,-5416.67,5416.66,0.0,0.0,0.0,0.0,0.0,0.0,0.0,5416.66,19130.0,Direct,,,View report (https://accesshub.pdc.wa.gov/node/79917),Technology,Video Games,"ITED, CG, EET, LC"
90026,78579-59366,78579,FE,44616,DeVere Public Affairs and Consulting,Employer,59366,EXPLORE INFORMATION SERVICES,21-Apr,5/18/2021,16428.0,EXPLORE INFORMATION SERVICES,2000.0,0.0,2000.0,0.0,0.0,0.0,0.0,0.0,0.0,0.0,2000.0,59366.0,Direct,,,View report (https://accesshub.pdc.wa.gov/node/78579),Business and consumer affairs,Privacy,Consumer Protection
90027,79931-68561,79931,FE,47356,Streuli Public Affairs,Employer,68561,Google LLC and its Affiliates (The Arledge Group),21-Apr,5/18/2021,16475.0,Google LLC and its Affiliates,1000.0,0.0,1000.0,0.0,0.0,0.0,0.0,0.0,0.0,0.0,1000.0,68561.0,Subcontract,37395.0,The Arledge Group,View report (https://accesshub.pdc.wa.gov/node/79931),,,
90028,79725-25575,79725,FE,17599,Grist Public Affairs LLC,Employer,25575,INTERCITY TRANSIT,21-Apr,5/18/2021,16542.0,INTERCITY TRANSIT,1750.0,0.0,1750.0,0.0,0.0,0.0,0.0,0.0,0.0,0.0,1750.0,25575.0,Direct,,,View report (https://accesshub.pdc.wa.gov/node/79725),Transportation,"transit funding, Dash shuttle",Transportation Committees
90029,79931-49283,79931,FE,47356,Streuli Public Affairs,Employer,49283,IRON WORKERS DIST CNCL OF THE PNW,21-Apr,5/18/2021,16547.0,IRON WORKERS DIST CNCL OF THE PNW,3000.0,0.0,3000.0,0.0,0.0,0.0,0.0,0.0,0.0,0.0,3000.0,49283.0,Direct,,,View report (https://accesshub.pdc.wa.gov/node/79931),Transportation,Budget,Various Legislative Committees and State Agencies
90030,78579-72661,78579,FE,44616,DeVere Public Affairs and Consulting,Employer,72661,"THERMO FISHER SCIENTIFIC, INC. (GORDON THOMAS HONEYWELL GOV AFFAIRS*)",21-Apr,5/18/2021,16606.0,"THERMO FISHER SCIENTIFIC, INC.",3750.0,0.0,3750.0,0.0,0.0,0.0,0.0,0.0,0.0,0.0,3750.0,72661.0,Subcontract,17581.0,GORDON THOMAS HONEYWELL GOV AFFAIRS*,View report (https://accesshub.pdc.wa.gov/node/78579),,,
90031,79917-19132,79917,FE,17741,JEAN M LEONARD*,Employer,19132,NATIONWIDE INSURANCE,21-Apr,5/18/2021,16676.0,NATIONWIDE INSURANCE,5000.0,-1672.02,3327.98,56.66,0.0,0.0,0.0,0.0,0.0,56.66,3384.64,19132.0,Direct,,,View report (https://accesshub.pdc.wa.gov/node/79917),Financial institutions and insurance,Insurance,"CPB, CRJ, TR, LJ, FIEDT"
90032,79930-50737,79930,FE,50258,Joe Adamack,Employer,50737,GoWest Credit Union Association,21-Apr,5/18/2021,16703.0,GoWest Credit Union Association,3500.0,0.0,3500.0,0.0,0.0,0.0,0.0,0.0,0.0,0.0,3500.0,50737.0,Direct,,,View report (https://accesshub.pdc.wa.gov/node/79930),Financial institutions and insurance,HB 1165,"Senate Financial Services Committee, Senate"
90033,78579-73999,78579,FE,44616,DeVere Public Affairs and Consulting,Employer,73999,NW GROCERY ASSN (HOLLY CHISA),21-Apr,5/18/2021,16707.0,NW GROCERY ASSN,3000.0,0.0,3000.0,0.0,0.0,0.0,0.0,0.0,0.0,0.0,3000.0,73999.0,Subcontract,17659.0,HOLLY CHISA,View report (https://accesshub.pdc.wa.gov/node/78579),,,
90034,79915-71889,79915,FE,48411,Ashley Sutton,Employer,71889,LEGAL VOICE,21-Apr,5/18/2021,16723.0,LEGAL VOICE,3000.0,0.0,3000.0,0.0,0.0,0.0,0.0,0.0,0.0,0.0,3000.0,71889.0,Direct,,,View report (https://accesshub.pdc.wa.gov/node/79915),Human services,"Fiscal, repro health, immigrant rights",Members of the Legislature
90035,79921-19083,79921,FE,17709,DAVE KNUTSON,Employer,19083,PACIFIC NORTHWEST UNIVERSITY OF HEALTH SCIENCES,21-Apr,5/18/2021,16755.0,PACIFIC NORTHWEST UNIVERSITY OF HEALTH SCIENCES,5000.0,0.0,5000.0,0.0,0.0,0.0,0.0,0.0,0.0,0.0,5000.0,19083.0,Direct,,,View report (https://accesshub.pdc.wa.gov/node/79921),,,
90036,79925-19684,79925,FE,17991,MELANIE STEWART & ASSOC LLC*,Employer,19684,PIERCE CO ALLIANCE,21-Apr,5/18/2021,16782.0,PIERCE CO ALLIANCE,4000.0,-2000.0,2000.0,0.0,0.0,0.0,0.0,0.0,0.0,0.0,2000.0,19684.0,Direct,,,View report (https://accesshub.pdc.wa.gov/node/79925),,,
90037,79725-24774,79725,FE,17599,Grist Public Affairs LLC,Employer,24774,PUGET SOUND CLEAN AIR AGENCY,21-Apr,5/18/2021,16826.0,PUGET SOUND CLEAN AIR AGENCY,4000.0,0.0,4000.0,0.0,0.0,0.0,0.0,0.0,0.0,0.0,4000.0,24774.0,Direct,,,View report (https://accesshub.pdc.wa.gov/node/79725),Environmental Affairs - natural resources - parks,"Clean air, clean fuels, electrification, carbon pricing","Environment, Transportation Committees"
90038,79917-19134,79917,FE,17741,JEAN M LEONARD*,Employer,19134,STATE FARM INSURANCE COMPANIES,21-Apr,5/18/2021,16951.0,STATE FARM INSURANCE COMPANIES,8366.67,-1672.02,6694.65,0.0,0.0,0.0,0.0,0.0,0.0,0.0,6694.65,19134.0,Direct,,,View report (https://accesshub.pdc.wa.gov/node/79917),Financial institutions and insurance,Insurance,"CPB, CRJ, TR, LJ, FIEDT"
90039,79725-73491,79725,FE,17599,Grist Public Affairs LLC,Employer,73491,VIRGINIA MASON FRANCISCAN HEALTH,21-Apr,5/18/2021,17037.0,VIRGINIA MASON FRANCISCAN HEALTH,2000.0,0.0,2000.0,0.0,0.0,0.0,0.0,0.0,0.0,0.0,2000.0,73491.0,Direct,,,View report (https://accesshub.pdc.wa.gov/node/79725),Health Care,"health care, business issues","House and Senate Health Care Committees, Governor's office"
90040,79931-47358,79931,FE,47356,Streuli Public Affairs,Employer,47358,WA CATTLEMEN'S ASSN,21-Apr,5/18/2021,17072.0,WA CATTLEMEN'S ASSN,2000.0,0.0,2000.0,0.0,0.0,0.0,0.0,0.0,0.0,0.0,2000.0,47358.0,Direct,,,View report (https://accesshub.pdc.wa.gov/node/79931),Agriculture,Washington Beef,Various Legislative Committees and State Agencies
90041,79916-28710,79916,FE,28708,Heather Trim,Employer,28710,ZERO WASTE WA,21-Apr,5/18/2021,17086.0,ZERO WASTE WA,609.93,0.0,609.93,0.0,0.0,0.0,0.0,0.0,0.0,0.0,609.93,28710.0,Direct,,,View report (https://accesshub.pdc.wa.gov/node/79916),Environmental Affairs - natural resources - parks,waste/plastics/safe medicine return/recycling,"Env and Health legislative committees, gov office"
90042,79931-69327,79931,FE,47356,Streuli Public Affairs,Employer,69327,Northwest Aquaculture Alliance,21-Apr,5/18/2021,17115.0,Northwest Aquaculture Alliance,1500.0,0.0,1500.0,0.0,0.0,0.0,0.0,0.0,0.0,0.0,1500.0,69327.0,Direct,,,View report (https://accesshub.pdc.wa.gov/node/79931),Agriculture,Aquaculture,Various Legislative Committees and State Agencies
90043,79917-19135,79917,FE,17741,JEAN M LEONARD*,Employer,19135,WA INSURERS,21-Apr,5/18/2021,17130.0,WA INSURERS,8500.0,-1672.02,6827.98,0.0,0.0,0.0,0.0,0.0,0.0,0.0,6827.98,19135.0,Direct,,,View report (https://accesshub.pdc.wa.gov/node/79917),Financial institutions and insurance,Insurance,"CPB, CRJ, TR, LJ, FIEDT"
90044,79921-19086,79921,FE,17709,DAVE KNUTSON,Employer,19086,WA OSTEOPATHIC MEDICAL ASSN,21-Apr,5/18/2021,17158.0,WA OSTEOPATHIC MEDICAL ASSN,2000.0,0.0,2000.0,0.0,0.0,0.0,0.0,0.0,0.0,0.0,2000.0,19086.0,Direct,,,View report (https://accesshub.pdc.wa.gov/node/79921),,,
90045,79919-18342,79919,FE,17427,Sheri Call,Employer,18342,WA TRUCKING ASSN,21-Apr,5/18/2021,17199.0,WA TRUCKING ASSN,1666.67,0.0,1666.67,0.0,0.0,0.0,0.0,0.0,0.0,0.0,1666.67,18342.0,Direct,,,View report (https://accesshub.pdc.wa.gov/node/79919),Transportation,HB 1564,House Transportation
90046,78579-50791,78579,FE,44616,DeVere Public Affairs and Consulting,Employer,50791,WA TRUCKING ASSN,21-Apr,5/18/2021,17199.0,WA TRUCKING ASSN,3000.0,0.0,3000.0,0.0,0.0,0.0,0.0,0.0,0.0,0.0,3000.0,50791.0,Direct,,,View report (https://accesshub.pdc.wa.gov/node/78579),Transportation,"Budget, Transporation issues","Transportation Committee, agency staff"
90047,79917-76675,79917,FE,17741,JEAN M LEONARD*,Employer,76675,WA WINE INSTITUTE,21-Apr,5/18/2021,17211.0,WA WINE INSTITUTE,2500.0,0.0,2500.0,0.0,0.0,0.0,0.0,0.0,0.0,0.0,2500.0,76675.0,Direct,,,View report (https://accesshub.pdc.wa.gov/node/79917),Business and consumer affairs,,
90048,79924-19493,79924,FE,17902,Ryan Pricco,Employer,19493,Child Care Aware of WA,21-Apr,5/18/2021,17231.0,Child Care Aware of WA,2471.88,0.0,2471.88,0.0,0.0,0.0,0.0,0.0,0.0,0.0,2471.88,19493.0,Direct,,,View report (https://accesshub.pdc.wa.gov/node/79924),Education,child care,"SW&M, HA, SEL&K12, HHS&EL, DCYF"
90049,78579-48429,78579,FE,44616,DeVere Public Affairs and Consulting,Employer,48429,WA ST COUNCIL OF POLICE & SHERIFFS,21-Apr,5/18/2021,17236.0,WA ST COUNCIL OF POLICE & SHERIFFS,3500.0,0.0,3500.0,0.0,0.0,0.0,0.0,0.0,0.0,0.0,3500.0,48429.0,Direct,,,View report (https://accesshub.pdc.wa.gov/node/78579),Law and justice,Police Reform,"Public Safety, Labor, Law and Justice"
90050,79925-19688,79925,FE,17991,MELANIE STEWART & ASSOC LLC*,Employer,19688,WA ST DIST & MUNICIPAL COURT JUDGES ASSN,21-Apr,5/18/2021,17263.0,WA ST DIST & MUNICIPAL COURT JUDGES ASSN,2000.0,0.0,2000.0,0.0,0.0,0.0,0.0,0.0,0.0,0.0,2000.0,19688.0,Direct,,,View report (https://accesshub.pdc.wa.gov/node/79925),Law and justice,assorted,judiciary
90051,79917-72397,79917,FE,17741,JEAN M LEONARD*,Employer,72397,WA ST PSYCHIATRIC ASSN (KATHRYN KOLAN),21-Apr,5/18/2021,17270.0,WA ST PSYCHIATRIC ASSN,750.0,0.0,750.0,0.0,0.0,0.0,0.0,0.0,0.0,0.0,750.0,72397.0,Subcontract,17712.0,KATHRYN KOLAN,View report (https://accesshub.pdc.wa.gov/node/79917),,,
90052,79922-18975,79922,FE,17646,DEDI LITTLE,Employer,18975,WA ST PHARMACY ASSN,21-Apr,5/18/2021,17271.0,WA ST PHARMACY ASSN,6215.0,0.0,6215.0,0.0,0.0,0.0,0.0,0.0,0.0,0.0,6215.0,18975.0,Direct,,,View report (https://accesshub.pdc.wa.gov/node/79922),Health Care,health care issues related and impacting the pharmacy profession,"House and Senate Health Care committees, HCA, OIC and DOH"
90053,79923-18975,79923,FE,17646,DEDI LITTLE,Employer,18975,WA ST PHARMACY ASSN,21-May,5/18/2021,17271.0,WA ST PHARMACY ASSN,6215.0,0.0,6215.0,0.0,0.0,0.0,0.0,0.0,0.0,0.0,6215.0,18975.0,Direct,,,View report (https://accesshub.pdc.wa.gov/node/79923),Health Care,health care issues related and impacting the pharmacy profession,"HCA, OIC and DOH"
90054,79931-68870,79931,FE,47356,Streuli Public Affairs,Employer,68870,WA ST POTATO COMMISSION,21-Apr,5/18/2021,17273.0,WA ST POTATO COMMISSION,4150.0,0.0,4150.0,0.0,0.0,0.0,0.0,0.0,0.0,0.0,4150.0,68870.0,Direct,,,View report (https://accesshub.pdc.wa.gov/node/79931),Agriculture,Agriculture,Various Legislative Committees and State Agencies
90055,78579-57804,78579,FE,44616,DeVere Public Affairs and Consulting,Employer,57804,WA ST PATROL LIEUTENANTS AND CAPTAINS ASSN,21-Apr,5/18/2021,17274.0,WA ST PATROL LIEUTENANTS AND CAPTAINS ASSN,2000.0,0.0,2000.0,0.0,0.0,0.0,0.0,0.0,0.0,0.0,2000.0,57804.0,Direct,,,View report (https://accesshub.pdc.wa.gov/node/78579),Transportation,"Retirement, Budget","Transportation Committee, WSP"
90056,79931-68871,79931,FE,47356,Streuli Public Affairs,Employer,68871,WA POTATO & ONION ASSN,21-Apr,5/18/2021,23611.0,WA POTATO & ONION ASSN,850.0,0.0,850.0,0.0,0.0,0.0,0.0,0.0,0.0,0.0,850.0,68871.0,Direct,,,View report (https://accesshub.pdc.wa.gov/node/79931),Agriculture,Agriculture,Various Legislative Committees and State Agencies
90057,79926-25311,79926,FE,25302,Northwest Solutions,Employer,25311,Public Works  Board,21-Apr,5/18/2021,25309.0,Public Works  Board,4000.0,0.0,4000.0,0.0,0.0,0.0,0.0,0.0,0.0,0.0,4000.0,25311.0,Direct,,,View report (https://accesshub.pdc.wa.gov/node/79926),,,
90058,79725-36421,79725,FE,17599,Grist Public Affairs LLC,Employer,36421,Friends of Lopez Island Pool,21-Apr,5/18/2021,36414.0,Friends of Lopez Island Pool,2000.0,0.0,2000.0,0.0,0.0,0.0,0.0,0.0,0.0,0.0,2000.0,36421.0,Direct,,,View report (https://accesshub.pdc.wa.gov/node/79725),Fiscal,Capital budget,"capital budget writers, 40th LD"
90059,79931-61599,79931,FE,47356,Streuli Public Affairs,Employer,61599,City of Sedro-Woolley,21-Apr,5/18/2021,37314.0,City of Sedro-Woolley,2000.0,0.0,2000.0,0.0,0.0,0.0,0.0,0.0,0.0,0.0,2000.0,61599.0,Direct,,,View report (https://accesshub.pdc.wa.gov/node/79931),Local government,Transportation Budget,Various Legislative Committees and State Agencies
90060,79725-62339,79725,FE,17599,Grist Public Affairs LLC,Employer,62339,Sightline Institute,21-Apr,5/18/2021,37788.0,Sightline Institute,2000.0,0.0,2000.0,0.0,0.0,0.0,0.0,0.0,0.0,0.0,2000.0,62339.0,Direct,,,View report (https://accesshub.pdc.wa.gov/node/79725),Local government,"Housing supply, ADUs/DADUs","Local Government, Housing Committees"
90061,79917-39625,79917,FE,17741,JEAN M LEONARD*,Employer,39625,Blue Origin LLC,21-Apr,5/18/2021,39619.0,Blue Origin LLC,2500.0,-1672.02,827.98,0.0,0.0,0.0,0.0,0.0,0.0,0.0,827.98,39625.0,Direct,,,View report (https://accesshub.pdc.wa.gov/node/79917),Technology,Science Aerospace,"ITED, EET"
90062,78579-63149,78579,FE,44616,DeVere Public Affairs and Consulting,Employer,63149,City of Liberty Lake,21-Apr,5/18/2021,44526.0,City of Liberty Lake,1500.0,0.0,1500.0,0.0,0.0,0.0,0.0,0.0,0.0,0.0,1500.0,63149.0,Direct,,,View report (https://accesshub.pdc.wa.gov/node/78579),Transportation,Budget,"Governor's Office, Transportation Committees"
90063,79725-47879,79725,FE,17599,Grist Public Affairs LLC,Employer,47879,EarthGen,21-Apr,5/18/2021,47838.0,EarthGen,1500.0,0.0,1500.0,0.0,0.0,0.0,0.0,0.0,0.0,0.0,1500.0,47879.0,Direct,,,View report (https://accesshub.pdc.wa.gov/node/79725),Education,"K12 STEM, environmental, migrant/Spanish education","K12 Education, Fiscal Committees"
90064,79725-50602,79725,FE,17599,Grist Public Affairs LLC,Employer,50602,Coltura,21-Apr,5/18/2021,50359.0,Coltura,1000.0,0.0,1000.0,0.0,0.0,0.0,0.0,0.0,0.0,0.0,1000.0,50602.0,Direct,,,View report (https://accesshub.pdc.wa.gov/node/79725),Transportation,electric vehicles,Transportation Committees
90065,79725-50603,79725,FE,17599,Grist Public Affairs LLC,Employer,50603,Puget Consumers Co-op DBA PCC Community Markets,21-Apr,5/18/2021,50538.0,Puget Consumers Co-op DBA PCC Community Markets,3000.0,0.0,3000.0,0.0,0.0,0.0,0.0,0.0,0.0,0.0,3000.0,50603.0,Direct,,,View report (https://accesshub.pdc.wa.gov/node/79725),Environmental Affairs - natural resources - parks,"climate, labeling, food waste, environment, soil health, farmland, conservation","Environment, Ag & Natural Resources Committees"
90066,79917-51080,79917,FE,17741,JEAN M LEONARD*,Employer,51080,98point6 Inc.,21-Apr,5/18/2021,51079.0,98point6 Inc.,5000.0,-2500.0,2500.0,0.0,0.0,0.0,0.0,0.0,0.0,0.0,2500.0,51080.0,Direct,,,View report (https://accesshub.pdc.wa.gov/node/79917),Health Care,Healthcare Technology,"ITED, HCW, HCTC, EET"
90067,79931-52519,79931,FE,47356,Streuli Public Affairs,Employer,52519,Northwest Resources II Inc,21-Apr,5/18/2021,52518.0,Northwest Resources II Inc,1000.0,0.0,1000.0,0.0,0.0,0.0,0.0,0.0,0.0,0.0,1000.0,52519.0,Direct,,,View report (https://accesshub.pdc.wa.gov/node/79931),Health Care,SUD Providers,Various Legislative Committees and State Agencies
90068,78579-53288,78579,FE,44616,DeVere Public Affairs and Consulting,Employer,53288,Ice Floe LLC,21-Apr,5/18/2021,53287.0,Ice Floe LLC,500.0,0.0,500.0,0.0,0.0,0.0,0.0,0.0,0.0,0.0,500.0,53288.0,Direct,,,View report (https://accesshub.pdc.wa.gov/node/78579),Transportation,"Ferry Construction Issues, Budget","Transportation and Labor Committees, Governor's Office"
90069,79915-68183,79915,FE,48411,Ashley Sutton,Employer,68183,Merit International Inc. (Lodestar Strategic LLC),21-Apr,5/18/2021,56993.0,Merit International Inc.,2500.0,0.0,2500.0,0.0,0.0,0.0,0.0,0.0,0.0,0.0,2500.0,68183.0,Subcontract,51590.0,Lodestar Strategic LLC,View report (https://accesshub.pdc.wa.gov/node/79915),,,
90070,79931-59351,79931,FE,47356,Streuli Public Affairs,Employer,59351,PAX Labs (Mike Hoover Public Affairs),21-Apr,5/18/2021,58986.0,PAX Labs,3000.0,0.0,3000.0,0.0,0.0,0.0,0.0,0.0,0.0,0.0,3000.0,59351.0,Subcontract,46364.0,Mike Hoover Public Affairs,View report (https://accesshub.pdc.wa.gov/node/79931),,,
90071,79725-59798,79725,FE,17599,Grist Public Affairs LLC,Employer,59798,Magnuson Park Center for Excellence,21-Apr,5/18/2021,59794.0,Magnuson Park Center for Excellence,1000.0,0.0,1000.0,0.0,0.0,0.0,0.0,0.0,0.0,0.0,1000.0,59798.0,Direct,,,View report (https://accesshub.pdc.wa.gov/node/79725),Fiscal,Capital Budget,"Capital Budget, Ways & Means"
90072,79917-62965,79917,FE,17741,JEAN M LEONARD*,Employer,62965,Washington State Medical Oncology Society (KATHRYN KOLAN),21-Apr,5/18/2021,61193.0,Washington State Medical Oncology Society,900.0,0.0,900.0,0.0,0.0,0.0,0.0,0.0,0.0,0.0,900.0,62965.0,Subcontract,17712.0,KATHRYN KOLAN,View report (https://accesshub.pdc.wa.gov/node/79917),,,
90073,79915-67802,79915,FE,48411,Ashley Sutton,Employer,67802,Washington Schools Risk Management Pool,21-Apr,5/18/2021,62667.0,Washington Schools Risk Management Pool,3000.0,0.0,3000.0,0.0,0.0,0.0,0.0,0.0,0.0,0.0,3000.0,67802.0,Direct,,,View report (https://accesshub.pdc.wa.gov/node/79915),,,
90074,78579-63390,78579,FE,44616,DeVere Public Affairs and Consulting,Employer,63390,"Air-Conditioning, Heating, and Refrigeration Institute",21-Apr,5/18/2021,63351.0,"Air-Conditioning, Heating, and Refrigeration Institute",3000.0,0.0,3000.0,0.0,0.0,0.0,0.0,0.0,0.0,0.0,3000.0,63390.0,Direct,,,View report (https://accesshub.pdc.wa.gov/node/78579),Energy and utilities,"State Energy Plan, HydroFluorocarbon","Commerce staff, Energy and Environment"
90075,79725-65092,79725,FE,17599,Grist Public Affairs LLC,Employer,65092,Washington Outdoor School Consortium on behalf Wa School Principals Education Foundation,21-Apr,5/18/2021,65012.0,Washington Outdoor School Consortium on behalf Wa School Principals Education Foundation,1000.0,0.0,1000.0,0.0,0.0,0.0,0.0,0.0,0.0,0.0,1000.0,65092.0,Direct,,,View report (https://accesshub.pdc.wa.gov/node/79725),Education,K-12 outdoor education,"K-12 Education Committees, budget committees"
90076,79725-74865,79725,FE,17599,Grist Public Affairs LLC,Employer,74865,Methow Valley Citizens Council Action Fund,21-Apr,5/18/2021,73926.0,Methow Valley Citizens Council Action Fund,1500.0,0.0,1500.0,0.0,0.0,0.0,0.0,0.0,0.0,0.0,1500.0,74865.0,Direct,,,View report (https://accesshub.pdc.wa.gov/node/79725),Environmental Affairs - natural resources - parks,"ATVs, water, climate, environment","Transportation, RDANR, AWNRP, Energy & Environment"
90077,79917-75006,79917,FE,17741,JEAN M LEONARD*,Employer,75006,J.S. Held,21-Apr,5/18/2021,74656.0,J.S. Held,8000.0,0.0,8000.0,0.0,0.0,0.0,0.0,0.0,0.0,0.0,8000.0,75006.0,Direct,,,View report (https://accesshub.pdc.wa.gov/node/79917),Financial institutions and insurance,,Na
90078,79915-75015,79915,FE,48411,Ashley Sutton,Employer,75015,Northwest Consumer Law Center,21-Apr,5/18/2021,74993.0,Northwest Consumer Law Center,3500.0,0.0,3500.0,0.0,0.0,0.0,0.0,0.0,0.0,0.0,3500.0,75015.0,Direct,,,View report (https://accesshub.pdc.wa.gov/node/79915),Fiscal,Homestead exemption,Members of the Legislature
90079,79917-76297,79917,FE,17741,JEAN M LEONARD*,Employer,76297,BSA - THE SOFTWARE ALLIANCE,21-Apr,5/18/2021,76283.0,BSA - THE SOFTWARE ALLIANCE,5000.0,-2500.0,2500.0,0.0,0.0,0.0,0.0,0.0,0.0,0.0,2500.0,76297.0,Direct,,,View report (https://accesshub.pdc.wa.gov/node/79917),Technology,Technology,Legislators
90080,79941-19184,79941,FE,17769,Cyan Strategies,Employer,19184,NISSAN NORTH AMERICA,21-May,5/19/2021,16688.0,NISSAN NORTH AMERICA,1900.0,0.0,1900.0,0.0,0.0,0.0,0.0,0.0,0.0,0.0,1900.0,19184.0,Direct,,,View report (https://accesshub.pdc.wa.gov/node/79941),Transportation,EV issues,Transportation Committees
90081,79935-62230,79935,FE,17852,DARCY A NONEMACHER,Employer,62230,Washington Conservation Action,21-Apr,5/19/2021,17091.0,Washington Conservation Action,500.0,0.0,500.0,0.0,0.0,0.0,0.0,0.0,0.0,0.0,500.0,62230.0,Direct,,,View report (https://accesshub.pdc.wa.gov/node/79935),Environmental Affairs - natural resources - parks,Multiple,Multiple
90082,79935-19367,79935,FE,17852,DARCY A NONEMACHER,Employer,19367,Washington Conservation Action Education Fund,21-Apr,5/19/2021,17100.0,Washington Conservation Action Education Fund,2500.0,0.0,2500.0,0.0,0.0,0.0,0.0,0.0,0.0,0.0,2500.0,19367.0,Direct,,,View report (https://accesshub.pdc.wa.gov/node/79935),Environmental Affairs - natural resources - parks,Multiple,Multiple
90083,79942-68908,79942,FE,48657,Zackary Turner,Employer,68908,WA Student Association,21-Apr,5/19/2021,38781.0,WA Student Association,3464.98,0.0,3464.98,0.0,0.0,0.0,0.0,0.0,0.0,0.0,3464.98,68908.0,Direct,,,View report (https://accesshub.pdc.wa.gov/node/79942),Higher education,"1472, 5430, 5431, 5321, 1028, 1009, 1176, 1166, 1044, 5237/1213,1273,5096,5227,5228,","Members of higher education, fiscal, and k-12 education committees."
90084,79941-51921,79941,FE,17769,Cyan Strategies,Employer,51921,Forth,21-May,5/19/2021,38847.0,Forth,1000.0,0.0,1000.0,0.0,0.0,0.0,0.0,0.0,0.0,0.0,1000.0,51921.0,Direct,,,View report (https://accesshub.pdc.wa.gov/node/79941),Transportation,EV issues,Transportation Committees
90085,79941-62570,79941,FE,17769,Cyan Strategies,Employer,62570,Sustainable Living Innovations,21-May,5/19/2021,62512.0,Sustainable Living Innovations,2000.0,0.0,2000.0,0.0,0.0,0.0,0.0,0.0,0.0,0.0,2000.0,62570.0,Direct,,,View report (https://accesshub.pdc.wa.gov/node/79941),Human services,MFTE,"Housing Committees, Finance, Ways and Means"
90086,79940-77914,79940,FE,77467,Doglio Consulting,Employer,77914,Olympia Tumwater Foundation,21-Apr,5/19/2021,77610.0,Olympia Tumwater Foundation,3000.0,0.0,3000.0,0.0,0.0,0.0,0.0,0.0,0.0,0.0,3000.0,77914.0,Direct,,,View report (https://accesshub.pdc.wa.gov/node/79940),Fiscal,SHB 1080 SB 5083,Capital budget members and Ways and Means Members - 22nd LD members
90087,79098-19501,79098,FE,17905,T K BENTLER/PUBLIC AFFAIRS ASSOC*,Employer,19501,3M CO,21-Mar,5/20/2021,16055.0,3M CO,3150.0,0.0,3150.0,0.0,0.0,0.0,0.0,0.0,0.0,0.0,3150.0,19501.0,Direct,,,View report (https://accesshub.pdc.wa.gov/node/79098),,,
90088,79948-19501,79948,FE,17905,T K BENTLER/PUBLIC AFFAIRS ASSOC*,Employer,19501,3M CO,21-Apr,5/20/2021,16055.0,3M CO,3150.0,0.0,3150.0,0.0,0.0,0.0,0.0,0.0,0.0,0.0,3150.0,19501.0,Direct,,,View report (https://accesshub.pdc.wa.gov/node/79948),,,
90089,79098-19502,79098,FE,17905,T K BENTLER/PUBLIC AFFAIRS ASSOC*,Employer,19502,APPRAISERS COALITION OF WA,21-Mar,5/20/2021,16132.0,APPRAISERS COALITION OF WA,4500.0,0.0,4500.0,0.0,0.0,0.0,0.0,0.0,0.0,0.0,4500.0,19502.0,Direct,,,View report (https://accesshub.pdc.wa.gov/node/79098),Business and consumer affairs,Professional Licensing,H Consumer Protection & Business
90090,79663-50668,79663,FE,50667,Stephen Uy,Employer,50668,"Meta Platforms, Inc.",21-Apr,5/20/2021,16430.0,"Meta Platforms, Inc.",753.08,0.0,753.08,0.0,0.0,0.0,0.0,0.0,3172.77,3172.77,3925.85,50668.0,Direct,,,View report (https://accesshub.pdc.wa.gov/node/79663),,,
90091,79098-19505,79098,FE,17905,T K BENTLER/PUBLIC AFFAIRS ASSOC*,Employer,19505,METRO PARKS OF TACOMA,21-Mar,5/20/2021,16635.0,METRO PARKS OF TACOMA,6250.0,-840.0,5410.0,0.0,0.0,0.0,0.0,0.0,0.0,0.0,5410.0,19505.0,Direct,,,View report (https://accesshub.pdc.wa.gov/node/79098),,,
90092,79948-19505,79948,FE,17905,T K BENTLER/PUBLIC AFFAIRS ASSOC*,Employer,19505,METRO PARKS OF TACOMA,21-Apr,5/20/2021,16635.0,METRO PARKS OF TACOMA,6250.0,-840.0,5410.0,0.0,0.0,0.0,0.0,0.0,0.0,0.0,5410.0,19505.0,Direct,,,View report (https://accesshub.pdc.wa.gov/node/79948),,,
90093,79098-19506,79098,FE,17905,T K BENTLER/PUBLIC AFFAIRS ASSOC*,Employer,19506,"MOTION PICTURE ASSOCIATION, INC.",21-Mar,5/20/2021,16645.0,"MOTION PICTURE ASSOCIATION, INC.",2500.0,-840.0,1660.0,0.0,0.0,0.0,0.0,0.0,0.0,0.0,1660.0,19506.0,Direct,,,View report (https://accesshub.pdc.wa.gov/node/79098),Law and justice,SB 5009 Anti-SLAPP,S L&J
90094,79948-19506,79948,FE,17905,T K BENTLER/PUBLIC AFFAIRS ASSOC*,Employer,19506,"MOTION PICTURE ASSOCIATION, INC.",21-Apr,5/20/2021,16645.0,"MOTION PICTURE ASSOCIATION, INC.",2500.0,-840.0,1660.0,0.0,0.0,0.0,0.0,0.0,0.0,0.0,1660.0,19506.0,Direct,,,View report (https://accesshub.pdc.wa.gov/node/79948),Law and justice,SB 5009 Anti-SLAPP,S L&J
90095,79098-19507,79098,FE,17905,T K BENTLER/PUBLIC AFFAIRS ASSOC*,Employer,19507,MOTOR VEHICLE SOFTWARE CORP,21-Mar,5/20/2021,16648.0,MOTOR VEHICLE SOFTWARE CORP,2500.0,0.0,2500.0,0.0,0.0,0.0,0.0,0.0,0.0,0.0,2500.0,19507.0,Direct,,,View report (https://accesshub.pdc.wa.gov/node/79098),,,
90096,79948-19507,79948,FE,17905,T K BENTLER/PUBLIC AFFAIRS ASSOC*,Employer,19507,MOTOR VEHICLE SOFTWARE CORP,21-Apr,5/20/2021,16648.0,MOTOR VEHICLE SOFTWARE CORP,2500.0,0.0,2500.0,0.0,0.0,0.0,0.0,0.0,0.0,0.0,2500.0,19507.0,Direct,,,View report (https://accesshub.pdc.wa.gov/node/79948),,,
90097,79098-19508,79098,FE,17905,T K BENTLER/PUBLIC AFFAIRS ASSOC*,Employer,19508,RAI Services Company,21-Mar,5/20/2021,16862.0,RAI Services Company,10185.42,0.0,10185.42,0.0,0.0,0.0,0.0,0.0,0.0,0.0,10185.42,19508.0,Direct,,,View report (https://accesshub.pdc.wa.gov/node/79098),Business and consumer affairs,Vape Flavor Ban,"Senate Health Care, H C&G"
90098,79948-19508,79948,FE,17905,T K BENTLER/PUBLIC AFFAIRS ASSOC*,Employer,19508,RAI Services Company,21-Apr,5/20/2021,16862.0,RAI Services Company,10185.42,0.0,10185.42,0.0,0.0,0.0,0.0,0.0,0.0,0.0,10185.42,19508.0,Direct,,,View report (https://accesshub.pdc.wa.gov/node/79948),Business and consumer affairs,Vape Flavor Ban,"Senate Health Care, H C&G"
90099,79098-19509,79098,FE,17905,T K BENTLER/PUBLIC AFFAIRS ASSOC*,Employer,19509,WA BREWERS GUILD,21-Mar,5/20/2021,17065.0,WA BREWERS GUILD,2600.0,-840.0,1760.0,0.0,0.0,0.0,0.0,0.0,0.0,0.0,1760.0,19509.0,Direct,,,View report (https://accesshub.pdc.wa.gov/node/79098),Business and consumer affairs,Unemployment Insurance,Labor Committees
90100,79948-19509,79948,FE,17905,T K BENTLER/PUBLIC AFFAIRS ASSOC*,Employer,19509,WA BREWERS GUILD,21-Apr,5/20/2021,17065.0,WA BREWERS GUILD,2600.0,-840.0,1760.0,0.0,0.0,0.0,0.0,0.0,0.0,0.0,1760.0,19509.0,Direct,,,View report (https://accesshub.pdc.wa.gov/node/79948),Business and consumer affairs,Unemployment Insurance,Labor Committees
90101,79098-19510,79098,FE,17905,T K BENTLER/PUBLIC AFFAIRS ASSOC*,Employer,19510,"Wa Cemetary, Cremation & Funeral Assn.",21-Mar,5/20/2021,17077.0,"Wa Cemetary, Cremation & Funeral Assn.",1600.0,0.0,1600.0,0.0,0.0,0.0,0.0,0.0,0.0,0.0,1600.0,19510.0,Direct,,,View report (https://accesshub.pdc.wa.gov/node/79098),,,
90102,79948-19510,79948,FE,17905,T K BENTLER/PUBLIC AFFAIRS ASSOC*,Employer,19510,"Wa Cemetary, Cremation & Funeral Assn.",21-Apr,5/20/2021,17077.0,"Wa Cemetary, Cremation & Funeral Assn.",1600.0,0.0,1600.0,0.0,0.0,0.0,0.0,0.0,0.0,0.0,1600.0,19510.0,Direct,,,View report (https://accesshub.pdc.wa.gov/node/79948),,,
90103,79098-19512,79098,FE,17905,T K BENTLER/PUBLIC AFFAIRS ASSOC*,Employer,19512,WA ST INDEPENDENT AUTO DEALERS ASSN,21-Mar,5/20/2021,17257.0,WA ST INDEPENDENT AUTO DEALERS ASSN,2600.0,-840.0,1760.0,110.0,0.0,0.0,0.0,0.0,0.0,110.0,1870.0,19512.0,Direct,,,View report (https://accesshub.pdc.wa.gov/node/79098),,,
90104,79948-19512,79948,FE,17905,T K BENTLER/PUBLIC AFFAIRS ASSOC*,Employer,19512,WA ST INDEPENDENT AUTO DEALERS ASSN,21-Apr,5/20/2021,17257.0,WA ST INDEPENDENT AUTO DEALERS ASSN,2600.0,-840.0,1760.0,110.0,0.0,0.0,0.0,0.0,0.0,110.0,1870.0,19512.0,Direct,,,View report (https://accesshub.pdc.wa.gov/node/79948),,,
90105,79098-62862,79098,FE,17905,T K BENTLER/PUBLIC AFFAIRS ASSOC*,Employer,62862,Craft Cannabis Coalition,21-Mar,5/20/2021,62809.0,Craft Cannabis Coalition,5000.0,-840.0,4160.0,110.0,0.0,0.0,0.0,0.0,0.0,110.0,4270.0,62862.0,Direct,,,View report (https://accesshub.pdc.wa.gov/node/79098),Business and consumer affairs,Cannabis Social Equity,"H C&Gm, S L,C Tribal Affairs"
90106,79948-62862,79948,FE,17905,T K BENTLER/PUBLIC AFFAIRS ASSOC*,Employer,62862,Craft Cannabis Coalition,21-Apr,5/20/2021,62809.0,Craft Cannabis Coalition,5000.0,-840.0,4160.0,110.0,0.0,0.0,0.0,0.0,0.0,110.0,4270.0,62862.0,Direct,,,View report (https://accesshub.pdc.wa.gov/node/79948),Business and consumer affairs,Cannabis Social Equity,"H C&Gm, S L,C Tribal Affairs"
90107,79948-79150,79948,FE,17905,T K BENTLER/PUBLIC AFFAIRS ASSOC*,Employer,79150,"Seattle's Finest Security & Traffic Control, LLC",21-Apr,5/20/2021,77718.0,"Seattle's Finest Security & Traffic Control, LLC",7500.0,0.0,7500.0,0.0,0.0,0.0,0.0,0.0,0.0,0.0,7500.0,79150.0,Direct,,,View report (https://accesshub.pdc.wa.gov/node/79948),Transportation,SB 5354,House Transportation
90108,79960-19765,79960,FE,18027,ROWLAND THOMPSON,Employer,19765,ALLIED DAILY NEWSPAPERS OF WA,21-Apr,5/21/2021,16082.0,ALLIED DAILY NEWSPAPERS OF WA,4000.0,0.0,4000.0,101.93,91.83,0.0,0.0,0.0,0.0,193.76,4193.76,19765.0,Direct,,,View report (https://accesshub.pdc.wa.gov/node/79960),State government,First Amendment issues,All
90109,79960-19943,79960,FE,18027,ROWLAND THOMPSON,Employer,19943,AMERICAN TRAFFIC SOLUTIONS INC (STAUFFACHER COMMUNICATIONS*),21-Apr,5/21/2021,16124.0,AMERICAN TRAFFIC SOLUTIONS INC,1875.0,0.0,1875.0,0.0,0.0,0.0,0.0,0.0,0.0,0.0,1875.0,19943.0,Subcontract,17983.0,STAUFFACHER COMMUNICATIONS*,View report (https://accesshub.pdc.wa.gov/node/79960),,,
90110,79962-38874,79962,FE,38873,Aaron Czyzewski,Employer,38874,FOOD LIFELINE,21-Apr,5/21/2021,16448.0,FOOD LIFELINE,6575.0,0.0,6575.0,0.0,0.0,0.0,0.0,0.0,0.0,0.0,6575.0,38874.0,Direct,,,View report (https://accesshub.pdc.wa.gov/node/79962),Human services,"HB 1151, HB 1080, HB 1093, HB 1297, HB 1342, SB 5091, SB 5096, SB 5214, SB 5092","Ways & Means, Appropriations, Finance, Capital Budget, Housing Human Services Veterans, Human Services Reentry Rehabilitation"
90111,79951-19764,79951,FE,18026,Michele Thomas,Employer,19764,WA LOW-INCOME HOUSING ALLIANCE,21-Apr,5/21/2021,17143.0,WA LOW-INCOME HOUSING ALLIANCE,1461.66,0.0,1461.66,0.0,0.0,0.0,0.0,0.0,0.0,0.0,1461.66,19764.0,Direct,,,View report (https://accesshub.pdc.wa.gov/node/79951),Human services,Various affordable housing and homelessness issues,Variety of lawmakers and also Department of Commerce
90112,79958-19613,79958,FE,17960,JEB C SHEPARD,Employer,19613,WA ST MEDICAL ASSN,21-May,5/21/2021,17261.0,WA ST MEDICAL ASSN,8000.0,0.0,8000.0,0.0,0.0,0.0,0.0,0.0,0.0,0.0,8000.0,19613.0,Direct,,,View report (https://accesshub.pdc.wa.gov/node/79958),Health Care,health care,"legislature, DOH, HCA"
90113,79960-19766,79960,FE,18027,ROWLAND THOMPSON,Employer,19766,WINE INSTITUTE,21-Apr,5/21/2021,17312.0,WINE INSTITUTE,1875.0,0.0,1875.0,0.0,0.0,0.0,0.0,0.0,0.0,0.0,1875.0,19766.0,Direct,,,View report (https://accesshub.pdc.wa.gov/node/79960),Business and consumer affairs,Wine regulation,"Liquor and Cannabis Board, House and Senate Commerce committees"
90126,79977-51886,79977,FE,17580,Eric Gonzalez Alfaro,Employer,51886,AMERICAN CIVIL LIBERTIES UNION OF WA,21-Apr,5/24/2021,16097.0,AMERICAN CIVIL LIBERTIES UNION OF WA,7800.0,0.0,7800.0,0.0,0.0,0.0,0.0,0.0,0.0,0.0,7800.0,51886.0,Direct,,,View report (https://accesshub.pdc.wa.gov/node/79977),Law and justice,"Criminal Justice System Reform, Treatment & Recovery, Healthcare, Labor, Data Privacy",Washington State Legislature
90127,79966-19359,79966,FE,17848,THE NEXUS GROUP LLC*,Employer,19359,ASSN OF WA SCHOOL PRINCIPALS,21-May,5/24/2021,16173.0,ASSN OF WA SCHOOL PRINCIPALS,1500.0,0.0,1500.0,0.0,0.0,0.0,0.0,0.0,0.0,0.0,1500.0,19359.0,Direct,,,View report (https://accesshub.pdc.wa.gov/node/79966),Fiscal,Health Care Pensions Benefits,SCPP PFC SAO APPS SEBB PEBB HCA
90128,79966-19362,79966,FE,17848,THE NEXUS GROUP LLC*,Employer,19362,WA ASSN OF SCHOOL ADMINISTRATORS,21-May,5/24/2021,17186.0,WA ASSN OF SCHOOL ADMINISTRATORS,3000.0,0.0,3000.0,0.0,0.0,0.0,0.0,0.0,0.0,0.0,3000.0,19362.0,Direct,,,View report (https://accesshub.pdc.wa.gov/node/79966),Fiscal,Health Care Pensions Benefits,SCPP PFC SAO APPS SEBB PEBB HCA
90129,79967-47795,79967,FE,47794,Jaclyn Greenberg,Employer,47795,WA ST HOSPITAL ASSN,21-Apr,5/24/2021,17252.0,WA ST HOSPITAL ASSN,403.85,0.0,403.85,0.0,0.0,0.0,0.0,0.0,0.0,0.0,403.85,47795.0,Direct,,,View report (https://accesshub.pdc.wa.gov/node/79967),Health Care,behavioral health,"legislators, executive branch"
90130,79966-19363,79966,FE,17848,THE NEXUS GROUP LLC*,Employer,19363,WA ST SCHOOL RETIREES ASSN,21-May,5/24/2021,17286.0,WA ST SCHOOL RETIREES ASSN,5659.0,0.0,5659.0,0.0,0.0,0.0,0.0,0.0,0.0,0.0,5659.0,19363.0,Direct,,,View report (https://accesshub.pdc.wa.gov/node/79966),Fiscal,Health Care Pensions Benefits,SCPP PFC SAO APPS SEBB PEBB HCA
90131,79978-75974,79978,FE,72634,Phoebe May Momoko Walker,Employer,75974,Associated Students of the University of Washington - Seattle,21-Apr,5/24/2021,50061.0,Associated Students of the University of Washington - Seattle,1145.1,0.0,1145.1,0.0,0.0,0.0,0.0,0.0,0.0,0.0,1145.1,75974.0,Direct,,,View report (https://accesshub.pdc.wa.gov/node/79978),Higher education,"HB 1028, SB 5228, HB 1517, HB 1166, HB 1009, HB 1273, SB 5227, HB 1472, HB 1213, SB 5237, HB 1504","House College & Workforce Development Committee, Senate Higher Education & Workforce Development Committee, House Appropriations Committee, Senate Ways & Means Committee"
90132,79972-62868,79972,FE,62867,Sunrise Consulting Group,Employer,62868,Producers NW,21-Jan,5/24/2021,62865.0,Producers NW,5000.0,0.0,5000.0,0.0,0.0,0.0,0.0,0.0,0.0,0.0,5000.0,62868.0,Direct,,,View report (https://accesshub.pdc.wa.gov/node/79972),Business and consumer affairs,Cannabis Industry Regulations,"WSLCB, Commerce & Gaming"
90133,79973-62868,79973,FE,62867,Sunrise Consulting Group,Employer,62868,Producers NW,21-Feb,5/24/2021,62865.0,Producers NW,5000.0,0.0,5000.0,0.0,0.0,0.0,0.0,0.0,0.0,0.0,5000.0,62868.0,Direct,,,View report (https://accesshub.pdc.wa.gov/node/79973),Business and consumer affairs,Canabis Industry Regulations,"WSLCB, Commerce & Gaming"
90134,79974-62868,79974,FE,62867,Sunrise Consulting Group,Employer,62868,Producers NW,21-Mar,5/24/2021,62865.0,Producers NW,5000.0,0.0,5000.0,0.0,0.0,0.0,0.0,0.0,0.0,0.0,5000.0,62868.0,Direct,,,View report (https://accesshub.pdc.wa.gov/node/79974),Business and consumer affairs,Cannabis Industry Regulations,"WSLCB, Commerce & Gaming"
90135,79975-62868,79975,FE,62867,Sunrise Consulting Group,Employer,62868,Producers NW,21-Apr,5/24/2021,62865.0,Producers NW,5000.0,0.0,5000.0,0.0,0.0,0.0,0.0,0.0,0.0,0.0,5000.0,62868.0,Direct,,,View report (https://accesshub.pdc.wa.gov/node/79975),Business and consumer affairs,Cannabis Industry Regulations,"WSLCB, Commerce & Gaming"
90136,79976-62868,79976,FE,62867,Sunrise Consulting Group,Employer,62868,Producers NW,21-May,5/24/2021,62865.0,Producers NW,5000.0,0.0,5000.0,0.0,0.0,0.0,0.0,0.0,0.0,0.0,5000.0,62868.0,Direct,,,View report (https://accesshub.pdc.wa.gov/node/79976),Business and consumer affairs,Cannabis Industry Regulations,WSLCB
90138,79983-27364,79983,FE,17920,G SCOTT RICHARDS,Employer,27364,INVENERGY,21-Apr,5/25/2021,16546.0,INVENERGY,3750.0,0.0,3750.0,0.0,0.0,0.0,0.0,0.0,0.0,0.0,3750.0,27364.0,Direct,,,View report (https://accesshub.pdc.wa.gov/node/79983),Energy and utilities,Climate Commitment Act,"H EE, S EET, H Approps, S WM"
90139,79984-27364,79984,FE,17920,G SCOTT RICHARDS,Employer,27364,INVENERGY,21-Mar,5/25/2021,16546.0,INVENERGY,3750.0,0.0,3750.0,0.0,0.0,0.0,0.0,0.0,0.0,0.0,3750.0,27364.0,Direct,,,View report (https://accesshub.pdc.wa.gov/node/79984),Energy and utilities,Climate Commitment Act,"H EE, S EET, H Approps, S WM"
90140,74979-19330,74979,FE,17831,DEBORAH A MURPHY,Employer,19330,LEADINGAGE WA,21-Jan,5/25/2021,16588.0,LEADINGAGE WA,3452.33,0.0,3452.33,0.0,0.0,25000.0,0.0,0.0,0.0,25000.0,28452.33,19330.0,Direct,,,View report (https://accesshub.pdc.wa.gov/node/74979),Health Care,"HB 1275, 1218, SB 5294","Senator Carlyle, Senator Billig, Rep. Frame, Rep. Berry, Rep. Bateman"
90142,79983-19547,79983,FE,17920,G SCOTT RICHARDS,Employer,19547,THE NATURE CONSERVANCY,21-Apr,5/25/2021,16677.0,THE NATURE CONSERVANCY,4500.0,0.0,4500.0,0.0,0.0,0.0,0.0,0.0,0.0,0.0,4500.0,19547.0,Direct,,,View report (https://accesshub.pdc.wa.gov/node/79983),Environmental Affairs - natural resources - parks,"Clean Fuel Standard - HB 1091, Climate Commitment Act - SB 5126, Community Forest Program, Floodplains by Design, WA Coast Restoration and Resiliency Initiative, Wildfire Funding - HB 1168, HEAL Act - SB 5141,","H Cap Budget, S WM, H EE, S EET, H RDAN, S AGWR"
90143,79984-19547,79984,FE,17920,G SCOTT RICHARDS,Employer,19547,THE NATURE CONSERVANCY,21-Mar,5/25/2021,16677.0,THE NATURE CONSERVANCY,4500.0,0.0,4500.0,0.0,0.0,0.0,0.0,0.0,0.0,0.0,4500.0,19547.0,Direct,,,View report (https://accesshub.pdc.wa.gov/node/79984),Environmental Affairs - natural resources - parks,"Clean Fuel Standard - HB 1091, Climate Commitment Act - SB 5126, Community Forest Program, Floodplains by Design, WA Coast Restoration and Resiliency Initiative, Wildfire Funding - HB 1168, HEAL Act - SB 5141,","H Cap Budget, S WM, H EE, S EET, H RDAN, S AGWR"
90144,79992-52963,79992,FE,52962,Annabel Drayton,Employer,52963,NORTHWEST ENERGY COALITION,21-Mar,5/25/2021,16700.0,NORTHWEST ENERGY COALITION,250.0,0.0,250.0,0.0,0.0,0.0,0.0,0.0,0.0,0.0,250.0,52963.0,Direct,,,View report (https://accesshub.pdc.wa.gov/node/79992),Transportation,Transportation electrification,"Senate Transportation Committee, House Environment & Energy Committee, House Transportation Committee, and Senate Environment, Energy & Technology Committee"
90145,79993-52963,79993,FE,52962,Annabel Drayton,Employer,52963,NORTHWEST ENERGY COALITION,21-Apr,5/25/2021,16700.0,NORTHWEST ENERGY COALITION,275.0,0.0,275.0,0.0,0.0,0.0,0.0,0.0,0.0,0.0,275.0,52963.0,Direct,,,View report (https://accesshub.pdc.wa.gov/node/79993),Transportation,Transportation electrification,"Senate Transportation Committee, House Environment & Energy Committee, House Transportation Committee, and Senate Environment, Energy & Technology Committee"
90148,79983-19548,79983,FE,17920,G SCOTT RICHARDS,Employer,19548,WA PUBLIC UTILITIES DISTS ASSN,21-Apr,5/25/2021,17176.0,WA PUBLIC UTILITIES DISTS ASSN,4000.0,0.0,4000.0,100.0,0.0,0.0,0.0,0.0,0.0,100.0,4100.0,19548.0,Direct,,,View report (https://accesshub.pdc.wa.gov/node/79983),Technology,"Improved Access to High Speed Broadband HB 1336, SB 5383","Rep. Hansen, Sen. Wellman, H CED, S EET, H APP, S WM, Governor's Office, Statewide Broadband Office"
90149,79984-19548,79984,FE,17920,G SCOTT RICHARDS,Employer,19548,WA PUBLIC UTILITIES DISTS ASSN,21-Mar,5/25/2021,17176.0,WA PUBLIC UTILITIES DISTS ASSN,4000.0,0.0,4000.0,100.0,0.0,0.0,0.0,0.0,0.0,100.0,4100.0,19548.0,Direct,,,View report (https://accesshub.pdc.wa.gov/node/79984),Technology,"Improved Access to High Speed Broadband HB 1336, SB 5383","Rep. Hansen, Sen. Wellman, H CED, S EET, H APP, S WM, Governor's Office, Statewide Broadband Office"
90150,79983-37088,79983,FE,17920,G SCOTT RICHARDS,Employer,37088,Clean Fuels Alliance America,21-Apr,5/25/2021,37026.0,Clean Fuels Alliance America,2333.0,0.0,2333.0,0.0,0.0,0.0,0.0,0.0,0.0,0.0,2333.0,37088.0,Direct,,,View report (https://accesshub.pdc.wa.gov/node/79983),Environmental Affairs - natural resources - parks,HB 1091 - Clean Fuel Standard,"H EE, S EET, H Transpo, S WM"
90151,79984-37088,79984,FE,17920,G SCOTT RICHARDS,Employer,37088,Clean Fuels Alliance America,21-Mar,5/25/2021,37026.0,Clean Fuels Alliance America,2333.0,0.0,2333.0,0.0,0.0,0.0,0.0,0.0,0.0,0.0,2333.0,37088.0,Direct,,,View report (https://accesshub.pdc.wa.gov/node/79984),Environmental Affairs - natural resources - parks,HB 1091 - Clean Fuel Standard,"H EE, S EET, H Transpo, S WM"
90152,79494-18283,79494,FE,17398,BOSWELL CONSULTING*,Employer,18283,AMERICAN INSTITUTE OF ARCHITECTS WA COUNCIL,21-Apr,5/26/2021,16076.0,AMERICAN INSTITUTE OF ARCHITECTS WA COUNCIL,2250.0,-321.43,1928.57,0.0,0.0,0.0,0.0,0.0,0.0,0.0,1928.57,18283.0,Direct,,,View report (https://accesshub.pdc.wa.gov/node/79494),Business and consumer affairs,various,various
90153,79679-56563,79679,FE,17460,COMMUNICO*,Employer,56563,Bayer U.S. LLC,21-Apr,5/26/2021,16185.0,Bayer U.S. LLC,3333.33,0.0,3333.33,0.0,0.0,0.0,0.0,0.0,0.0,0.0,3333.33,56563.0,Direct,,,View report (https://accesshub.pdc.wa.gov/node/79679),Agriculture,Seeds,"S - Agriculture & Natural Resources, H - Agriculture, Water, Trade & Econ. Dev."
90154,79679-18480,79679,FE,17460,COMMUNICO*,Employer,18480,COSTCO WHOLESALE,21-Apr,5/26/2021,16370.0,COSTCO WHOLESALE,5000.0,0.0,5000.0,0.0,0.0,0.0,0.0,0.0,0.0,0.0,5000.0,18480.0,Direct,,,View report (https://accesshub.pdc.wa.gov/node/79679),Business and consumer affairs,Liquor,"S - Commerce, Labor & Sports and H- Commerce & Gaming"
90155,79494-18285,79494,FE,17398,BOSWELL CONSULTING*,Employer,18285,GREATER SEATTLE CHAMBER OF COMMERCE,21-Apr,5/26/2021,16483.0,GREATER SEATTLE CHAMBER OF COMMERCE,8750.0,-321.43,8428.57,0.0,0.0,0.0,0.0,0.0,0.0,0.0,8428.57,18285.0,Direct,,,View report (https://accesshub.pdc.wa.gov/node/79494),Local government,various,various
90156,79996-72684,79996,FE,72570,SDMC,Employer,72684,The Mockingbird Society,21-Apr,5/26/2021,16639.0,The Mockingbird Society,4500.0,0.0,4500.0,0.0,0.0,0.0,0.0,0.0,0.0,0.0,4500.0,72684.0,Direct,,,View report (https://accesshub.pdc.wa.gov/node/79996),,,
90157,79679-18482,79679,FE,17460,COMMUNICO*,Employer,18482,NAIOP Washington State,21-Apr,5/26/2021,16669.0,NAIOP Washington State,8500.0,0.0,8500.0,151.01,0.0,1006.37,0.0,0.0,0.0,1157.38,9657.38,18482.0,Direct,,,View report (https://accesshub.pdc.wa.gov/node/79679),Environmental Affairs - natural resources - parks,"SEPA, GMA & Housing Taxes, Rent control, including participation in the Partnership for Affordable Housing","H and S Environment Cmtes., H and S Local Government, H and S State Government"
90158,79494-18287,79494,FE,17398,BOSWELL CONSULTING*,Employer,18287,NORTHWEST AUTOMATIC VENDING ASSN,21-Apr,5/26/2021,16699.0,NORTHWEST AUTOMATIC VENDING ASSN,1500.0,-321.43,1178.57,0.0,0.0,0.0,0.0,0.0,0.0,0.0,1178.57,18287.0,Direct,,,View report (https://accesshub.pdc.wa.gov/node/79494),Business and consumer affairs,various,various
90159,79494-18288,79494,FE,17398,BOSWELL CONSULTING*,Employer,18288,NUCOR STEEL SEATTLE INC,21-Apr,5/26/2021,16727.0,NUCOR STEEL SEATTLE INC,5000.0,-321.43,4678.57,0.0,0.0,0.0,0.0,0.0,533.34,533.34,5211.91,18288.0,Direct,,,View report (https://accesshub.pdc.wa.gov/node/79494),Business and consumer affairs,various,various
90160,79494-18289,79494,FE,17398,BOSWELL CONSULTING*,Employer,18289,MC Construction,21-Apr,5/26/2021,16790.0,MC Construction,3000.0,-321.43,2678.57,0.0,0.0,0.0,0.0,0.0,0.0,0.0,2678.57,18289.0,Direct,,,View report (https://accesshub.pdc.wa.gov/node/79494),Business and consumer affairs,various,various
90161,79494-49202,79494,FE,17398,BOSWELL CONSULTING*,Employer,49202,PORT OF KALAMA,21-Apr,5/26/2021,16800.0,PORT OF KALAMA,2500.0,-321.43,2178.57,0.0,0.0,0.0,0.0,0.0,0.0,0.0,2178.57,49202.0,Direct,,,View report (https://accesshub.pdc.wa.gov/node/79494),Transportation,various,various
90162,79494-40845,79494,FE,17398,BOSWELL CONSULTING*,Employer,40845,PEACEHEALTH,21-Apr,5/26/2021,16934.0,PEACEHEALTH,10000.0,-321.43,9678.57,0.0,0.0,0.0,0.0,0.0,0.0,0.0,9678.57,40845.0,Direct,,,View report (https://accesshub.pdc.wa.gov/node/79494),Health Care,various,various
90163,79442-18879,79442,FE,17589,GOVERNMENT RELATIONS SERVICES*,Employer,18879,"GB AUCTIONS, INC",21-Apr,5/26/2021,16940.0,"GB AUCTIONS, INC",2500.0,-1250.0,1250.0,0.0,0.0,0.0,0.0,0.0,0.0,0.0,1250.0,18879.0,Direct,,,View report (https://accesshub.pdc.wa.gov/node/79442),Business and consumer affairs,,"FISCAL, TRANSPORTATION, BUSINESS & CONSUMER AFFAIRS"
90164,79494-18291,79494,FE,17398,BOSWELL CONSULTING*,Employer,18291,Uber Technologies Inc and Affiliates,21-Apr,5/26/2021,17001.0,Uber Technologies Inc and Affiliates,5000.0,-321.43,4678.57,0.0,0.0,0.0,0.0,0.0,0.0,0.0,4678.57,18291.0,Direct,,,View report (https://accesshub.pdc.wa.gov/node/79494),Transportation,various,various
90165,79494-28159,79494,FE,17398,BOSWELL CONSULTING*,Employer,28159,VALLEY MEDICAL CENTER,21-Apr,5/26/2021,17027.0,VALLEY MEDICAL CENTER,7000.0,-321.43,6678.57,0.0,0.0,0.0,0.0,0.0,0.0,0.0,6678.57,28159.0,Direct,,,View report (https://accesshub.pdc.wa.gov/node/79494),Health Care,various,various
90166,79494-18292,79494,FE,17398,BOSWELL CONSULTING*,Employer,18292,VIGOR INDUSTRIAL,21-Apr,5/26/2021,17035.0,VIGOR INDUSTRIAL,5500.0,-321.43,5178.57,0.0,0.0,0.0,0.0,0.0,0.0,0.0,5178.57,18292.0,Direct,,,View report (https://accesshub.pdc.wa.gov/node/79494),Business and consumer affairs,various,various
90167,79679-18483,79679,FE,17460,COMMUNICO*,Employer,18483,T-MOBILE USA INC,21-Apr,5/26/2021,17038.0,T-MOBILE USA INC,7000.0,0.0,7000.0,0.0,0.0,0.0,0.0,0.0,0.0,0.0,7000.0,18483.0,Direct,,,View report (https://accesshub.pdc.wa.gov/node/79679),Energy and utilities,Telecommunications,"S - Energy, Environment & Telecom H - Technology Econ & Dev."
90168,80004-48490,80004,FE,17371,Neil Beaver,Employer,48490,WA ASSN OF CRIMINAL DEFENSE LAWYERS,21-Apr,5/26/2021,17075.0,WA ASSN OF CRIMINAL DEFENSE LAWYERS,2250.0,0.0,2250.0,0.0,0.0,0.0,0.0,0.0,0.0,0.0,2250.0,48490.0,Direct,,,View report (https://accesshub.pdc.wa.gov/node/80004),Law and justice,12821344116914135120512251235164,"Public Safety, Law and Justice, Behavioral Health and Reentry"
90169,79494-18293,79494,FE,17398,BOSWELL CONSULTING*,Employer,18293,CLEANTECH ALLIANCE,21-Apr,5/26/2021,17088.0,CLEANTECH ALLIANCE,4000.0,-321.43,3678.57,0.0,0.0,0.0,0.0,0.0,0.0,0.0,3678.57,18293.0,Direct,,,View report (https://accesshub.pdc.wa.gov/node/79494),Energy and utilities,various,various
90170,80004-47746,80004,FE,17371,Neil Beaver,Employer,47746,WA DEFENDER ASSN,21-Apr,5/26/2021,17092.0,WA DEFENDER ASSN,2250.0,0.0,2250.0,0.0,0.0,0.0,0.0,0.0,0.0,0.0,2250.0,47746.0,Direct,,,View report (https://accesshub.pdc.wa.gov/node/80004),Law and justice,12821344116914135120512251235164,"Public Safety, Law and Justice, Behavioral Health and Reentry"
90171,79494-18294,79494,FE,17398,BOSWELL CONSULTING*,Employer,18294,WA BEVERAGE ASSN,21-Apr,5/26/2021,17190.0,WA BEVERAGE ASSN,5500.0,0.0,5500.0,0.0,0.0,0.0,0.0,0.0,0.0,0.0,5500.0,18294.0,Direct,,,View report (https://accesshub.pdc.wa.gov/node/79494),Business and consumer affairs,various,various
90172,79494-28160,79494,FE,17398,BOSWELL CONSULTING*,Employer,28160,"WASTE MANAGEMENT OF WASHINGTON, INC.",21-Apr,5/26/2021,17260.0,"WASTE MANAGEMENT OF WASHINGTON, INC.",5265.0,-1821.43,3443.57,0.0,0.0,0.0,0.0,0.0,0.0,0.0,3443.57,28160.0,Direct,,,View report (https://accesshub.pdc.wa.gov/node/79494),Energy and utilities,various,various
90173,79679-18484,79679,FE,17460,COMMUNICO*,Employer,18484,Washington State Veterinary Medical Association,21-Apr,5/26/2021,17291.0,Washington State Veterinary Medical Association,5250.0,0.0,5250.0,149.58,0.0,0.0,0.0,0.0,0.0,149.58,5399.58,18484.0,Direct,,,View report (https://accesshub.pdc.wa.gov/node/79679),Health Care,"Health Care, Taxes and Animal Cruelty","S - Agriculture& Natural Resources, H - Agriculture, Water, Trade & Econ. Dev,S - Law & Justice, H - Judiciary, S - Health Care and H - Health Care & Wellness"
90174,79679-18485,79679,FE,17460,COMMUNICO*,Employer,18485,Western States Petroleum Assn.,21-Apr,5/26/2021,17302.0,Western States Petroleum Assn.,33333.33,0.0,33333.33,0.0,233.65,0.0,0.0,0.0,0.0,233.65,33566.98,18485.0,Direct,,,View report (https://accesshub.pdc.wa.gov/node/79679),Energy and utilities,"Petroleumn Issues, Transportation, Marine Safety and Taxes","H - Environment and S - Energy, Environment & Telecommunications"
90175,79679-18486,79679,FE,17460,COMMUNICO*,Employer,18486,The Williams Companies,21-Apr,5/26/2021,17311.0,The Williams Companies,2500.0,0.0,2500.0,0.0,0.0,0.0,0.0,0.0,0.0,0.0,2500.0,18486.0,Direct,,,View report (https://accesshub.pdc.wa.gov/node/79679),Environmental Affairs - natural resources - parks,Pipeline,"H - Environment and S - Energy, Environment & Telecommunications"
90176,79442-27526,79442,FE,17589,GOVERNMENT RELATIONS SERVICES*,Employer,27526,ACTION DD,21-Apr,5/26/2021,27525.0,ACTION DD,5000.0,-3333.32,1666.68,0.0,0.0,0.0,0.0,0.0,0.0,0.0,1666.68,27526.0,Direct,,,View report (https://accesshub.pdc.wa.gov/node/79442),Health Care,,"Capital budget, other fiscal"
90177,79996-72685,79996,FE,72570,SDMC,Employer,72685,"Third Sector New England, Inc.",21-Apr,5/26/2021,30421.0,"Third Sector New England, Inc.",3000.0,0.0,3000.0,0.0,0.0,0.0,0.0,0.0,0.0,0.0,3000.0,72685.0,Direct,,,View report (https://accesshub.pdc.wa.gov/node/79996),,,
90178,79494-36740,79494,FE,17398,BOSWELL CONSULTING*,Employer,36740,Port of Hood River,21-Apr,5/26/2021,36737.0,Port of Hood River,5000.0,-321.43,4678.57,0.0,0.0,0.0,0.0,0.0,0.0,0.0,4678.57,36740.0,Direct,,,View report (https://accesshub.pdc.wa.gov/node/79494),Transportation,various,various
90179,80004-57986,80004,FE,17371,Neil Beaver,Employer,57986,Recology,21-Apr,5/26/2021,57981.0,Recology,2500.0,0.0,2500.0,0.0,0.0,0.0,0.0,0.0,0.0,0.0,2500.0,57986.0,Direct,,,View report (https://accesshub.pdc.wa.gov/node/80004),Environmental Affairs - natural resources - parks,"5022, 1488",Environment Committees
90180,79494-58821,79494,FE,17398,BOSWELL CONSULTING*,Employer,58821,Violet Power,21-Apr,5/26/2021,58820.0,Violet Power,9000.0,0.0,9000.0,0.0,0.0,0.0,0.0,0.0,0.0,0.0,9000.0,58821.0,Direct,,,View report (https://accesshub.pdc.wa.gov/node/79494),Energy and utilities,various,various
90181,79494-67947,79494,FE,17398,BOSWELL CONSULTING*,Employer,67947,Seattle Arena Company,21-Apr,5/26/2021,67923.0,Seattle Arena Company,6000.0,-321.41,5678.59,0.0,0.0,0.0,0.0,0.0,0.0,0.0,5678.59,67947.0,Direct,,,View report (https://accesshub.pdc.wa.gov/node/79494),Business and consumer affairs,various,various
90182,79494-72121,79494,FE,17398,BOSWELL CONSULTING*,Employer,72121,Department of Natural Resources,21-Apr,5/26/2021,71922.0,Department of Natural Resources,5000.0,0.0,5000.0,0.0,0.0,0.0,0.0,0.0,0.0,0.0,5000.0,72121.0,Direct,,,View report (https://accesshub.pdc.wa.gov/node/79494),Environmental Affairs - natural resources - parks,various,various
90183,79996-74201,79996,FE,72570,SDMC,Employer,74201,Washington Census Alliance Action Fund,21-Apr,5/26/2021,74199.0,Washington Census Alliance Action Fund,3000.0,0.0,3000.0,0.0,0.0,0.0,0.0,0.0,0.0,0.0,3000.0,74201.0,Direct,,,View report (https://accesshub.pdc.wa.gov/node/79996),Human services,Human Services,Rep Johnson
90184,79995-76462,79995,FE,72202,Cascade AIDS Project,Employer,76462,Cascade AIDS Project,21-May,5/26/2021,76460.0,Cascade AIDS Project,3432.0,0.0,3432.0,0.0,0.0,0.0,0.0,0.0,0.0,0.0,3432.0,76462.0,Direct,,,View report (https://accesshub.pdc.wa.gov/node/79995),Health Care,HIV drug access,Washington State LGBTQ Commission
90185,80007-58112,80007,FE,58111,Janice Deguchi,Employer,58112,NEIGHBORHOOD HOUSE,21-Apr,5/27/2021,16680.0,NEIGHBORHOOD HOUSE,490.65,0.0,490.65,0.0,0.0,0.0,0.0,0.0,0.0,0.0,490.65,58112.0,Direct,,,View report (https://accesshub.pdc.wa.gov/node/80007),Health Care,home based LTC funding,"Rep Cody, Rep Macri"
90186,80010-70160,80010,FE,70158,Lianna Kressin,Employer,70160,STATEWIDE POVERTY ACTION NETWORK,21-Apr,5/27/2021,16952.0,STATEWIDE POVERTY ACTION NETWORK,271.89,0.0,271.89,0.0,0.0,0.0,0.0,0.0,0.0,0.0,271.89,70160.0,Direct,,,View report (https://accesshub.pdc.wa.gov/node/80010),Human services,"Basic Needs, TANF","DSHS, Senate and House members"
90187,80012-70160,80012,FE,70158,Lianna Kressin,Employer,70160,STATEWIDE POVERTY ACTION NETWORK,21-May,5/27/2021,16952.0,STATEWIDE POVERTY ACTION NETWORK,392.73,0.0,392.73,0.0,0.0,0.0,0.0,0.0,73.0,73.0,465.73,70160.0,Direct,,,View report (https://accesshub.pdc.wa.gov/node/80012),Human services,"Basic Needs, TANF","DSHS, Senate and House members"
90188,80011-31237,80011,FE,31236,Jim Blundell,Employer,31237,T-MOBILE USA INC,21-Apr,5/27/2021,17038.0,T-MOBILE USA INC,1340.0,0.0,1340.0,0.0,0.0,0.0,0.0,0.0,0.0,0.0,1340.0,31237.0,Direct,,,View report (https://accesshub.pdc.wa.gov/node/80011),Technology,"Telecommunications regulation, taxation, siting and infrastructure, fiscal, broadband deployment, privacy and data security.",Senators and Representatives
90189,80013-19839,80013,FE,18060,BILLY R WALLACE JR,Employer,19839,WA & NORTHERN IDAHO DIST COUNCIL LABORERS UNION,21-Apr,5/27/2021,17153.0,WA & NORTHERN IDAHO DIST COUNCIL LABORERS UNION,11799.76,0.0,11799.76,0.0,0.0,0.0,0.0,0.0,0.0,0.0,11799.76,19839.0,Direct,,,View report (https://accesshub.pdc.wa.gov/node/80013),Transportation,New Transportation Package,Senate and House
90190,80015-18236,80015,FE,17379,ERICA D HALLOCK,Employer,18236,EMPIRE HEALTH FOUNDATION,21-May,5/28/2021,16413.0,EMPIRE HEALTH FOUNDATION,1000.0,0.0,1000.0,0.0,0.0,0.0,0.0,0.0,0.0,0.0,1000.0,18236.0,Direct,,,View report (https://accesshub.pdc.wa.gov/node/80015),Human services,"network administrator child welfare, CARE Fund, Accountable Communities of Health","DCYF, HCA, Commerce, OFM, Sen Ways and Means, House Appropriations"
90191,79944-74945,79944,FE,74944,Karen Estevenin,Employer,74945,PROF & TECH EMPLOYEES LOCAL 17,21-Apr,5/28/2021,16521.0,PROF & TECH EMPLOYEES LOCAL 17,1000.0,0.0,1000.0,0.0,0.0,0.0,0.0,0.0,0.0,0.0,1000.0,74945.0,Direct,,,View report (https://accesshub.pdc.wa.gov/node/79944),Human services,"Housing Stability, HB 1236",Letter to Members of the House of Representatives
90192,80017-72738,80017,FE,72737,Paul Quinonez Figueroa,Employer,72738,WORKING WA,21-Apr,5/28/2021,17316.0,WORKING WA,336.28,0.0,336.28,0.0,0.0,0.0,0.0,0.0,2482.5,2482.5,2818.78,72738.0,Direct,,,View report (https://accesshub.pdc.wa.gov/node/80017),Labor,Restaurant Workers COVID-19 Protections,"Governor's Office, LNI"
90193,80015-61436,80015,FE,17379,ERICA D HALLOCK,Employer,61436,Start Early,21-May,5/28/2021,61435.0,Start Early,1000.0,0.0,1000.0,0.0,0.0,0.0,0.0,0.0,0.0,0.0,1000.0,61436.0,Direct,,,View report (https://accesshub.pdc.wa.gov/node/80015),Human services,"early learning, Fair Start Act","DCYF, OFM, House Children, Youth and Families, Sen EL & K-12, House Appropriations, Senate Ways and Means"
90194,79969-38041,79969,FE,17422,CARL E BURKE,Employer,38041,NORTHWEST MARINE TRADE ASSN,21-May,5/30/2021,16714.0,NORTHWEST MARINE TRADE ASSN,2500.0,0.0,2500.0,0.0,0.0,0.0,0.0,0.0,0.0,0.0,2500.0,38041.0,Direct,,,View report (https://accesshub.pdc.wa.gov/node/79969),Environmental Affairs - natural resources - parks,HB 1094/SB 5092,House Appropriations and Senate Ways and Means
90195,79969-18337,79969,FE,17422,CARL E BURKE,Employer,18337,NW SPORTFISHING INDUSTRY ASSN,21-May,5/30/2021,16721.0,NW SPORTFISHING INDUSTRY ASSN,2000.0,0.0,2000.0,0.0,0.0,0.0,0.0,0.0,0.0,0.0,2000.0,18337.0,Direct,,,View report (https://accesshub.pdc.wa.gov/node/79969),Environmental Affairs - natural resources - parks,HB 1094/SB 5092,House Appropriations and Senate Ways and Means
90196,79969-67344,79969,FE,17422,CARL E BURKE,Employer,67344,SALMON FOR THE FUTURE,21-May,5/30/2021,67333.0,SALMON FOR THE FUTURE,1000.0,0.0,1000.0,0.0,0.0,0.0,0.0,0.0,0.0,0.0,1000.0,67344.0,Direct,,,View report (https://accesshub.pdc.wa.gov/node/79969),Environmental Affairs - natural resources - parks,HB 1094/SB 5092,House Appropriations & Senate Ways and Means
90197,80021-50023,80021,FE,49453,"Samantha Slaughter, PsyD",Employer,50023,WA ST PSYCHOLOGICAL ASSN,21-May,5/31/2021,17269.0,WA ST PSYCHOLOGICAL ASSN,1625.0,0.0,1625.0,0.0,0.0,0.0,0.0,0.0,0.0,0.0,1625.0,50023.0,Direct,,,View report (https://accesshub.pdc.wa.gov/node/80021),Health Care,"Licensing WACs, practicum hour issue",Examining Board of Psychology
90198,80024-49630,80024,FE,49611,Devon S. Connor-Green,Employer,49630,ARNPS UNITED OF WA ST,21-May,6/1/2021,16070.0,ARNPS UNITED OF WA ST,1250.0,0.0,1250.0,0.0,0.0,0.0,0.0,0.0,0.0,0.0,1250.0,49630.0,Direct,,,View report (https://accesshub.pdc.wa.gov/node/80024),Health Care,Health Care,"H Health Care, S Health Care"
90199,80025-24862,80025,FE,18045,Amber Ulvenes,Employer,24862,ALZHEIMERS ASSN WA ST CHAPTER,21-May,6/1/2021,16086.0,ALZHEIMERS ASSN WA ST CHAPTER,1100.0,0.0,1100.0,0.0,0.0,0.0,0.0,0.0,0.0,0.0,1100.0,24862.0,Direct,,,View report (https://accesshub.pdc.wa.gov/node/80025),Health Care,FTE funding to support DAC,"Health Care & Appropriations Committees, Jt Selected Comm on Aging & Disability"
90200,80042-49713,80042,FE,17578,JEFFREY S GOMBOSKY,Employer,49713,"Graduation Alliance, Inc.",21-May,6/1/2021,16089.0,"Graduation Alliance, Inc.",3000.0,0.0,3000.0,0.0,0.0,0.0,0.0,0.0,0.0,0.0,3000.0,49713.0,Direct,,,View report (https://accesshub.pdc.wa.gov/node/80042),Education,Student reengagement and learning recovery,Office of the Superintendent of Public Instruction
90201,80025-35034,80025,FE,18045,Amber Ulvenes,Employer,35034,AMERICAN ACADEMY OF PEDIATRICS-WA CHAPTER,21-May,6/1/2021,16090.0,AMERICAN ACADEMY OF PEDIATRICS-WA CHAPTER,3150.0,0.0,3150.0,0.0,0.0,0.0,0.0,0.0,0.0,0.0,3150.0,35034.0,Direct,,,View report (https://accesshub.pdc.wa.gov/node/80025),Health Care,"Medicaid reimbursement, children's mental health","HCA, Health Care Committees, appropriation committees"
90202,80042-18801,80042,FE,17578,JEFFREY S GOMBOSKY,Employer,18801,ANHEUSER-BUSCH COMPANIES INC,21-May,6/1/2021,16128.0,ANHEUSER-BUSCH COMPANIES INC,5833.33,0.0,5833.33,0.0,0.0,0.0,0.0,0.0,0.0,0.0,5833.33,18801.0,Direct,,,View report (https://accesshub.pdc.wa.gov/node/80042),,,
90203,80024-70233,80024,FE,49611,Devon S. Connor-Green,Employer,70233,ASSN OF ADV PRACTICE PSYCHIATRIC NURSES,21-May,6/1/2021,16147.0,ASSN OF ADV PRACTICE PSYCHIATRIC NURSES,1250.0,0.0,1250.0,0.0,0.0,0.0,0.0,0.0,0.0,0.0,1250.0,70233.0,Direct,,,View report (https://accesshub.pdc.wa.gov/node/80024),Health Care,Health Care,"H Health Care, S Health Care"
90204,80042-18803,80042,FE,17578,JEFFREY S GOMBOSKY,Employer,18803,ENTERPRISE HOLDINGS LLC,21-May,6/1/2021,16396.0,ENTERPRISE HOLDINGS LLC,2500.0,0.0,2500.0,0.0,0.0,0.0,0.0,0.0,0.0,0.0,2500.0,18803.0,Direct,,,View report (https://accesshub.pdc.wa.gov/node/80042),Transportation,Transportation Budget,Sen. Curtis King
90205,80030-19089,80030,FE,17710,TERRY KOHL,Employer,19089,FAMILY WINERIES OF WA ST,21-May,6/1/2021,16434.0,FAMILY WINERIES OF WA ST,208.33,0.0,208.33,0.0,0.0,0.0,0.0,0.0,0.0,0.0,208.33,19089.0,Direct,,,View report (https://accesshub.pdc.wa.gov/node/80030),Business and consumer affairs,Washington Wineries,HS Senate Commerce Law
90206,79956-70168,79956,FE,69512,Sound Government Solutions,Employer,70168,FORD MOTOR CO,21-May,6/1/2021,16449.0,FORD MOTOR CO,1000.0,0.0,1000.0,0.0,0.0,0.0,0.0,0.0,0.0,0.0,1000.0,70168.0,Direct,,,View report (https://accesshub.pdc.wa.gov/node/79956),Transportation,Auto Manufacturing,Transportation Cmtes
90207,80030-76573,80030,FE,17710,TERRY KOHL,Employer,76573,"INTL COUNCIL OF SHOPPING CENTERS (Lobby Washington, LLC )",21-May,6/1/2021,16540.0,INTL COUNCIL OF SHOPPING CENTERS,625.0,0.0,625.0,0.0,0.0,0.0,0.0,0.0,0.0,0.0,625.0,76573.0,Subcontract,73982.0,"Lobby Washington, LLC",View report (https://accesshub.pdc.wa.gov/node/80030),,,
90208,79956-78013,79956,FE,69512,Sound Government Solutions,Employer,78013,JAMESTOWN S'KLALLAM TRIBE,21-May,6/1/2021,16557.0,JAMESTOWN S'KLALLAM TRIBE,6000.0,0.0,6000.0,0.0,0.0,0.0,0.0,0.0,0.0,0.0,6000.0,78013.0,Direct,,,View report (https://accesshub.pdc.wa.gov/node/79956),Environmental Affairs - natural resources - parks,Tribal Matters,Various
90209,80025-28555,80025,FE,18045,Amber Ulvenes,Employer,28555,Kaiser Foundation Health Plan of the Northwest,21-May,6/1/2021,16569.0,Kaiser Foundation Health Plan of the Northwest,1350.0,0.0,1350.0,0.0,0.0,0.0,0.0,0.0,0.0,0.0,1350.0,28555.0,Direct,,,View report (https://accesshub.pdc.wa.gov/node/80025),Health Care,Various health care issues,"Health Care Committees, HCA, OFM"
90210,80049-18128,80049,FE,17334,MARK ALLEN,Employer,18128,WA MASSAGE OWNERS ASSN,21-May,6/1/2021,16621.0,WA MASSAGE OWNERS ASSN,2800.0,0.0,2800.0,0.0,0.0,0.0,0.0,0.0,0.0,0.0,2800.0,18128.0,Direct,,,View report (https://accesshub.pdc.wa.gov/node/80049),,,
90211,80025-19818,80025,FE,18045,Amber Ulvenes,Employer,19818,MIDWIVES ASSOCIATION OF WA STATE,21-May,6/1/2021,16637.0,MIDWIVES ASSOCIATION OF WA STATE,1500.0,0.0,1500.0,0.0,0.0,0.0,0.0,0.0,0.0,0.0,1500.0,19818.0,Direct,,,View report (https://accesshub.pdc.wa.gov/node/80025),Health Care,"licensing fees, doula reimbursement","dept of health, HCA"
90212,80042-18807,80042,FE,17578,JEFFREY S GOMBOSKY,Employer,18807,MULTICARE HEALTH SYSTEM,21-May,6/1/2021,16651.0,MULTICARE HEALTH SYSTEM,7500.0,0.0,7500.0,0.0,0.0,0.0,0.0,0.0,0.0,0.0,7500.0,18807.0,Direct,,,View report (https://accesshub.pdc.wa.gov/node/80042),,,
90213,80037-19739,80037,FE,18019,MICHAEL TEMPLE,Employer,19739,PHARMACEUTICAL CARE MANAGEMENT ASSN,21-May,6/1/2021,16775.0,PHARMACEUTICAL CARE MANAGEMENT ASSN,5000.0,0.0,5000.0,0.0,0.0,0.0,0.0,0.0,0.0,0.0,5000.0,19739.0,Direct,,,View report (https://accesshub.pdc.wa.gov/node/80037),Health Care,Health Benefit issues,"Legislature,Governor,OIC,HCA"
90214,79956-70172,79956,FE,69512,Sound Government Solutions,Employer,70172,PHARMACEUTICAL CARE MANAGEMENT ASSN,21-May,6/1/2021,16775.0,PHARMACEUTICAL CARE MANAGEMENT ASSN,5000.0,0.0,5000.0,0.0,0.0,0.0,0.0,0.0,0.0,0.0,5000.0,70172.0,Direct,,,View report (https://accesshub.pdc.wa.gov/node/79956),Health Care,Health Care,"OIC, HCA, Health Care Cmtes"
90215,80042-18808,80042,FE,17578,JEFFREY S GOMBOSKY,Employer,18808,PHARMACEUTICAL RSRCH/MFG OF AMERICA,21-May,6/1/2021,16776.0,PHARMACEUTICAL RSRCH/MFG OF AMERICA,10833.33,0.0,10833.33,0.0,0.0,0.0,0.0,0.0,0.0,0.0,10833.33,18808.0,Direct,,,View report (https://accesshub.pdc.wa.gov/node/80042),,,
90216,79956-70186,79956,FE,69512,Sound Government Solutions,Employer,70186,Progressive,21-May,6/1/2021,16816.0,Progressive,5833.33,0.0,5833.33,0.0,0.0,0.0,0.0,0.0,0.0,0.0,5833.33,70186.0,Direct,,,View report (https://accesshub.pdc.wa.gov/node/79956),Financial institutions and insurance,Insurance,"OIC, Business Cmtes"
90217,79956-70264,79956,FE,69512,Sound Government Solutions,Employer,70264,PUYALLUP TRIBE OF INDIANS,21-May,6/1/2021,16835.0,PUYALLUP TRIBE OF INDIANS,5909.09,0.0,5909.09,0.0,0.0,0.0,0.0,0.0,0.0,0.0,5909.09,70264.0,Direct,,,View report (https://accesshub.pdc.wa.gov/node/79956),Environmental Affairs - natural resources - parks,Tribal Matter,Various
90218,79956-70239,79956,FE,69512,Sound Government Solutions,Employer,70239,REGENCE BLUE SHIELD,21-May,6/1/2021,16849.0,REGENCE BLUE SHIELD,11000.0,0.0,11000.0,0.0,0.0,0.0,0.0,0.0,0.0,0.0,11000.0,70239.0,Direct,,,View report (https://accesshub.pdc.wa.gov/node/79956),Health Care,Health Care,"OIC, Health Care & Business Cmtes"
90219,80042-72028,80042,FE,17578,JEFFREY S GOMBOSKY,Employer,72028,RENEWABLE NORTHWEST,21-May,6/1/2021,16854.0,RENEWABLE NORTHWEST,3500.0,0.0,3500.0,0.0,0.0,0.0,0.0,0.0,0.0,0.0,3500.0,72028.0,Direct,,,View report (https://accesshub.pdc.wa.gov/node/80042),,,
90220,80025-19820,80025,FE,18045,Amber Ulvenes,Employer,19820,RESOLUTION WA,21-May,6/1/2021,16856.0,RESOLUTION WA,1000.0,0.0,1000.0,0.0,0.0,0.0,0.0,0.0,0.0,0.0,1000.0,19820.0,Direct,,,View report (https://accesshub.pdc.wa.gov/node/80025),Law and justice,DRC funding,"Dept of Commerce, Law & Justice and Judiciary Committees, OFM"
90221,80037-19740,80037,FE,18019,MICHAEL TEMPLE,Employer,19740,SPOKANE TRIBE OF INDIANS,21-May,6/1/2021,16944.0,SPOKANE TRIBE OF INDIANS,5000.0,0.0,5000.0,0.0,0.0,0.0,0.0,0.0,0.0,0.0,5000.0,19740.0,Direct,,,View report (https://accesshub.pdc.wa.gov/node/80037),Environmental Affairs - natural resources - parks,Tribal issues,"Legislature,Governor,AG,DNR,WSGC,LCB"
90222,80042-39888,80042,FE,17578,JEFFREY S GOMBOSKY,Employer,39888,TESLA,21-May,6/1/2021,16979.0,TESLA,5000.0,0.0,5000.0,0.0,0.0,0.0,0.0,0.0,0.0,0.0,5000.0,39888.0,Direct,,,View report (https://accesshub.pdc.wa.gov/node/80042),Technology,SB 5126,Governor's Office
90223,79956-70187,79956,FE,69512,Sound Government Solutions,Employer,70187,Veritec Solutions,21-May,6/1/2021,17031.0,Veritec Solutions,2000.0,0.0,2000.0,0.0,0.0,0.0,0.0,0.0,0.0,0.0,2000.0,70187.0,Direct,,,View report (https://accesshub.pdc.wa.gov/node/79956),Financial institutions and insurance,Payday Lending,DFI
90224,79956-70169,79956,FE,69512,Sound Government Solutions,Employer,70169,WA BANKERS ASSN,21-May,6/1/2021,17061.0,WA BANKERS ASSN,5000.0,0.0,5000.0,0.0,0.0,0.0,0.0,0.0,0.0,0.0,5000.0,70169.0,Direct,,,View report (https://accesshub.pdc.wa.gov/node/79956),Financial institutions and insurance,Banking,"OIC, DFI, Business Cmtes"
90225,80042-18811,80042,FE,17578,JEFFREY S GOMBOSKY,Employer,18811,WA HEALTH CARE ASSN,21-May,6/1/2021,17128.0,WA HEALTH CARE ASSN,9000.0,0.0,9000.0,0.0,0.0,0.0,0.0,0.0,0.0,0.0,9000.0,18811.0,Direct,,,View report (https://accesshub.pdc.wa.gov/node/80042),,,
90226,79956-71009,79956,FE,69512,Sound Government Solutions,Employer,71009,Washington Land Title Association,21-May,6/1/2021,17146.0,Washington Land Title Association,5000.0,0.0,5000.0,0.0,0.0,0.0,0.0,0.0,0.0,0.0,5000.0,71009.0,Direct,,,View report (https://accesshub.pdc.wa.gov/node/79956),Financial institutions and insurance,Matters relating to real property,"OIC, Business Cmtes, Judiciary Cmtes & DOL"
90227,80049-18129,80049,FE,17334,MARK ALLEN,Employer,18129,WA ST ASSN OF BROADCASTERS,21-May,6/1/2021,17219.0,WA ST ASSN OF BROADCASTERS,1800.0,0.0,1800.0,0.0,0.0,0.0,0.0,0.0,0.0,0.0,1800.0,18129.0,Direct,,,View report (https://accesshub.pdc.wa.gov/node/80049),Fiscal,WAC 458-20-241,"Tim Danforth, Department of Revenue"
90228,80052-60411,80052,FE,59611,Alex Wehinger,Employer,60411,WA ST MEDICAL ASSN,21-May,6/1/2021,17261.0,WA ST MEDICAL ASSN,1500.0,0.0,1500.0,0.0,0.0,0.0,0.0,0.0,0.0,0.0,1500.0,60411.0,Direct,,,View report (https://accesshub.pdc.wa.gov/node/80052),Health Care,Various,Various
90229,80030-19093,80030,FE,17710,TERRY KOHL,Employer,19093,WA ST SNOWMOBILE ASSN,21-May,6/1/2021,17282.0,WA ST SNOWMOBILE ASSN,854.17,0.0,854.17,0.0,0.0,0.0,0.0,0.0,0.0,0.0,854.17,19093.0,Direct,,,View report (https://accesshub.pdc.wa.gov/node/80030),Environmental Affairs - natural resources - parks,Snowmobile Recreation,HS SEN Labor Commerce Healthcare DOL DOH
90230,80030-19094,80030,FE,17710,TERRY KOHL,Employer,19094,WA ST SELF STORAGE ASSN,21-May,6/1/2021,17287.0,WA ST SELF STORAGE ASSN,1245.83,0.0,1245.83,0.0,0.0,0.0,0.0,0.0,0.0,0.0,1245.83,19094.0,Direct,,,View report (https://accesshub.pdc.wa.gov/node/80030),Business and consumer affairs,Real Estate Self Storage Law,HS SEN Judicial Commerce Labor HS Business Finance
90231,80037-19741,80037,FE,18019,MICHAEL TEMPLE,Employer,19741,WA ST ASSN FOR JUSTICE,21-May,6/1/2021,17289.0,WA ST ASSN FOR JUSTICE,12500.0,0.0,12500.0,0.0,0.0,0.0,0.0,0.0,0.0,0.0,12500.0,19741.0,Direct,,,View report (https://accesshub.pdc.wa.gov/node/80037),Law and justice,Civil Justice issues,"Legislature,Govenor,OIC,AG,DNR,LNI"
90232,80044-73643,80044,FE,73642,Jeff Johnson,Employer,73643,REGIONAL WATER COOPERATIVE OF PIERCE CO,21-May,6/1/2021,17293.0,REGIONAL WATER COOPERATIVE OF PIERCE CO,3200.0,0.0,3200.0,100.0,0.0,0.0,0.0,0.0,0.0,100.0,3300.0,73643.0,Direct,,,View report (https://accesshub.pdc.wa.gov/node/80044),State government,"1220, 1139, 1329, 5472, utility customer assistance programs","Multiple House and Senate committees, Dept. of Commerce"
90233,79956-70190,79956,FE,69512,Sound Government Solutions,Employer,70190,Republic National Distributing Company,21-May,6/1/2021,17324.0,Republic National Distributing Company,4500.0,0.0,4500.0,0.0,0.0,0.0,0.0,0.0,0.0,0.0,4500.0,70190.0,Direct,,,View report (https://accesshub.pdc.wa.gov/node/79956),Business and consumer affairs,Liquor Regulation,"Senate Labor & Commerce, House Commerce & Gaming"
90234,79956-71234,79956,FE,69512,Sound Government Solutions,Employer,71234,"Teladoc Health, Inc.",21-May,6/1/2021,29480.0,"Teladoc Health, Inc.",6000.0,0.0,6000.0,0.0,0.0,0.0,0.0,0.0,0.0,0.0,6000.0,71234.0,Direct,,,View report (https://accesshub.pdc.wa.gov/node/79956),Health Care,Telehealth,"OIC, HCA, Medical Commission & Health Care Cmtes"
90235,80025-48779,80025,FE,18045,Amber Ulvenes,Employer,48779,Kaiser Foundation Health Plan of Washington,21-May,6/1/2021,30206.0,Kaiser Foundation Health Plan of Washington,11000.0,0.0,11000.0,0.0,0.0,0.0,0.0,0.0,0.0,0.0,11000.0,48779.0,Direct,,,View report (https://accesshub.pdc.wa.gov/node/80025),Health Care,"PEBB, health insurance market","HCA, Health Care Committees, appropriation committees"
90236,80029-51699,80029,FE,45903,"Doug Mah & Associates, LLC",Employer,51699,Thurston County Chamber of Commerce,21-May,6/1/2021,47800.0,Thurston County Chamber of Commerce,1500.0,0.0,1500.0,0.0,0.0,0.0,0.0,0.0,0.0,0.0,1500.0,51699.0,Direct,,,View report (https://accesshub.pdc.wa.gov/node/80029),Fiscal,transportation and capital budget,"Reps: Dolan, Bateman (22 LD) Barkis (2 LD), Sen: Hunt (22 LD)"
90237,80025-49486,80025,FE,18045,Amber Ulvenes,Employer,49486,Open Arms Perinatal Services,21-May,6/1/2021,49474.0,Open Arms Perinatal Services,1000.0,0.0,1000.0,0.0,0.0,0.0,0.0,0.0,0.0,0.0,1000.0,49486.0,Direct,,,View report (https://accesshub.pdc.wa.gov/node/80025),Health Care,Health Care,"HCA, Health Care Committees,"
90238,80039-49514,80039,FE,17773,CHRIS MARR,Employer,49514,Grow Op Farms LLC,21-May,6/1/2021,49513.0,Grow Op Farms LLC,2500.0,0.0,2500.0,0.0,0.0,0.0,0.0,0.0,0.0,0.0,2500.0,49514.0,Direct,,,View report (https://accesshub.pdc.wa.gov/node/80039),Business and consumer affairs,Licensed cannabis industry.,"House Commerce & Gaming, Senate Labor & Commerce, LCB"
90239,80039-49516,80039,FE,17773,CHRIS MARR,Employer,49516,23rd Neighborhood Improvement LLC dba Uncle Ike's,21-May,6/1/2021,49515.0,23rd Neighborhood Improvement LLC dba Uncle Ike's,2000.0,0.0,2000.0,0.0,0.0,0.0,0.0,0.0,0.0,0.0,2000.0,49516.0,Direct,,,View report (https://accesshub.pdc.wa.gov/node/80039),Business and consumer affairs,Licensed cannabis industry.,"House Commerce & Gaming, Senate Labor & Commerce, LCB"
90240,80039-76181,80039,FE,17773,CHRIS MARR,Employer,76181,"Live Nation Entertainment, Inc.",21-May,6/1/2021,63596.0,"Live Nation Entertainment, Inc.",6000.0,-3000.0,3000.0,0.0,0.0,0.0,0.0,0.0,0.0,0.0,3000.0,76181.0,Direct,,,View report (https://accesshub.pdc.wa.gov/node/80039),Business and consumer affairs,Post-pandemic reopening.,"Governor's Office, Dept. of Commerce."
90241,80042-78099,80042,FE,17578,JEFFREY S GOMBOSKY,Employer,78099,"Live Nation Entertainment, Inc. (CHRIS MARR)",21-May,6/1/2021,63596.0,"Live Nation Entertainment, Inc.",3000.0,0.0,3000.0,0.0,0.0,0.0,0.0,0.0,0.0,0.0,3000.0,78099.0,Subcontract,17773.0,CHRIS MARR,View report (https://accesshub.pdc.wa.gov/node/80042),,,
90242,80024-72697,80024,FE,49611,Devon S. Connor-Green,Employer,72697,Black Lives Matter Seattle-King County,21-May,6/1/2021,72681.0,Black Lives Matter Seattle-King County,5000.0,0.0,5000.0,0.0,0.0,0.0,0.0,0.0,0.0,0.0,5000.0,72697.0,Direct,,,View report (https://accesshub.pdc.wa.gov/node/80024),Law and justice,Social Justice,All House & Senate
90243,80025-72793,80025,FE,18045,Amber Ulvenes,Employer,72793,Compassion & Choices Action Network,21-May,6/1/2021,72787.0,Compassion & Choices Action Network,2727.27,0.0,2727.27,0.0,0.0,0.0,0.0,0.0,0.0,0.0,2727.27,72793.0,Direct,,,View report (https://accesshub.pdc.wa.gov/node/80025),Health Care,Health Care,Health Care Committees
90244,80024-74214,80024,FE,49611,Devon S. Connor-Green,Employer,74214,Administrative Office of the Courts,21-May,6/1/2021,74209.0,Administrative Office of the Courts,5000.0,0.0,5000.0,0.0,0.0,0.0,0.0,0.0,0.0,0.0,5000.0,74214.0,Direct,,,View report (https://accesshub.pdc.wa.gov/node/80024),Law and justice,Law & Justice,"H & S Civil Rights, Judiciary, and Justice"
90246,80029-78068,80029,FE,45903,"Doug Mah & Associates, LLC",Employer,78068,Olympia Tumwater Foundation,21-May,6/1/2021,77610.0,Olympia Tumwater Foundation,1000.0,0.0,1000.0,0.0,0.0,0.0,0.0,0.0,0.0,0.0,1000.0,78068.0,Direct,,,View report (https://accesshub.pdc.wa.gov/node/80029),Fiscal,Capital budget,"Bateman, Dolan, Hunt"
90247,80110-18983,80110,FE,17654,Trent M House,Employer,18983,AEROSPACE FUTURES ALLIANCE OF WASHINGTON LTD,21-May,6/2/2021,16071.0,AEROSPACE FUTURES ALLIANCE OF WASHINGTON LTD,4000.0,0.0,4000.0,0.0,0.0,0.0,0.0,0.0,0.0,0.0,4000.0,18983.0,Direct,,,View report (https://accesshub.pdc.wa.gov/node/80110),Labor,"Workers Compensation, Taxes",Commerce and Labor Committees
90248,80109-18813,80109,FE,17579,Melissa M Gombosky,Employer,18813,ASSN OF AMERICAN PUBLISHERS,21-May,6/2/2021,16116.0,ASSN OF AMERICAN PUBLISHERS,4000.0,0.0,4000.0,0.0,0.0,0.0,0.0,0.0,0.0,0.0,4000.0,18813.0,Direct,,,View report (https://accesshub.pdc.wa.gov/node/80109),Education,Education Issues,Education Committees
90249,80056-65284,80056,FE,17536,Nick Federici,Employer,65284,BP AMERICA INC,21-May,6/2/2021,16139.0,BP AMERICA INC,6000.0,0.0,6000.0,0.0,0.0,0.0,0.0,0.0,0.0,0.0,6000.0,65284.0,Direct,,,View report (https://accesshub.pdc.wa.gov/node/80056),Environmental Affairs - natural resources - parks,Enviroment,Enviroment
90250,80101-26596,80101,FE,26595,STEVEN SCHULTZ,Employer,26596,ARTHRITIS FOUNDATION,21-May,6/2/2021,16140.0,ARTHRITIS FOUNDATION,6853.84,0.0,6853.84,0.0,0.0,0.0,0.0,0.0,0.0,0.0,6853.84,26596.0,Direct,,,View report (https://accesshub.pdc.wa.gov/node/80101),Health Care,"Telehealth, Juvenile arthritis/pediatric rheumatology",Legislature
90251,80094-73925,80094,FE,17496,DOTY & ASSOC INC*,Employer,73925,CENTURYLINK,21-May,6/2/2021,16244.0,CENTURYLINK,6000.0,-3000.0,3000.0,0.0,0.0,0.0,0.0,0.0,0.0,0.0,3000.0,73925.0,Direct,,,View report (https://accesshub.pdc.wa.gov/node/80094),State government,,
90252,80102-73930,80102,FE,26001,BMcConsulting,Employer,73930,CENTURYLINK (DOTY & ASSOC INC*),21-May,6/2/2021,16244.0,CENTURYLINK,3000.0,0.0,3000.0,0.0,0.0,0.0,0.0,0.0,0.0,0.0,3000.0,73930.0,Subcontract,17496.0,DOTY & ASSOC INC*,View report (https://accesshub.pdc.wa.gov/node/80102),,,
90253,80057-19862,80057,FE,18074,Waypoint Consulting Group,Employer,19862,CITY OF KIRKLAND,21-May,6/2/2021,16289.0,CITY OF KIRKLAND,6000.0,0.0,6000.0,0.0,0.0,0.0,0.0,0.0,0.0,0.0,6000.0,19862.0,Direct,,,View report (https://accesshub.pdc.wa.gov/node/80057),Local government,Local Govt,"Local Govt, State Government, Finance, DOT, Commerce"
90254,80056-26261,80056,FE,17536,Nick Federici,Employer,26261,CITY OF SPOKANE,21-May,6/2/2021,16314.0,CITY OF SPOKANE,3500.0,0.0,3500.0,0.0,0.0,0.0,0.0,0.0,0.0,0.0,3500.0,26261.0,Direct,,,View report (https://accesshub.pdc.wa.gov/node/80056),,,
90255,80056-47022,80056,FE,17536,Nick Federici,Employer,47022,CITY OF YAKIMA,21-May,6/2/2021,16321.0,CITY OF YAKIMA,2500.0,0.0,2500.0,0.0,0.0,0.0,0.0,0.0,0.0,0.0,2500.0,47022.0,Direct,,,View report (https://accesshub.pdc.wa.gov/node/80056),,,
90256,80094-39336,80094,FE,17496,DOTY & ASSOC INC*,Employer,39336,LAMAR ADVERTISING,21-May,6/2/2021,16325.0,LAMAR ADVERTISING,2500.0,0.0,2500.0,0.0,0.0,0.0,0.0,0.0,0.0,0.0,2500.0,39336.0,Direct,,,View report (https://accesshub.pdc.wa.gov/node/80094),State government,,
90257,80057-19863,80057,FE,18074,Waypoint Consulting Group,Employer,19863,CLIMATE SOLUTIONS,21-May,6/2/2021,16327.0,CLIMATE SOLUTIONS,4500.0,0.0,4500.0,0.0,0.0,0.0,0.0,0.0,0.0,0.0,4500.0,19863.0,Direct,,,View report (https://accesshub.pdc.wa.gov/node/80057),Environmental Affairs - natural resources - parks,Enviroment,"Environment, Transportation, TED, WEE, DOE, Finance"
90258,80055-18529,80055,FE,17479,ROMAN M DANIELS-BROWN,Employer,18529,DaVita Inc.,21-May,6/2/2021,16380.0,DaVita Inc.,6000.0,0.0,6000.0,41.0,0.0,0.0,0.0,0.0,0.0,41.0,6041.0,18529.0,Direct,,,View report (https://accesshub.pdc.wa.gov/node/80055),Health Care,Health Care,Health Care
90259,80094-18566,80094,FE,17496,DOTY & ASSOC INC*,Employer,18566,ENTERPRISE HOLDINGS LLC,21-May,6/2/2021,16396.0,ENTERPRISE HOLDINGS LLC,2500.0,0.0,2500.0,0.0,0.0,0.0,0.0,0.0,0.0,0.0,2500.0,18566.0,Direct,,,View report (https://accesshub.pdc.wa.gov/node/80094),State government,,
90260,80109-18814,80109,FE,17579,Melissa M Gombosky,Employer,18814,EDUCATIONAL SERVICE DISTRICT 105,21-May,6/2/2021,16406.0,EDUCATIONAL SERVICE DISTRICT 105,3333.33,0.0,3333.33,0.0,0.0,0.0,0.0,0.0,0.0,0.0,3333.33,18814.0,Direct,,,View report (https://accesshub.pdc.wa.gov/node/80109),Education,Education Issues,Education Committees
90261,80109-34839,80109,FE,17579,Melissa M Gombosky,Employer,34839,EVERGREEN SCHOOL DIST #114,21-May,6/2/2021,16423.0,EVERGREEN SCHOOL DIST #114,6000.0,0.0,6000.0,0.0,0.0,0.0,0.0,0.0,0.0,0.0,6000.0,34839.0,Direct,,,View report (https://accesshub.pdc.wa.gov/node/80109),Environmental Affairs - natural resources - parks,education issues,Education Committees
90262,80056-18690,80056,FE,17536,Nick Federici,Employer,18690,FAIRFAX HOSPITAL,21-May,6/2/2021,16431.0,FAIRFAX HOSPITAL,3600.0,0.0,3600.0,0.0,0.0,0.0,0.0,0.0,0.0,0.0,3600.0,18690.0,Direct,,,View report (https://accesshub.pdc.wa.gov/node/80056),Health Care,Mental Health,"Senate HC, Ways, HSMHH, House HC, Approps"
90263,80053-18237,80053,FE,17380,Paul B Benz,Employer,18237,FAITH ACTION NETWORK,21-Mar,6/2/2021,16432.0,FAITH ACTION NETWORK,615.18,0.0,615.18,0.0,0.0,0.0,0.0,0.0,0.0,0.0,615.18,18237.0,Direct,,,View report (https://accesshub.pdc.wa.gov/node/80053),Law and justice,"HB 5226, HB 1507, HB 5051, HB 1310, HB 1054, HB 1267, HB 1282, SB 5164, HB 1072, HB 1090, SB 5038","Law & Justice Committee, Transportation Committee, Public Safety Committee, Ways & Means Committee, Appropriations Committee, Rules Committee, Rep. Hackney, Judiciary Committee"
90264,80111-18237,80111,FE,17380,Paul B Benz,Employer,18237,FAITH ACTION NETWORK,21-Apr,6/2/2021,16432.0,FAITH ACTION NETWORK,249.56,0.0,249.56,0.0,0.0,0.0,0.0,0.0,0.0,0.0,249.56,18237.0,Direct,,,View report (https://accesshub.pdc.wa.gov/node/80111),Fiscal,SB 5096,"Rep. Walen, Rep. Callan"
90265,80094-18567,80094,FE,17496,DOTY & ASSOC INC*,Employer,18567,FIRE SPRINKLER ADVISORY BD OF PUGET SOUND,21-May,6/2/2021,16444.0,FIRE SPRINKLER ADVISORY BD OF PUGET SOUND,2100.0,-1050.0,1050.0,35.0,0.0,0.0,0.0,0.0,0.0,35.0,1085.0,18567.0,Direct,,,View report (https://accesshub.pdc.wa.gov/node/80094),State government,,
90266,80102-26108,80102,FE,26001,BMcConsulting,Employer,26108,FIRE SPRINKLER ADVISORY BD OF PUGET SOUND (DOTY & ASSOC INC*),21-May,6/2/2021,16444.0,FIRE SPRINKLER ADVISORY BD OF PUGET SOUND,1050.0,0.0,1050.0,0.0,0.0,0.0,0.0,0.0,0.0,0.0,1050.0,26108.0,Subcontract,17496.0,DOTY & ASSOC INC*,View report (https://accesshub.pdc.wa.gov/node/80102),,,
90267,80110-18984,80110,FE,17654,Trent M House,Employer,18984,GENENTECH,21-May,6/2/2021,16467.0,GENENTECH,3000.0,0.0,3000.0,0.0,0.0,0.0,0.0,0.0,0.0,0.0,3000.0,18984.0,Direct,,,View report (https://accesshub.pdc.wa.gov/node/80110),Health Care,Drug Pricing,Health Care Committees
90268,80109-18816,80109,FE,17579,Melissa M Gombosky,Employer,18816,INLAND EMPIRE PAPER,21-May,6/2/2021,16530.0,INLAND EMPIRE PAPER,3500.0,0.0,3500.0,0.0,0.0,0.0,0.0,0.0,0.0,0.0,3500.0,18816.0,Direct,,,View report (https://accesshub.pdc.wa.gov/node/80109),Environmental Affairs - natural resources - parks,environmental issues,environmental Committees
90269,80057-19864,80057,FE,18074,Waypoint Consulting Group,Employer,19864,JOINT COUNCIL OF TEAMSTERS #28,21-May,6/2/2021,16564.0,JOINT COUNCIL OF TEAMSTERS #28,6250.0,0.0,6250.0,0.0,0.0,0.0,0.0,0.0,0.0,0.0,6250.0,19864.0,Direct,,,View report (https://accesshub.pdc.wa.gov/node/80057),Labor,Labor,"Labor & Commerce, W&M, Approps, Finance, Education"
90270,80094-18568,80094,FE,17496,DOTY & ASSOC INC*,Employer,18568,KITSAP TRANSIT,21-May,6/2/2021,16581.0,KITSAP TRANSIT,5350.0,0.0,5350.0,35.0,0.0,0.0,0.0,0.0,0.0,35.0,5385.0,18568.0,Direct,,,View report (https://accesshub.pdc.wa.gov/node/80094),State government,,
90271,80087-53719,80087,FE,29086,Melanie Thurlow,Employer,53719,LIBERTY MUTUAL INSURANCE,21-May,6/2/2021,16604.0,LIBERTY MUTUAL INSURANCE,3000.0,0.0,3000.0,0.0,0.0,0.0,0.0,0.0,0.0,0.0,3000.0,53719.0,Direct,,,View report (https://accesshub.pdc.wa.gov/node/80087),Financial institutions and insurance,COVID19 Emergency Orders,Office of Insurance Commissioner
90272,80094-18569,80094,FE,17496,DOTY & ASSOC INC*,Employer,18569,MUCKLESHOOT INDIAN TRIBE,21-May,6/2/2021,16650.0,MUCKLESHOOT INDIAN TRIBE,9237.5,0.0,9237.5,0.0,0.0,0.0,0.0,0.0,0.0,0.0,9237.5,18569.0,Direct,,,View report (https://accesshub.pdc.wa.gov/node/80094),State government,,
90273,80057-19865,80057,FE,18074,Waypoint Consulting Group,Employer,19865,NON-PROFIT INSURANCE PROGRAM,21-May,6/2/2021,16691.0,NON-PROFIT INSURANCE PROGRAM,2500.0,0.0,2500.0,0.0,0.0,0.0,0.0,0.0,0.0,0.0,2500.0,19865.0,Direct,,,View report (https://accesshub.pdc.wa.gov/node/80057),Financial institutions and insurance,Insurance Pools,"BFS, FII, DES"
90274,80055-18531,80055,FE,17479,ROMAN M DANIELS-BROWN,Employer,18531,"Novartis Services, Inc.",21-May,6/2/2021,16725.0,"Novartis Services, Inc.",4583.33,0.0,4583.33,0.0,0.0,0.0,0.0,0.0,0.0,0.0,4583.33,18531.0,Direct,,,View report (https://accesshub.pdc.wa.gov/node/80055),Health Care,pharmaceuticals,health care
90275,80055-18532,80055,FE,17479,ROMAN M DANIELS-BROWN,Employer,18532,PACIFIC DENTAL SERVICES,21-May,6/2/2021,16749.0,PACIFIC DENTAL SERVICES,6000.0,0.0,6000.0,41.0,0.0,0.0,0.0,0.0,0.0,41.0,6041.0,18532.0,Direct,,,View report (https://accesshub.pdc.wa.gov/node/80055),Health Care,Dental Care,Health Care
90276,80094-18571,80094,FE,17496,DOTY & ASSOC INC*,Employer,18571,PARATRANSIT SERVICES,21-May,6/2/2021,16762.0,PARATRANSIT SERVICES,3000.0,0.0,3000.0,35.0,0.0,0.0,0.0,0.0,0.0,35.0,3035.0,18571.0,Direct,,,View report (https://accesshub.pdc.wa.gov/node/80094),State government,,
90277,80109-18818,80109,FE,17579,Melissa M Gombosky,Employer,18818,PERSONAL CARE PRODUCTS COUNCIL,21-May,6/2/2021,16773.0,PERSONAL CARE PRODUCTS COUNCIL,3000.0,0.0,3000.0,0.0,0.0,0.0,0.0,0.0,0.0,0.0,3000.0,18818.0,Direct,,,View report (https://accesshub.pdc.wa.gov/node/80109),Environmental Affairs - natural resources - parks,environmental issues,environment Committees
90278,80056-18692,80056,FE,17536,Nick Federici,Employer,18692,PIONEER HUMAN SERVICES,21-May,6/2/2021,16788.0,PIONEER HUMAN SERVICES,3000.0,0.0,3000.0,0.0,0.0,0.0,0.0,0.0,0.0,0.0,3000.0,18692.0,Direct,,,View report (https://accesshub.pdc.wa.gov/node/80056),Human services,"Mental health, chemical dependency, criminal justice","Senate HC, Ways, HSMHH, L&J, House HC, Approps, Pub safety"
90279,80062-70470,80062,FE,70469,Johns-Brown Governmental Relations,Employer,70470,PLANNED PARENTHOOD ALLIANCE ADVOCATES,21-May,6/2/2021,16789.0,PLANNED PARENTHOOD ALLIANCE ADVOCATES,1000.0,0.0,1000.0,0.0,0.0,0.0,0.0,0.0,0.0,0.0,1000.0,70470.0,Direct,,,View report (https://accesshub.pdc.wa.gov/node/80062),Health Care,access to women's health care,House Health Care and Wellness
90280,80094-18572,80094,FE,17496,DOTY & ASSOC INC*,Employer,18572,PORT OF BREMERTON,21-May,6/2/2021,16793.0,PORT OF BREMERTON,2500.0,0.0,2500.0,0.0,0.0,0.0,0.0,0.0,0.0,0.0,2500.0,18572.0,Direct,,,View report (https://accesshub.pdc.wa.gov/node/80094),State government,,
90281,80110-18987,80110,FE,17654,Trent M House,Employer,18987,PORT OF SEATTLE,21-May,6/2/2021,16805.0,PORT OF SEATTLE,7000.0,0.0,7000.0,0.0,0.0,0.0,0.0,0.0,0.0,0.0,7000.0,18987.0,Direct,,,View report (https://accesshub.pdc.wa.gov/node/80110),Transportation,"Real ID, TNC's, Taxi Cabs, Elections","Transportation Committees, Local Government Committees"
90282,80110-18988,80110,FE,17654,Trent M House,Employer,18988,PROVIDENCE HEALTH & SERVICES- WA,21-May,6/2/2021,16821.0,PROVIDENCE HEALTH & SERVICES- WA,6000.0,0.0,6000.0,0.0,0.0,0.0,0.0,0.0,0.0,0.0,6000.0,18988.0,Direct,,,View report (https://accesshub.pdc.wa.gov/node/80110),Health Care,Dental Residencies,Health Care Committee
90283,80057-19866,80057,FE,18074,Waypoint Consulting Group,Employer,19866,Puget Sound Pilots,21-May,6/2/2021,16831.0,Puget Sound Pilots,6250.0,0.0,6250.0,0.0,0.0,0.0,0.0,0.0,0.0,0.0,6250.0,19866.0,Direct,,,View report (https://accesshub.pdc.wa.gov/node/80057),Transportation,Maritime transporation,"Environment, TED, BOPC, OFM"
90284,80109-70488,80109,FE,17579,Melissa M Gombosky,Employer,70488,Richland School District,21-May,6/2/2021,16860.0,Richland School District,3500.0,0.0,3500.0,0.0,0.0,0.0,0.0,0.0,0.0,0.0,3500.0,70488.0,Direct,,,View report (https://accesshub.pdc.wa.gov/node/80109),Education,Education,Education Committees
90285,80099-80001,80099,FE,46174,"Washington Government Relations, LLC",Employer,80001,RENTAL HOUSING ASSN OF WA,21-Jan,6/2/2021,16894.0,RENTAL HOUSING ASSN OF WA,2000.0,0.0,2000.0,0.0,0.0,0.0,0.0,0.0,0.0,0.0,2000.0,80001.0,Direct,,,View report (https://accesshub.pdc.wa.gov/node/80099),Business and consumer affairs,Landlord / Tenant,"Senate Housing & Local Government Committee, House Housing, Human Services & Veterans Committee"
90286,80105-80001,80105,FE,46174,"Washington Government Relations, LLC",Employer,80001,RENTAL HOUSING ASSN OF WA,21-Feb,6/2/2021,16894.0,RENTAL HOUSING ASSN OF WA,2000.0,0.0,2000.0,0.0,0.0,0.0,0.0,0.0,0.0,0.0,2000.0,80001.0,Direct,,,View report (https://accesshub.pdc.wa.gov/node/80105),Business and consumer affairs,Landlord / Tenant,"Senate Housing & Local Government Committee, House Housing, Human Services & Veterans Committee"
90287,80106-80001,80106,FE,46174,"Washington Government Relations, LLC",Employer,80001,RENTAL HOUSING ASSN OF WA,21-Mar,6/2/2021,16894.0,RENTAL HOUSING ASSN OF WA,2000.0,0.0,2000.0,0.0,0.0,0.0,0.0,0.0,0.0,0.0,2000.0,80001.0,Direct,,,View report (https://accesshub.pdc.wa.gov/node/80106),Business and consumer affairs,Landlord / Tenant,"Senate Housing & Local Government Committee, House Housing, Human Services & Veterans Committee"
90288,80107-80001,80107,FE,46174,"Washington Government Relations, LLC",Employer,80001,RENTAL HOUSING ASSN OF WA,21-Apr,6/2/2021,16894.0,RENTAL HOUSING ASSN OF WA,2000.0,0.0,2000.0,0.0,0.0,0.0,0.0,0.0,0.0,0.0,2000.0,80001.0,Direct,,,View report (https://accesshub.pdc.wa.gov/node/80107),Business and consumer affairs,Landlord / Tenant,"Senate Housing & Local Government Committee, House Housing, Human Services & Veterans Committee"
90289,80108-80001,80108,FE,46174,"Washington Government Relations, LLC",Employer,80001,RENTAL HOUSING ASSN OF WA,21-May,6/2/2021,16894.0,RENTAL HOUSING ASSN OF WA,2000.0,0.0,2000.0,0.0,0.0,0.0,0.0,0.0,0.0,0.0,2000.0,80001.0,Direct,,,View report (https://accesshub.pdc.wa.gov/node/80108),Business and consumer affairs,Landlord / Tenant,"Senate Housing & Local Government Committee, House Housing, Human Services & Veterans Committee"
90290,80056-18694,80056,FE,17536,Nick Federici,Employer,18694,SEIU 775,21-May,6/2/2021,16905.0,SEIU 775,2500.0,0.0,2500.0,0.0,0.0,0.0,0.0,0.0,0.0,0.0,2500.0,18694.0,Direct,,,View report (https://accesshub.pdc.wa.gov/node/80056),Health Care,Long-Term Care,"Senate HC, Ways, House HC, Approps"
90291,80094-50029,80094,FE,17496,DOTY & ASSOC INC*,Employer,50029,"GB AUCTIONS, INC  (GOVERNMENT RELATIONS SERVICES*)",21-May,6/2/2021,16940.0,"GB AUCTIONS, INC",1250.0,0.0,1250.0,0.0,0.0,0.0,0.0,0.0,0.0,0.0,1250.0,50029.0,Subcontract,17589.0,GOVERNMENT RELATIONS SERVICES*,View report (https://accesshub.pdc.wa.gov/node/80094),,,
90292,80057-19868,80057,FE,18074,Waypoint Consulting Group,Employer,19868,STATEWIDE POVERTY ACTION NETWORK,21-May,6/2/2021,16952.0,STATEWIDE POVERTY ACTION NETWORK,3000.0,0.0,3000.0,0.0,0.0,0.0,0.0,0.0,0.0,0.0,3000.0,19868.0,Direct,,,View report (https://accesshub.pdc.wa.gov/node/80057),Business and consumer affairs,Consumer Protection,"BFS, FII,GGIT, DFI,AGO, Judiciary"
90293,80055-39257,80055,FE,17479,ROMAN M DANIELS-BROWN,Employer,39257,Astria Health,21-May,6/2/2021,16957.0,Astria Health,6000.0,0.0,6000.0,41.0,0.0,0.0,0.0,0.0,0.0,41.0,6041.0,39257.0,Direct,,,View report (https://accesshub.pdc.wa.gov/node/80055),Health Care,Health care,Health care
90294,80055-18534,80055,FE,17479,ROMAN M DANIELS-BROWN,Employer,18534,TAKEDA PHARMACEUTICALS,21-May,6/2/2021,16970.0,TAKEDA PHARMACEUTICALS,5000.0,0.0,5000.0,0.0,0.0,0.0,0.0,0.0,0.0,0.0,5000.0,18534.0,Direct,,,View report (https://accesshub.pdc.wa.gov/node/80055),Health Care,Health Care,Health Care Committees
90295,80056-18695,80056,FE,17536,Nick Federici,Employer,18695,UNITED WAY OF KING CO,21-May,6/2/2021,17018.0,UNITED WAY OF KING CO,3833.33,0.0,3833.33,0.0,0.0,0.0,0.0,0.0,0.0,0.0,3833.33,18695.0,Direct,,,View report (https://accesshub.pdc.wa.gov/node/80056),Human services,"Housing, homelessness, early learning, human services","Senate HSMHH, Ways, FII, K-12, House Approps, Comm Dev, HS/EL, Ed"
90296,80055-73251,80055,FE,17479,ROMAN M DANIELS-BROWN,Employer,73251,WA AMBULATORY SURGERY CENTER ASSN,21-May,6/2/2021,17060.0,WA AMBULATORY SURGERY CENTER ASSN,4000.0,0.0,4000.0,0.0,0.0,0.0,0.0,0.0,0.0,0.0,4000.0,73251.0,Direct,,,View report (https://accesshub.pdc.wa.gov/node/80055),Health Care,Health Care,Health Care Committee
90297,80110-39392,80110,FE,17654,Trent M House,Employer,39392,WA BANKERS ASSN,21-May,6/2/2021,17061.0,WA BANKERS ASSN,10000.0,0.0,10000.0,0.0,0.0,0.0,0.0,0.0,0.0,0.0,10000.0,39392.0,Direct,,,View report (https://accesshub.pdc.wa.gov/node/80110),Financial institutions and insurance,Banking,"House Finance, Senate Financial Institutions"
90298,80091-39751,80091,FE,39750,Annie McGrath,Employer,39751,WA BREWERS GUILD,21-Apr,6/2/2021,17065.0,WA BREWERS GUILD,1541.67,0.0,1541.67,0.0,0.0,0.0,0.0,0.0,0.0,0.0,1541.67,39751.0,Direct,,,View report (https://accesshub.pdc.wa.gov/node/80091),Business and consumer affairs,"COVID-19 Relief, Liquor Legislation,","Legislature, Governor's Office, LCB"
90299,80057-47938,80057,FE,18074,Waypoint Consulting Group,Employer,47938,Delta Dental of WA,21-May,6/2/2021,17096.0,Delta Dental of WA,7000.0,0.0,7000.0,0.0,0.0,0.0,0.0,0.0,0.0,0.0,7000.0,47938.0,Direct,,,View report (https://accesshub.pdc.wa.gov/node/80057),Health Care,Health Care,Health Care
90300,80056-18698,80056,FE,17536,Nick Federici,Employer,18698,WA INFORMATION NETWORK 211,21-May,6/2/2021,17136.0,WA INFORMATION NETWORK 211,2500.0,0.0,2500.0,0.0,0.0,0.0,0.0,0.0,0.0,0.0,2500.0,18698.0,Direct,,,View report (https://accesshub.pdc.wa.gov/node/80056),Human services,211 System,"Senate ways, house approps"
90301,80056-18699,80056,FE,17536,Nick Federici,Employer,18699,WA LOW-INCOME HOUSING ALLIANCE,21-May,6/2/2021,17143.0,WA LOW-INCOME HOUSING ALLIANCE,3000.0,0.0,3000.0,0.0,0.0,0.0,0.0,0.0,0.0,0.0,3000.0,18699.0,Direct,,,View report (https://accesshub.pdc.wa.gov/node/80056),Human services,"Housing, homelessness","Senate HSMHH, Ways, FII, House Approps, Comm Dev, Judiciary"
90302,80094-18574,80094,FE,17496,DOTY & ASSOC INC*,Employer,18574,WA REFLEXOLOGY ASSN,21-May,6/2/2021,17177.0,WA REFLEXOLOGY ASSN,250.0,-125.0,125.0,0.0,0.0,0.0,0.0,0.0,0.0,0.0,125.0,18574.0,Direct,,,View report (https://accesshub.pdc.wa.gov/node/80094),State government,,
