,id,report_number,origin,filer_id,filer_name,type,funding_source_id,funding_source_name,filing_period,receipt_date,employer_id,employer_name,compensation,sub_lobbyist_compensation,net_compensation,personal_expenses,entertainment,contributions,advertising,political_ads,other,total_expenses,net_total,employment_registration_id,employment_type,contractor_id,contractor_name,url,legislation_subject_matter,issue_bill_number,committee_lobbied
30000,40606-27382,40606,FE,27377,Ludeman Public Affairs,Employer,27382,CAL PORTLAND COMPANY (GANO & ASSOC*),18-Jan,2/14/2018,16472.0,CAL PORTLAND COMPANY,528.29,0.0,528.29,0.0,0.0,0.0,0.0,0.0,0.0,0.0,528.29,27382.0,Subcontract,17565.0,GANO & ASSOC*,View report (https://accesshub.pdc.wa.gov/node/40606),,,
30001,39573-20053,39573,FE,17553,JESSICA FORTESCUE,Employer,20053,HONDA NORTH AMERICA (THRU MULTISTATE ASSOCIATES LLC) (MCBRIDE PUBLIC AFFAIRS LLC*),17-Dec,2/14/2018,16510.0,HONDA NORTH AMERICA (THRU MULTISTATE ASSOCIATES LLC),1750.0,0.0,1750.0,0.0,0.0,0.0,0.0,0.0,0.0,0.0,1750.0,20053.0,Subcontract,17779.0,MCBRIDE PUBLIC AFFAIRS LLC*,View report (https://accesshub.pdc.wa.gov/node/39573),,,
30002,40833-20053,40833,FE,17553,JESSICA FORTESCUE,Employer,20053,HONDA NORTH AMERICA (THRU MULTISTATE ASSOCIATES LLC) (MCBRIDE PUBLIC AFFAIRS LLC*),18-Jan,2/14/2018,16510.0,HONDA NORTH AMERICA (THRU MULTISTATE ASSOCIATES LLC),1167.0,0.0,1167.0,0.0,0.0,0.0,0.0,0.0,0.0,0.0,1167.0,20053.0,Subcontract,17779.0,MCBRIDE PUBLIC AFFAIRS LLC*,View report (https://accesshub.pdc.wa.gov/node/40833),,,
30003,40826-25544,40826,FE,17554,DAVID S FOSTER,Employer,25544,INTERCITY TRANSIT,18-Jan,2/14/2018,16542.0,INTERCITY TRANSIT,1750.0,0.0,1750.0,0.0,0.0,0.0,0.0,0.0,0.0,0.0,1750.0,25544.0,Direct,,,View report (https://accesshub.pdc.wa.gov/node/40826),Transportation,"5288, 1410","Transportation, Finance"
30004,40606-27387,40606,FE,27377,Ludeman Public Affairs,Employer,27387,Kapstone Paper and Packaging d/b/a WestRock (GANO & ASSOC*),18-Jan,2/14/2018,16571.0,Kapstone Paper and Packaging d/b/a WestRock,660.36,0.0,660.36,0.0,0.0,0.0,0.0,0.0,0.0,0.0,660.36,27387.0,Subcontract,17565.0,GANO & ASSOC*,View report (https://accesshub.pdc.wa.gov/node/40606),,,
30005,40606-27388,40606,FE,27377,Ludeman Public Affairs,Employer,27388,KEYBANK (GANO & ASSOC*),18-Jan,2/14/2018,16574.0,KEYBANK,237.73,0.0,237.73,0.0,0.0,0.0,0.0,0.0,0.0,0.0,237.73,27388.0,Subcontract,17565.0,GANO & ASSOC*,View report (https://accesshub.pdc.wa.gov/node/40606),,,
30006,40826-19951,40826,FE,17554,DAVID S FOSTER,Employer,19951,KING CO COUNCIL (MICHAEL SHAW),18-Jan,2/14/2018,16575.0,KING CO COUNCIL,4500.0,0.0,4500.0,0.0,0.0,0.0,0.0,0.0,0.0,0.0,4500.0,19951.0,Subcontract,17957.0,MICHAEL SHAW,View report (https://accesshub.pdc.wa.gov/node/40826),,,
30007,39573-19965,39573,FE,17553,JESSICA FORTESCUE,Employer,19965,McDonalds Corporation (MCBRIDE PUBLIC AFFAIRS LLC*),17-Dec,2/14/2018,16625.0,McDonalds Corporation,1750.0,0.0,1750.0,0.0,0.0,0.0,0.0,0.0,0.0,0.0,1750.0,19965.0,Subcontract,17779.0,MCBRIDE PUBLIC AFFAIRS LLC*,View report (https://accesshub.pdc.wa.gov/node/39573),,,
30008,40833-19965,40833,FE,17553,JESSICA FORTESCUE,Employer,19965,McDonalds Corporation (MCBRIDE PUBLIC AFFAIRS LLC*),18-Jan,2/14/2018,16625.0,McDonalds Corporation,1167.0,0.0,1167.0,0.0,0.0,0.0,0.0,0.0,0.0,0.0,1167.0,19965.0,Subcontract,17779.0,MCBRIDE PUBLIC AFFAIRS LLC*,View report (https://accesshub.pdc.wa.gov/node/40833),,,
30009,39573-20041,39573,FE,17553,JESSICA FORTESCUE,Employer,20041,MICROSOFT CORP (PIERCE CONSULTING SVCS LLC*),17-Dec,2/14/2018,16636.0,MICROSOFT CORP,375.88,0.0,375.88,0.0,0.0,0.0,0.0,0.0,0.0,0.0,375.88,20041.0,Subcontract,17597.0,PIERCE CONSULTING SVCS LLC*,View report (https://accesshub.pdc.wa.gov/node/39573),,,
30010,40833-20041,40833,FE,17553,JESSICA FORTESCUE,Employer,20041,MICROSOFT CORP (PIERCE CONSULTING SVCS LLC*),18-Jan,2/14/2018,16636.0,MICROSOFT CORP,485.95,0.0,485.95,0.0,0.0,0.0,0.0,0.0,0.0,0.0,485.95,20041.0,Subcontract,17597.0,PIERCE CONSULTING SVCS LLC*,View report (https://accesshub.pdc.wa.gov/node/40833),,,
30011,40786-26494,40786,FE,18039,ELIZABETH TRAUTMAN,Employer,26494,The Mockingbird Society,18-Jan,2/14/2018,16639.0,The Mockingbird Society,1467.0,0.0,1467.0,618.76,0.0,0.0,0.0,0.0,0.0,618.76,2085.76,26494.0,Direct,,,View report (https://accesshub.pdc.wa.gov/node/40786),Human services,"Sb 5596, SB 6407, SB 6222",Senate Human Services and Corrections Committee
30012,40606-29324,40606,FE,27377,Ludeman Public Affairs,Employer,29324,Viatris Inc.,18-Jan,2/14/2018,16653.0,Viatris Inc.,3000.0,0.0,3000.0,0.0,0.0,0.0,0.0,0.0,0.0,0.0,3000.0,29324.0,Direct,,,View report (https://accesshub.pdc.wa.gov/node/40606),Health Care,pharmacueticals,H and S Health Care Committees
30013,40770-39033,40770,FE,39032,Brad Forbes,Employer,39033,NAMI WA,18-Jan,2/14/2018,16654.0,NAMI WA,4916.66,0.0,4916.66,0.0,0.0,0.0,0.0,0.0,0.0,0.0,4916.66,39033.0,Direct,,,View report (https://accesshub.pdc.wa.gov/node/40770),Health Care,"SB 6147, SB 5722",Health & Long Term Care Committee
30014,40826-18737,40826,FE,17554,DAVID S FOSTER,Employer,18737,CAMPAIGN FOR TOBACCO FREE KIDS,18-Jan,2/14/2018,16660.0,CAMPAIGN FOR TOBACCO FREE KIDS,3500.0,0.0,3500.0,0.0,0.0,0.0,0.0,0.0,0.0,0.0,3500.0,18737.0,Direct,,,View report (https://accesshub.pdc.wa.gov/node/40826),Health Care,"1054, 6048","Health Care, Approps, Ways & Means"
30015,40606-28328,40606,FE,27377,Ludeman Public Affairs,Employer,28328,NATL ELECTRICAL CONTRACTORS ASSN,18-Jan,2/14/2018,16662.0,NATL ELECTRICAL CONTRACTORS ASSN,5000.0,0.0,5000.0,0.0,0.0,0.0,0.0,0.0,0.0,0.0,5000.0,28328.0,Direct,,,View report (https://accesshub.pdc.wa.gov/node/40606),Business and consumer affairs,Construction,"H & S Commerce & Labor Committees, House & Senate"
30016,40823-19673,40823,FE,17985,DONALD STECHER,Employer,19673,"Novartis Services, Inc.",18-Jan,2/14/2018,16725.0,"Novartis Services, Inc.",1000.0,0.0,1000.0,1272.62,141.5,0.0,0.0,0.0,0.0,1414.12,2414.12,19673.0,Direct,,,View report (https://accesshub.pdc.wa.gov/node/40823),Health Care,"HB 1541 SB 5586, Transparency","Legislature, House and Senate Health committees"
30017,40826-18738,40826,FE,17554,DAVID S FOSTER,Employer,18738,PACIFIC SCIENCE CENTER,18-Jan,2/14/2018,16758.0,PACIFIC SCIENCE CENTER,3150.0,0.0,3150.0,0.0,0.0,0.0,0.0,0.0,0.0,0.0,3150.0,18738.0,Direct,,,View report (https://accesshub.pdc.wa.gov/node/40826),Education,"Education, Budget","Approps, Ways & Means, Cap Budget, Education"
30018,40606-27379,40606,FE,27377,Ludeman Public Affairs,Employer,27379,ALTRIA CLIENT SERVICES LLC & ITS AFFILIATES (GANO & ASSOC*),18-Jan,2/14/2018,16778.0,ALTRIA CLIENT SERVICES LLC & ITS AFFILIATES,480.48,0.0,480.48,0.0,0.0,0.0,0.0,0.0,0.0,0.0,480.48,27379.0,Subcontract,17565.0,GANO & ASSOC*,View report (https://accesshub.pdc.wa.gov/node/40606),,,
30019,40861-19126,40861,FE,17738,WALTRAUT B LEHMANN,Employer,19126,PREMERA BLUE CROSS,18-Jan,2/14/2018,16812.0,PREMERA BLUE CROSS,672.0,0.0,672.0,84.48,0.0,0.0,0.0,0.0,0.0,84.48,756.48,19126.0,Direct,,,View report (https://accesshub.pdc.wa.gov/node/40861),Health Care,Misc Regulatory Issues,Office of the Insurance Commissioner
30020,40860-19451,40860,FE,17887,SVEN PETERSON,Employer,19451,PREMERA BLUE CROSS,18-Jan,2/14/2018,16812.0,PREMERA BLUE CROSS,996.78,0.0,996.78,0.0,0.0,0.0,0.0,0.0,0.0,0.0,996.78,19451.0,Direct,,,View report (https://accesshub.pdc.wa.gov/node/40860),Health Care,Misc Regulatory Issues,Office of the Insurance Commissioner
30022,40606-27390,40606,FE,27377,Ludeman Public Affairs,Employer,27390,SCI Shared Resources LLC (GANO & ASSOC*),18-Jan,2/14/2018,16884.0,SCI Shared Resources LLC,528.29,0.0,528.29,0.0,0.0,0.0,0.0,0.0,0.0,0.0,528.29,27390.0,Subcontract,17565.0,GANO & ASSOC*,View report (https://accesshub.pdc.wa.gov/node/40606),,,
30023,40826-18740,40826,FE,17554,DAVID S FOSTER,Employer,18740,SEATTLE AQUARIUM SOCIETY,18-Jan,2/14/2018,16888.0,SEATTLE AQUARIUM SOCIETY,3000.0,0.0,3000.0,0.0,0.0,0.0,0.0,0.0,0.0,0.0,3000.0,18740.0,Direct,,,View report (https://accesshub.pdc.wa.gov/node/40826),Fiscal,Capital Budget,"Capital Budget, Ways & Means"
30024,40606-27391,40606,FE,27377,Ludeman Public Affairs,Employer,27391,SHELL OIL CO (GANO & ASSOC*),18-Jan,2/14/2018,16911.0,SHELL OIL CO,660.36,0.0,660.36,0.0,0.0,0.0,0.0,0.0,0.0,0.0,660.36,27391.0,Subcontract,17565.0,GANO & ASSOC*,View report (https://accesshub.pdc.wa.gov/node/40606),,,
30025,40606-27392,40606,FE,27377,Ludeman Public Affairs,Employer,27392,STE MICHELLE WINE ESTATES LLC (GANO & ASSOC*),18-Jan,2/14/2018,16948.0,STE MICHELLE WINE ESTATES LLC,594.32,0.0,594.32,0.0,0.0,0.0,0.0,0.0,0.0,0.0,594.32,27392.0,Subcontract,17565.0,GANO & ASSOC*,View report (https://accesshub.pdc.wa.gov/node/40606),,,
30026,40606-28368,40606,FE,27377,Ludeman Public Affairs,Employer,28368,Uber Technologies Inc and Affiliates (GANO & ASSOC*),18-Jan,2/14/2018,17001.0,Uber Technologies Inc and Affiliates,500.0,0.0,500.0,0.0,0.0,0.0,0.0,0.0,0.0,0.0,500.0,28368.0,Subcontract,17565.0,GANO & ASSOC*,View report (https://accesshub.pdc.wa.gov/node/40606),,,
30027,40874-29493,40874,FE,29492,Aaron Hunt,Employer,29493,UNION PACIFIC RAILROAD CO,18-Jan,2/14/2018,17004.0,UNION PACIFIC RAILROAD CO,1000.0,0.0,1000.0,0.0,0.0,0.0,0.0,0.0,0.0,0.0,1000.0,29493.0,Direct,,,View report (https://accesshub.pdc.wa.gov/node/40874),Transportation,"HB 1669, HB 2944",House Appropriations
30028,39573-20007,39573,FE,17553,JESSICA FORTESCUE,Employer,20007,VULCAN INC (PIERCE CONSULTING SVCS LLC*),17-Dec,2/14/2018,17039.0,VULCAN INC,375.88,0.0,375.88,0.0,0.0,0.0,0.0,0.0,0.0,0.0,375.88,20007.0,Subcontract,17597.0,PIERCE CONSULTING SVCS LLC*,View report (https://accesshub.pdc.wa.gov/node/39573),,,
30029,40833-20007,40833,FE,17553,JESSICA FORTESCUE,Employer,20007,VULCAN INC (PIERCE CONSULTING SVCS LLC*),18-Jan,2/14/2018,17039.0,VULCAN INC,485.95,0.0,485.95,0.0,0.0,0.0,0.0,0.0,0.0,0.0,485.95,20007.0,Subcontract,17597.0,PIERCE CONSULTING SVCS LLC*,View report (https://accesshub.pdc.wa.gov/node/40833),,,
30030,40761-28516,40761,FE,28515,Barbara Wilson,Employer,28516,VULCAN INC,18-Jan,2/14/2018,17039.0,VULCAN INC,2000.0,0.0,2000.0,66.49,0.0,0.0,0.0,0.0,0.0,66.49,2066.49,28516.0,Direct,,,View report (https://accesshub.pdc.wa.gov/node/40761),Transportation,various,various
30031,40606-27393,40606,FE,27377,Ludeman Public Affairs,Employer,27393,WALMART INC. (GANO & ASSOC*),18-Jan,2/14/2018,17042.0,WALMART INC.,924.5,0.0,924.5,0.0,0.0,0.0,0.0,0.0,0.0,0.0,924.5,27393.0,Subcontract,17565.0,GANO & ASSOC*,View report (https://accesshub.pdc.wa.gov/node/40606),,,
30032,40849-28707,40849,FE,28706,Marc Cummings,Employer,28707,Life Science Washington,18-Jan,2/14/2018,17063.0,Life Science Washington,211.5,0.0,211.5,69.12,0.0,0.0,0.0,0.0,0.0,69.12,280.62,28707.0,Direct,,,View report (https://accesshub.pdc.wa.gov/node/40849),Fiscal,Life Science Discovery Fund,House Technology & Economic Dev; Commerce; Life Science Discovery Fund
30033,40833-30173,40833,FE,17553,JESSICA FORTESCUE,Employer,30173,WA CHARTERS ACTION (PIERCE CONSULTING SVCS LLC*),18-Jan,2/14/2018,17071.0,WA CHARTERS ACTION,364.46,0.0,364.46,0.0,0.0,0.0,0.0,0.0,0.0,0.0,364.46,30173.0,Subcontract,17597.0,PIERCE CONSULTING SVCS LLC*,View report (https://accesshub.pdc.wa.gov/node/40833),,,
30035,40796-28710,40796,FE,28708,Heather Trim,Employer,28710,ZERO WASTE WA,18-Jan,2/14/2018,17086.0,ZERO WASTE WA,308.0,0.0,308.0,283.0,0.0,0.0,0.0,0.0,0.0,283.0,591.0,28710.0,Direct,,,View report (https://accesshub.pdc.wa.gov/node/40796),Environmental Affairs - natural resources - parks,SHB 2658/HB 2914/HB 2411,House Env Committee/Reps Smith/Doglio/Peterson
30036,39573-20010,39573,FE,17553,JESSICA FORTESCUE,Employer,20010,Delta Dental of WA (PIERCE CONSULTING SVCS LLC*),17-Dec,2/14/2018,17096.0,Delta Dental of WA,281.91,0.0,281.91,0.0,0.0,0.0,0.0,0.0,0.0,0.0,281.91,20010.0,Subcontract,17597.0,PIERCE CONSULTING SVCS LLC*,View report (https://accesshub.pdc.wa.gov/node/39573),,,
30037,40833-20010,40833,FE,17553,JESSICA FORTESCUE,Employer,20010,Delta Dental of WA (PIERCE CONSULTING SVCS LLC*),18-Jan,2/14/2018,17096.0,Delta Dental of WA,364.46,0.0,364.46,0.0,0.0,0.0,0.0,0.0,0.0,0.0,364.46,20010.0,Subcontract,17597.0,PIERCE CONSULTING SVCS LLC*,View report (https://accesshub.pdc.wa.gov/node/40833),,,
30042,40833-19986,40833,FE,17553,JESSICA FORTESCUE,Employer,19986,WA FOREST PROTECTION ASSN (PIERCE CONSULTING SVCS LLC*),18-Jan,2/14/2018,17120.0,WA FOREST PROTECTION ASSN,242.98,0.0,242.98,0.0,0.0,0.0,0.0,0.0,0.0,0.0,242.98,19986.0,Subcontract,17597.0,PIERCE CONSULTING SVCS LLC*,View report (https://accesshub.pdc.wa.gov/node/40833),,,
30044,40793-18188,40793,FE,17354,BERNAL C BACA,Employer,18188,AFT Washington,18-Jan,2/14/2018,17122.0,AFT Washington,6236.0,0.0,6236.0,0.0,0.0,0.0,0.0,0.0,0.0,0.0,6236.0,18188.0,Direct,,,View report (https://accesshub.pdc.wa.gov/node/40793),Education,SB 5993,Education
30045,40852-18521,40852,FE,17475,ROBIN DALE,Employer,18521,WA HEALTH CARE ASSN,18-Jan,2/14/2018,17128.0,WA HEALTH CARE ASSN,2488.0,0.0,2488.0,0.0,0.0,0.0,0.0,0.0,18500.0,18500.0,20988.0,18521.0,Direct,,,View report (https://accesshub.pdc.wa.gov/node/40852),Health Care,HB2515,House Appropriations
30046,40854-19693,40854,FE,17995,LAURI ST OURS,Employer,19693,WA HEALTH CARE ASSN,18-Jan,2/14/2018,17128.0,WA HEALTH CARE ASSN,963.0,0.0,963.0,0.0,0.0,0.0,0.0,0.0,18.25,18.25,981.25,19693.0,Direct,,,View report (https://accesshub.pdc.wa.gov/node/40854),Health Care,HB2515,House Appropriations
30047,39573-27760,39573,FE,17553,JESSICA FORTESCUE,Employer,27760,Washington Mortgage Bankers Association,17-Dec,2/14/2018,17147.0,Washington Mortgage Bankers Association,2500.0,0.0,2500.0,0.0,0.0,0.0,0.0,0.0,0.0,0.0,2500.0,27760.0,Direct,,,View report (https://accesshub.pdc.wa.gov/node/39573),Financial institutions and insurance,"Banking, Housing","Fiscal, DFI, DOR"
30048,40833-27760,40833,FE,17553,JESSICA FORTESCUE,Employer,27760,Washington Mortgage Bankers Association,18-Jan,2/14/2018,17147.0,Washington Mortgage Bankers Association,2500.0,0.0,2500.0,0.0,0.0,0.0,0.0,0.0,0.0,0.0,2500.0,27760.0,Direct,,,View report (https://accesshub.pdc.wa.gov/node/40833),Financial institutions and insurance,"Banking, Housing","Fiscal, DFI, DOR"
30049,40829-27631,40829,FE,27629,Rachael Seevers,Employer,27631,DISABILITY RIGHTS WA,18-Jan,2/14/2018,17163.0,DISABILITY RIGHTS WA,2115.22,0.0,2115.22,443.82,0.0,0.0,0.0,0.0,0.0,443.82,2559.04,27631.0,Direct,,,View report (https://accesshub.pdc.wa.gov/node/40829),Law and justice,"HB 1889, SB 6515, RHC issues","House Public Safety, Senate Human Services"
30050,39573-19949,39573,FE,17553,JESSICA FORTESCUE,Employer,19949,WA ROUNDTABLE (PIERCE CONSULTING SVCS LLC*),17-Dec,2/14/2018,17178.0,WA ROUNDTABLE,204.39,0.0,204.39,0.0,0.0,0.0,0.0,0.0,0.0,0.0,204.39,19949.0,Subcontract,17597.0,PIERCE CONSULTING SVCS LLC*,View report (https://accesshub.pdc.wa.gov/node/39573),,,
30051,40833-19949,40833,FE,17553,JESSICA FORTESCUE,Employer,19949,WA ROUNDTABLE (PIERCE CONSULTING SVCS LLC*),18-Jan,2/14/2018,17178.0,WA ROUNDTABLE,264.24,0.0,264.24,0.0,0.0,0.0,0.0,0.0,0.0,0.0,264.24,19949.0,Subcontract,17597.0,PIERCE CONSULTING SVCS LLC*,View report (https://accesshub.pdc.wa.gov/node/40833),,,
30052,40833-39303,40833,FE,17553,JESSICA FORTESCUE,Employer,39303,THE WASHINGTON TREASURER'S OFFICE (MCBRIDE PUBLIC AFFAIRS LLC*),18-Jan,2/14/2018,17204.0,THE WASHINGTON TREASURER'S OFFICE,1166.0,0.0,1166.0,0.0,0.0,0.0,0.0,0.0,0.0,0.0,1166.0,39303.0,Subcontract,17779.0,MCBRIDE PUBLIC AFFAIRS LLC*,View report (https://accesshub.pdc.wa.gov/node/40833),,,
30053,39573-19995,39573,FE,17553,JESSICA FORTESCUE,Employer,19995,WA WHOLESALE DRUGGIST ASSN (PIERCE CONSULTING SVCS LLC*),17-Dec,2/14/2018,17208.0,WA WHOLESALE DRUGGIST ASSN,258.42,0.0,258.42,0.0,0.0,0.0,0.0,0.0,0.0,0.0,258.42,19995.0,Subcontract,17597.0,PIERCE CONSULTING SVCS LLC*,View report (https://accesshub.pdc.wa.gov/node/39573),,,
30054,40833-19995,40833,FE,17553,JESSICA FORTESCUE,Employer,19995,WA WHOLESALE DRUGGIST ASSN (PIERCE CONSULTING SVCS LLC*),18-Jan,2/14/2018,17208.0,WA WHOLESALE DRUGGIST ASSN,334.09,0.0,334.09,0.0,0.0,0.0,0.0,0.0,0.0,0.0,334.09,19995.0,Subcontract,17597.0,PIERCE CONSULTING SVCS LLC*,View report (https://accesshub.pdc.wa.gov/node/40833),,,
30055,40788-19579,40788,FE,17944,MICHAEL V SCHWISOW,Employer,19579,Washington Winegrowers Association,18-Jan,2/14/2018,17210.0,Washington Winegrowers Association,2500.0,0.0,2500.0,0.0,0.0,0.0,0.0,0.0,0.0,0.0,2500.0,19579.0,Direct,,,View report (https://accesshub.pdc.wa.gov/node/40788),Environmental Affairs - natural resources - parks,6529,Senate Labor & Commerce
30056,40891-19556,40891,FE,17927,GARY ROWE,Employer,19556,WA STATE ASSN OF COUNTIES (WSAC),18-Jan,2/14/2018,17215.0,WA STATE ASSN OF COUNTIES (WSAC),810.0,0.0,810.0,0.0,0.0,0.0,0.0,0.0,0.0,0.0,810.0,19556.0,Direct,,,View report (https://accesshub.pdc.wa.gov/node/40891),Transportation,Various,Various
30057,40846-18949,40846,FE,17621,NEIL T HARTMAN,Employer,18949,WA ST BUILDING & CONSTRUCTION TRADES COUNCIL,18-Jan,2/14/2018,17223.0,WA ST BUILDING & CONSTRUCTION TRADES COUNCIL,6426.0,0.0,6426.0,0.0,0.0,0.0,0.0,0.0,0.0,0.0,6426.0,18949.0,Direct,,,View report (https://accesshub.pdc.wa.gov/node/40846),Labor,"Public Safety, Prevailing Wage, Workers Comp, UI, Safety & Health, Transportation","L&I, Employment Security, Dept. of Transportation"
30058,40883-19762,40883,FE,18024,Roosevelt Consulting,Employer,19762,WA STATE COUNCIL OF COUNTY & CITY EMPLOYEES,18-Jan,2/14/2018,17230.0,WA STATE COUNCIL OF COUNTY & CITY EMPLOYEES,5369.0,0.0,5369.0,0.0,0.0,0.0,0.0,0.0,0.0,0.0,5369.0,19762.0,Direct,,,View report (https://accesshub.pdc.wa.gov/node/40883),,,
30063,40791-19448,40791,FE,17884,Robert Perna,Employer,19448,WA ST MEDICAL ASSN,18-Jan,2/14/2018,17261.0,WA ST MEDICAL ASSN,871.39,0.0,871.39,16.0,0.0,0.0,0.0,0.0,0.0,16.0,887.39,19448.0,Direct,,,View report (https://accesshub.pdc.wa.gov/node/40791),Health Care,Health Care,"Health Care Authority, Office of Financial Management"
30064,40788-19580,40788,FE,17944,MICHAEL V SCHWISOW,Employer,19580,WA ST WATER RESOURCES ASSN,18-Jan,2/14/2018,17292.0,WA ST WATER RESOURCES ASSN,4675.75,0.0,4675.75,0.0,0.0,0.0,0.0,0.0,0.0,0.0,4675.75,19580.0,Direct,,,View report (https://accesshub.pdc.wa.gov/node/40788),Local government,"6271, 6373, 2675, 6587","Senate Local Government, Senate State Government"
30065,40606-27394,40606,FE,27377,Ludeman Public Affairs,Employer,27394,WELLS FARGO & CO (GANO & ASSOC*),18-Jan,2/14/2018,17296.0,WELLS FARGO & CO,429.23,0.0,429.23,0.0,0.0,0.0,0.0,0.0,0.0,0.0,429.23,27394.0,Subcontract,17565.0,GANO & ASSOC*,View report (https://accesshub.pdc.wa.gov/node/40606),,,
30066,40826-20065,40826,FE,17554,DAVID S FOSTER,Employer,20065,WESTAF (OUTCOMES BY LEVY LLC*),18-Jan,2/14/2018,17301.0,WESTAF,2000.0,0.0,2000.0,0.0,0.0,0.0,0.0,0.0,0.0,0.0,2000.0,20065.0,Subcontract,17870.0,OUTCOMES BY LEVY LLC*,View report (https://accesshub.pdc.wa.gov/node/40826),,,
30067,40826-18742,40826,FE,17554,DAVID S FOSTER,Employer,18742,Washington State Alliance of YMCAs,18-Jan,2/14/2018,17323.0,Washington State Alliance of YMCAs,3200.0,0.0,3200.0,0.0,0.0,0.0,0.0,0.0,0.0,0.0,3200.0,18742.0,Direct,,,View report (https://accesshub.pdc.wa.gov/node/40826),Human services,"Childcare, budget","Early Learning & Human Services, Health care, Cap Budget"
30068,40606-36623,40606,FE,27377,Ludeman Public Affairs,Employer,36623,Advantage Capital (GANO & ASSOC*),18-Jan,2/14/2018,26331.0,Advantage Capital,2490.53,0.0,2490.53,0.0,0.0,0.0,0.0,0.0,0.0,0.0,2490.53,36623.0,Subcontract,17565.0,GANO & ASSOC*,View report (https://accesshub.pdc.wa.gov/node/40606),,,
30069,40867-33677,40867,FE,17977,SOUND VIEW STRATEGIES LLC*,Employer,33677,City of Medina,18-Jan,2/14/2018,26873.0,City of Medina,6000.0,0.0,6000.0,0.0,0.0,0.0,0.0,0.0,0.0,0.0,6000.0,33677.0,Direct,,,View report (https://accesshub.pdc.wa.gov/node/40867),Transportation,Transportation Issues,Department of Transportation
30070,40606-29449,40606,FE,27377,Ludeman Public Affairs,Employer,29449,1-800 CONTACTS (Bill Clarke),18-Jan,2/14/2018,29415.0,1-800 CONTACTS,5000.0,0.0,5000.0,0.0,0.0,0.0,0.0,0.0,0.0,0.0,5000.0,29449.0,Subcontract,17453.0,Bill Clarke,View report (https://accesshub.pdc.wa.gov/node/40606),,,
30071,40833-35643,40833,FE,17553,JESSICA FORTESCUE,Employer,35643,Washington State Opportunity Scholarship (PIERCE CONSULTING SVCS LLC*),18-Jan,2/14/2018,30931.0,Washington State Opportunity Scholarship,242.98,0.0,242.98,0.0,0.0,0.0,0.0,0.0,0.0,0.0,242.98,35643.0,Subcontract,17597.0,PIERCE CONSULTING SVCS LLC*,View report (https://accesshub.pdc.wa.gov/node/40833),,,
30072,40492-33644,40492,FE,17787,Patricia McDaid-O'Neill,Employer,33644,Sunovion Pharmaceuticals Inc.,18-Jan,2/14/2018,33133.0,Sunovion Pharmaceuticals Inc.,4500.0,0.0,4500.0,0.0,0.0,0.0,0.0,0.0,0.0,0.0,4500.0,33644.0,Direct,,,View report (https://accesshub.pdc.wa.gov/node/40492),Health Care,Access to pharmaceuticals,Legislature
30073,40606-36244,40606,FE,27377,Ludeman Public Affairs,Employer,36244,Global Discoveries LTD (GANO & ASSOC*),18-Jan,2/14/2018,35897.0,Global Discoveries LTD,2500.0,0.0,2500.0,0.0,0.0,0.0,0.0,0.0,0.0,0.0,2500.0,36244.0,Subcontract,17565.0,GANO & ASSOC*,View report (https://accesshub.pdc.wa.gov/node/40606),,,
30074,40827-37227,40827,FE,37174,Robb Krehbiel,Employer,37227,Defenders of Wildlife,18-Jan,2/14/2018,37226.0,Defenders of Wildlife,400.0,0.0,400.0,89.59,0.0,0.0,0.0,0.0,0.0,89.59,489.59,37227.0,Direct,,,View report (https://accesshub.pdc.wa.gov/node/40827),Environmental Affairs - natural resources - parks,Orcas,"Sen. Ranker, Rep. Blake, WDFW, Puget Sound Partnership"
30075,40826-39821,40826,FE,17554,DAVID S FOSTER,Employer,39821,FareStart,18-Jan,2/14/2018,39820.0,FareStart,3000.0,0.0,3000.0,0.0,0.0,0.0,0.0,0.0,0.0,0.0,3000.0,39821.0,Direct,,,View report (https://accesshub.pdc.wa.gov/node/40826),Human services,Budget,"Approps, Ways & Means"
30076,40826-39826,40826,FE,17554,DAVID S FOSTER,Employer,39826,Museum of History & Industry,18-Jan,2/14/2018,39825.0,Museum of History & Industry,2000.0,0.0,2000.0,0.0,0.0,0.0,0.0,0.0,0.0,0.0,2000.0,39826.0,Direct,,,View report (https://accesshub.pdc.wa.gov/node/40826),Education,"Education, Fiscal","Approps, Ways & Means"
30077,40787-40716,40787,FE,40254,David Benjamin Mendoza,Employer,40716,Latino Community Fund of Washington State,18-Jan,2/14/2018,40493.0,Latino Community Fund of Washington State,3300.0,0.0,3300.0,284.5,0.0,0.0,0.0,0.0,0.0,284.5,3584.5,40716.0,Direct,,,View report (https://accesshub.pdc.wa.gov/node/40787),Energy and utilities,SB 6302,"Energy, Environment and Technology Committee"
30078,40639-39692,40639,FE,39691,Brett Michelin,Employer,39692,Association for Accessible Medicines,18-Jan,2/15/2018,29098.0,Association for Accessible Medicines,3634.4,0.0,3634.4,2380.15,0.0,0.0,475.79,18365.0,0.0,21220.94,24855.34,39692.0,Direct,,,View report (https://accesshub.pdc.wa.gov/node/40639),Health Care,HB 1047,House Health Care and Wellness Committee
30085,40297-18759,40297,FE,17565,GANO & ASSOC*,Employer,18759,Chubb,18-Jan,2/15/2018,16063.0,Chubb,3500.0,-462.25,3037.75,0.0,0.0,0.0,0.0,0.0,0.0,0.0,3037.75,18759.0,Direct,,,View report (https://accesshub.pdc.wa.gov/node/40297),Financial institutions and insurance,Insurance,H S Finacial Inst and Insurance
30086,35284-18983,35284,FE,17654,Trent M House,Employer,18983,AEROSPACE FUTURES ALLIANCE OF WASHINGTON LTD,17-Jun,2/15/2018,16071.0,AEROSPACE FUTURES ALLIANCE OF WASHINGTON LTD,3000.0,0.0,3000.0,0.0,0.0,0.0,0.0,0.0,0.0,0.0,3000.0,18983.0,Direct,,,View report (https://accesshub.pdc.wa.gov/node/35284),Labor,Workers Compensation,Commerce and Labor Committees
30087,40060-18983,40060,FE,17654,Trent M House,Employer,18983,AEROSPACE FUTURES ALLIANCE OF WASHINGTON LTD,18-Jan,2/15/2018,16071.0,AEROSPACE FUTURES ALLIANCE OF WASHINGTON LTD,4000.0,0.0,4000.0,0.0,0.0,0.0,0.0,0.0,0.0,0.0,4000.0,18983.0,Direct,,,View report (https://accesshub.pdc.wa.gov/node/40060),Labor,"Workers Compensation, Taxes",Commerce and Labor Committees
30088,40919-27383,40919,FE,27257,Paribello Public Affairs,Employer,27383,Intl Assn of Machinists & Aerospace Workers Dist Lodge 751,18-Jan,2/15/2018,16072.0,Intl Assn of Machinists & Aerospace Workers Dist Lodge 751,3000.0,0.0,3000.0,0.0,0.0,0.0,0.0,0.0,0.0,0.0,3000.0,27383.0,Direct,,,View report (https://accesshub.pdc.wa.gov/node/40919),Labor,"HB 2355, HB 2796, SB 5993, SB 6062, SB 6162, SB 6406, SB 6544",House and Senate
30089,29851-18283,29851,FE,17398,BOSWELL CONSULTING*,Employer,18283,AMERICAN INSTITUTE OF ARCHITECTS WA COUNCIL,17-Jan,2/15/2018,16076.0,AMERICAN INSTITUTE OF ARCHITECTS WA COUNCIL,2000.0,0.0,2000.0,1511.21,0.0,0.0,0.0,0.0,0.0,1511.21,3511.21,18283.0,Direct,,,View report (https://accesshub.pdc.wa.gov/node/29851),Business and consumer affairs,various,various
30090,40940-19365,40940,FE,17850,PAUL NIELSEN,Employer,19365,ALKERMES PLC,17-Jul,2/15/2018,16079.0,ALKERMES PLC,750.0,0.0,750.0,39.0,0.0,0.0,0.0,0.0,0.0,39.0,789.0,19365.0,Direct,,,View report (https://accesshub.pdc.wa.gov/node/40940),Health Care,Opioid and alcohol abuse disorder treatment,"Health, Public Saftey"
30091,40335-39813,40335,FE,39812,Curtis Augustine,Employer,39813,ALLIANCE FOR AUTOMOTIVE INNOVATION,18-Jan,2/15/2018,16081.0,ALLIANCE FOR AUTOMOTIVE INNOVATION,1595.28,0.0,1595.28,3345.64,0.0,0.0,0.0,0.0,0.0,3345.64,4940.92,39813.0,Direct,,,View report (https://accesshub.pdc.wa.gov/node/40335),Environmental Affairs - natural resources - parks,SB 6098,"Senate Energy, Environment & Technology Committee"
30092,40797-31508,40797,FE,31507,Catherine Munsen,Employer,31508,Alliance for Gun Responsibility,18-Jan,2/15/2018,16083.0,Alliance for Gun Responsibility,1010.14,0.0,1010.14,369.95,0.0,0.0,0.0,0.0,0.0,369.95,1380.09,31508.0,Direct,,,View report (https://accesshub.pdc.wa.gov/node/40797),Law and justice,"SB5992, SB6049, SB5444, SB5463, SB6146",Senate Law & Justice Committee
30093,40389-38845,40389,FE,38146,RNJ Strategies,Employer,38845,Alliance for Gun Responsibility,18-Jan,2/15/2018,16083.0,Alliance for Gun Responsibility,9450.0,0.0,9450.0,0.0,0.0,0.0,0.0,0.0,0.0,0.0,9450.0,38845.0,Direct,,,View report (https://accesshub.pdc.wa.gov/node/40389),Law and justice,Gun Responsibility,All House Senate
30094,40804-40798,40804,FE,39264,Malorie Toman,Employer,40798,Alliance for Gun Responsibility,18-Jan,2/15/2018,16083.0,Alliance for Gun Responsibility,292.5,0.0,292.5,14.0,0.0,0.0,0.0,0.0,0.0,14.0,306.5,40798.0,Direct,,,View report (https://accesshub.pdc.wa.gov/node/40804),Law and justice,"SB5463, SB5444, SB6146, SB6049, SB5992",Senate Law & Justice Committee
30095,40805-40799,40805,FE,39262,Mike McIntyre,Employer,40799,Alliance for Gun Responsibility,18-Jan,2/15/2018,16083.0,Alliance for Gun Responsibility,406.12,0.0,406.12,147.2,0.0,0.0,0.0,0.0,0.0,147.2,553.32,40799.0,Direct,,,View report (https://accesshub.pdc.wa.gov/node/40805),Law and justice,"SB5463, SB5444, SB6146, SB6049, SB5992",Senate Law & Justice Committee
30096,40806-40800,40806,FE,39230,Zoe Davis,Employer,40800,Alliance for Gun Responsibility,18-Jan,2/15/2018,16083.0,Alliance for Gun Responsibility,247.5,0.0,247.5,0.0,0.0,0.0,0.0,0.0,0.0,0.0,247.5,40800.0,Direct,,,View report (https://accesshub.pdc.wa.gov/node/40806),Law and justice,"SB5463, SB5444, SB6146, SB6049, SB5992",Senate Law & Justice Committee
30097,40802-40801,40802,FE,39360,Annamarie Oommen,Employer,40801,Alliance for Gun Responsibility,18-Jan,2/15/2018,16083.0,Alliance for Gun Responsibility,490.37,0.0,490.37,0.0,0.0,0.0,0.0,0.0,0.0,0.0,490.37,40801.0,Direct,,,View report (https://accesshub.pdc.wa.gov/node/40802),Law and justice,"SB 5992, SB 6049, SB 5444, SB 5463, SB 6146",Senate Law & Justice Committee
30098,40933-32170,40933,FE,17526,Arbutus Consulting LLC,Employer,32170,"Elevance Health, and its Affiliates",18-Jan,2/15/2018,16107.0,"Elevance Health, and its Affiliates",7000.0,0.0,7000.0,0.0,0.0,0.0,0.0,0.0,0.0,0.0,7000.0,32170.0,Direct,,,View report (https://accesshub.pdc.wa.gov/node/40933),Health Care,"Medicaid, Budget",Policy and Fiscal Committees
30099,40960-18581,40960,FE,17500,JOHN DRESCHER,Employer,18581,APPLE INC,18-Jan,2/15/2018,16131.0,APPLE INC,739.84,0.0,739.84,96.62,0.0,0.0,0.0,0.0,0.0,96.62,836.46,18581.0,Direct,,,View report (https://accesshub.pdc.wa.gov/node/40960),Education,Education Budget,State Legislature
30100,40539-19856,40539,FE,18071,WA ST NURSES ASSN,Employer,19856,ASSN OF ADV PRACTICE PSYCHIATRIC NURSES,18-Jan,2/15/2018,16147.0,ASSN OF ADV PRACTICE PSYCHIATRIC NURSES,400.0,0.0,400.0,0.0,0.0,0.0,0.0,0.0,0.0,0.0,400.0,19856.0,Direct,,,View report (https://accesshub.pdc.wa.gov/node/40539),Health Care,Nursing/Health Care Issues,"Healthcare, Labor, Budget Committees, Dept of Health, Labor and Industries"
30101,40943-38913,40943,FE,38911,Ernie Tao,Employer,38913,ASSOC STUDENTS OF UNIV OF WA,18-Jan,2/15/2018,16161.0,ASSOC STUDENTS OF UNIV OF WA,1178.6,0.0,1178.6,0.0,0.0,0.0,0.0,0.0,0.0,0.0,1178.6,38913.0,Direct,,,View report (https://accesshub.pdc.wa.gov/node/40943),Higher education,SB 5525,Senator Wilson
30102,40297-18760,40297,FE,17565,GANO & ASSOC*,Employer,18760,AT&T SERVICES INC,18-Jan,2/15/2018,16175.0,AT&T SERVICES INC,7000.0,-792.43,6207.57,0.0,0.0,0.0,0.0,0.0,0.0,0.0,6207.57,18760.0,Direct,,,View report (https://accesshub.pdc.wa.gov/node/40297),Technology,Cell Phone,"H Tech, Sen Tech"
30103,39574-18343,39574,FE,17428,DEANNE C CALVERT,Employer,18343,SANOFI US,17-Dec,2/15/2018,16178.0,SANOFI US,1000.0,0.0,1000.0,0.0,0.0,5000.0,0.0,0.0,0.0,5000.0,6000.0,18343.0,Direct,,,View report (https://accesshub.pdc.wa.gov/node/39574),Health Care,"Pharmaceuticals, Newborn Screening, Vaccines, and Budget",Legislature
30104,40871-18343,40871,FE,17428,DEANNE C CALVERT,Employer,18343,SANOFI US,18-Jan,2/15/2018,16178.0,SANOFI US,2500.0,0.0,2500.0,230.04,0.0,0.0,0.0,0.0,0.0,230.04,2730.04,18343.0,Direct,,,View report (https://accesshub.pdc.wa.gov/node/40871),Fiscal,"SB 6032, HB 2299",Legislature
30105,40297-18761,40297,FE,17565,GANO & ASSOC*,Employer,18761,AVIATION TECHNICAL SERVICES INC,18-Jan,2/15/2018,16179.0,AVIATION TECHNICAL SERVICES INC,4000.0,-528.29,3471.71,0.0,0.0,0.0,0.0,0.0,0.0,0.0,3471.71,18761.0,Direct,,,View report (https://accesshub.pdc.wa.gov/node/40297),Business and consumer affairs,Airplane Repair,H S Ways Means
30106,40603-19555,40603,FE,17926,JOHN ROTHLIN,Employer,19555,AVISTA CORP,18-Jan,2/15/2018,16180.0,AVISTA CORP,11430.6,0.0,11430.6,1343.14,112.5,0.0,0.0,0.0,0.0,1455.64,12886.24,19555.0,Direct,,,View report (https://accesshub.pdc.wa.gov/node/40603),Energy and utilities,Energy and business issues,House and Senate and Governor's Office
30107,40916-28926,40916,FE,18069,WA MEDIA SVCS INC*,Employer,28926,BACK COUNTRY HORSEMEN OF WA,18-Jan,2/15/2018,16181.0,BACK COUNTRY HORSEMEN OF WA,579.76,0.0,579.76,0.0,0.0,0.0,0.0,0.0,0.0,0.0,579.76,28926.0,Direct,,,View report (https://accesshub.pdc.wa.gov/node/40916),Environmental Affairs - natural resources - parks,"SB 6368, SB 6128, SB 6295, SM 6089, SB 6090, SB 6094, SB6095, SB 6020",Legislature
30108,40935-18431,40935,FE,17443,CHECKERBOARD CONSULTING SERVICES LLC*,Employer,18431,BOEING EMPLOYEES CREDIT UNION,18-Jan,2/15/2018,16200.0,BOEING EMPLOYEES CREDIT UNION,8124.0,0.0,8124.0,0.0,0.0,0.0,0.0,0.0,0.0,0.0,8124.0,18431.0,Direct,,,View report (https://accesshub.pdc.wa.gov/node/40935),Financial institutions and insurance,Foreclosure,HFII
30109,40753-18427,40753,FE,17439,SUSAN W CHAMPLAIN,Employer,18427,BOEING,18-Jan,2/15/2018,16201.0,BOEING,7183.0,0.0,7183.0,1706.15,0.0,0.0,0.0,0.0,0.0,1706.15,8889.15,18427.0,Direct,,,View report (https://accesshub.pdc.wa.gov/node/40753),Fiscal,Tax/Budget,Washington legislators
30110,40777-19882,40777,FE,18085,RICHARD WHITE,Employer,19882,BOEING,18-Jan,2/15/2018,16201.0,BOEING,1244.0,0.0,1244.0,69.4,0.0,0.0,0.0,0.0,0.0,69.4,1313.4,19882.0,Direct,,,View report (https://accesshub.pdc.wa.gov/node/40777),Fiscal,Tax/Budget,Washington legislators
30111,40767-29256,40767,FE,29213,Ryan R. Tomasich,Employer,29256,BOEING,18-Jan,2/15/2018,16201.0,BOEING,11159.0,0.0,11159.0,205.36,0.0,0.0,0.0,0.0,0.0,205.36,11364.36,29256.0,Direct,,,View report (https://accesshub.pdc.wa.gov/node/40767),Fiscal,Taxes/budget,Washington State Legislators
30112,29851-18284,29851,FE,17398,BOSWELL CONSULTING*,Employer,18284,WA ALLIANCE OF BOYS & GIRLS CLUB,17-Jan,2/15/2018,16204.0,WA ALLIANCE OF BOYS & GIRLS CLUB,2000.0,0.0,2000.0,0.0,0.0,0.0,0.0,0.0,0.0,0.0,2000.0,18284.0,Direct,,,View report (https://accesshub.pdc.wa.gov/node/29851),Human services,various,various
30113,40547-19364,40547,FE,17849,ANDREW NICHOLAS,Employer,19364,WA ST BUDGET & POLICY CENTER,18-Jan,2/15/2018,16213.0,WA ST BUDGET & POLICY CENTER,210.39,0.0,210.39,224.56,0.0,0.0,0.0,0.0,0.0,224.56,434.95,19364.0,Direct,,,View report (https://accesshub.pdc.wa.gov/node/40547),Fiscal,Tax Reform,D Caucus
30114,40927-19874,40927,FE,18078,MISHA WERSCHKUL,Employer,19874,WA ST BUDGET & POLICY CENTER,18-Jan,2/15/2018,16213.0,WA ST BUDGET & POLICY CENTER,753.6,0.0,753.6,0.0,0.0,0.0,0.0,0.0,0.0,0.0,753.6,19874.0,Direct,,,View report (https://accesshub.pdc.wa.gov/node/40927),Fiscal,Tax Reform,"Budget Committee, Ways and Means"
30115,40297-18762,40297,FE,17565,GANO & ASSOC*,Employer,18762,BUILDING INDUSTRY ASSN OF WA,18-Jan,2/15/2018,16215.0,BUILDING INDUSTRY ASSN OF WA,6000.0,-792.43,5207.57,0.0,0.0,0.0,0.0,0.0,0.0,0.0,5207.57,18762.0,Direct,,,View report (https://accesshub.pdc.wa.gov/node/40297),Local government,Home Building,"H S Local Gov, Commerce Labor"
30116,41054-18956,41054,FE,17628,JOHAN W HELLMAN,Employer,18956,BURLINGTON NORTHERN SANTA FE RAILROAD,18-Jan,2/15/2018,16217.0,BURLINGTON NORTHERN SANTA FE RAILROAD,5000.0,0.0,5000.0,0.0,0.0,0.0,0.0,0.0,0.0,0.0,5000.0,18956.0,Direct,,,View report (https://accesshub.pdc.wa.gov/node/41054),Transportation,"Transportation/trade policy, regulatory, labor, environmental and general business","Committees and agencies addressing transportation, trade, labor, general business."
30118,40878-18158,40878,FE,17342,DAVID C ARBAUGH,Employer,18158,CHELAN CO PUBLIC UTILITY DIST #1,18-Jan,2/15/2018,16254.0,CHELAN CO PUBLIC UTILITY DIST #1,13000.0,0.0,13000.0,0.0,0.0,0.0,0.0,0.0,0.0,0.0,13000.0,18158.0,Direct,,,View report (https://accesshub.pdc.wa.gov/node/40878),Energy and utilities,Energy and Water,EWE
30119,40865-32856,40865,FE,25651,Insight Strategic Partners LLC,Employer,32856,CHELAN CO PUBLIC UTILITY DIST #1,18-Jan,2/15/2018,16254.0,CHELAN CO PUBLIC UTILITY DIST #1,7500.0,0.0,7500.0,0.0,0.0,0.0,0.0,0.0,0.0,0.0,7500.0,32856.0,Direct,,,View report (https://accesshub.pdc.wa.gov/node/40865),Energy and utilities,SB6203,Energy and Utilities
30120,40938-18636,40938,FE,17511,TOM ECHOLS,Employer,18636,CIGAR ASSN OF AMERICA,18-Jan,2/15/2018,16262.0,CIGAR ASSN OF AMERICA,3458.33,0.0,3458.33,0.0,0.0,0.0,0.0,0.0,0.0,0.0,3458.33,18636.0,Direct,,,View report (https://accesshub.pdc.wa.gov/node/40938),,,
30121,40945-37347,40945,FE,25302,Northwest Solutions,Employer,37347,CITY OF WALLA WALLA,18-Jan,2/15/2018,16271.0,CITY OF WALLA WALLA,1750.0,0.0,1750.0,0.0,0.0,0.0,0.0,0.0,0.0,0.0,1750.0,37347.0,Direct,,,View report (https://accesshub.pdc.wa.gov/node/40945),,,
30122,40917-38464,40917,FE,38463,Cadena Consulting,Employer,38464,CITY OF BURIEN,18-Jan,2/15/2018,16275.0,CITY OF BURIEN,3625.0,0.0,3625.0,0.0,0.0,0.0,0.0,0.0,0.0,0.0,3625.0,38464.0,Direct,,,View report (https://accesshub.pdc.wa.gov/node/40917),Fiscal,"Capital budget funding for Moshier Fields and shared maintenance facilities, tax incentives for warehouses",House and Senate
30123,40917-38895,40917,FE,38463,Cadena Consulting,Employer,38895,CITY OF EDMONDS (JENNIFER ZIEGLER),18-Jan,2/15/2018,16280.0,CITY OF EDMONDS,1750.0,0.0,1750.0,0.0,0.0,0.0,0.0,0.0,0.0,0.0,1750.0,38895.0,Subcontract,18108.0,JENNIFER ZIEGLER,View report (https://accesshub.pdc.wa.gov/node/40917),,,
30124,40906-19389,40906,FE,17870,OUTCOMES BY LEVY LLC*,Employer,19389,CITY OF EVERETT,18-Jan,2/15/2018,16281.0,CITY OF EVERETT,6180.0,0.0,6180.0,430.32,0.0,0.0,0.0,0.0,0.0,430.32,6610.32,19389.0,Direct,,,View report (https://accesshub.pdc.wa.gov/node/40906),Local government,City Priorities,"38th, 21st, 44th LD Legislators"
30125,40906-19390,40906,FE,17870,OUTCOMES BY LEVY LLC*,Employer,19390,CITY OF FIFE,18-Jan,2/15/2018,16283.0,CITY OF FIFE,3480.58,0.0,3480.58,436.59,0.0,0.0,0.0,0.0,0.0,436.59,3917.17,19390.0,Direct,,,View report (https://accesshub.pdc.wa.gov/node/40906),Local government,City Priorities,25th LD Legislators
30126,40906-19391,40906,FE,17870,OUTCOMES BY LEVY LLC*,Employer,19391,CITY OF ISSAQUAH,18-Jan,2/15/2018,16286.0,CITY OF ISSAQUAH,4500.0,0.0,4500.0,733.14,0.0,0.0,0.0,0.0,0.0,733.14,5233.14,19391.0,Direct,,,View report (https://accesshub.pdc.wa.gov/node/40906),Local government,City Priorities,5th and 41st LD Legislators
30127,40906-19392,40906,FE,17870,OUTCOMES BY LEVY LLC*,Employer,19392,CITY OF KENT,18-Jan,2/15/2018,16288.0,CITY OF KENT,6000.0,0.0,6000.0,419.97,0.0,0.0,0.0,0.0,0.0,419.97,6419.97,19392.0,Direct,,,View report (https://accesshub.pdc.wa.gov/node/40906),Local government,City Priorities,"33rd, 47th, 11th LD Legislators"
30128,40933-30482,40933,FE,17526,Arbutus Consulting LLC,Employer,30482,CITY OF LACEY (MARK O BROWN),18-Jan,2/15/2018,16294.0,CITY OF LACEY,834.0,0.0,834.0,0.0,0.0,0.0,0.0,0.0,0.0,0.0,834.0,30482.0,Subcontract,17413.0,MARK O BROWN,View report (https://accesshub.pdc.wa.gov/node/40933),,,
30129,40906-19393,40906,FE,17870,OUTCOMES BY LEVY LLC*,Employer,19393,CITY OF LAKE STEVENS,18-Jan,2/15/2018,16297.0,CITY OF LAKE STEVENS,4500.0,0.0,4500.0,410.96,0.0,0.0,0.0,0.0,0.0,410.96,4910.96,19393.0,Direct,,,View report (https://accesshub.pdc.wa.gov/node/40906),Local government,City Priorities,44th LD Legislators
30130,40906-19394,40906,FE,17870,OUTCOMES BY LEVY LLC*,Employer,19394,CITY OF PUYALLUP,18-Jan,2/15/2018,16302.0,CITY OF PUYALLUP,4500.0,0.0,4500.0,485.93,0.0,0.0,0.0,0.0,0.0,485.93,4985.93,19394.0,Direct,,,View report (https://accesshub.pdc.wa.gov/node/40906),Local government,City Priorities,25th LD Legislators
30131,40906-19395,40906,FE,17870,OUTCOMES BY LEVY LLC*,Employer,19395,CITY OF RENTON,18-Jan,2/15/2018,16306.0,CITY OF RENTON,5000.0,0.0,5000.0,381.36,0.0,0.0,0.0,0.0,0.0,381.36,5381.36,19395.0,Direct,,,View report (https://accesshub.pdc.wa.gov/node/40906),Local government,City Priorities,"11th, 37th, 41st, 33rd LD Legislators"
30132,40906-19396,40906,FE,17870,OUTCOMES BY LEVY LLC*,Employer,19396,CITY OF REDMOND,18-Jan,2/15/2018,16307.0,CITY OF REDMOND,5600.0,0.0,5600.0,456.29,0.0,0.0,0.0,0.0,0.0,456.29,6056.29,19396.0,Direct,,,View report (https://accesshub.pdc.wa.gov/node/40906),Local government,City Priorities,"48th, 45th LD Legislators"
30133,40878-18159,40878,FE,17342,DAVID C ARBAUGH,Employer,18159,CITY OF RICHLAND,18-Jan,2/15/2018,16308.0,CITY OF RICHLAND,3000.0,0.0,3000.0,0.0,0.0,0.0,0.0,0.0,0.0,0.0,3000.0,18159.0,Direct,,,View report (https://accesshub.pdc.wa.gov/node/40878),Local government,Local Government,Government Operations Local
30134,40933-30484,40933,FE,17526,Arbutus Consulting LLC,Employer,30484,CITY OF RIDGEFIELD (MARK O BROWN),18-Jan,2/15/2018,16309.0,CITY OF RIDGEFIELD,833.0,0.0,833.0,0.0,0.0,0.0,0.0,0.0,0.0,0.0,833.0,30484.0,Subcontract,17413.0,MARK O BROWN,View report (https://accesshub.pdc.wa.gov/node/40933),,,
30135,40917-38466,40917,FE,38463,Cadena Consulting,Employer,38466,CITY OF SEATTLE,18-Jan,2/15/2018,16311.0,CITY OF SEATTLE,5000.0,0.0,5000.0,0.0,0.0,0.0,0.0,0.0,0.0,0.0,5000.0,38466.0,Direct,,,View report (https://accesshub.pdc.wa.gov/node/40917),Human services,"affordable housing, land use, homelessness, and mental health",House and senate
30136,40389-39052,40389,FE,38146,RNJ Strategies,Employer,39052,CITY OF SEATTLE,18-Jan,2/15/2018,16311.0,CITY OF SEATTLE,5250.0,0.0,5250.0,0.0,0.0,0.0,0.0,0.0,0.0,0.0,5250.0,39052.0,Direct,,,View report (https://accesshub.pdc.wa.gov/node/40389),Transportation,Transportation,All House Senate
30137,41053-19851,41053,FE,18068,WASHINGTON 2 ADVOCATES*,Employer,19851,CITY OF SUMNER,18-Jan,2/15/2018,16315.0,CITY OF SUMNER,5250.0,-2500.0,2750.0,0.0,0.0,0.0,0.0,0.0,0.0,0.0,2750.0,19851.0,Direct,,,View report (https://accesshub.pdc.wa.gov/node/41053),Transportation,transpo projects,transportation committees
30138,40933-30485,40933,FE,17526,Arbutus Consulting LLC,Employer,30485,City of Vancouver (MARK O BROWN),18-Jan,2/15/2018,16319.0,City of Vancouver,833.0,0.0,833.0,0.0,0.0,0.0,0.0,0.0,0.0,0.0,833.0,30485.0,Subcontract,17413.0,MARK O BROWN,View report (https://accesshub.pdc.wa.gov/node/40933),,,
30139,40938-18637,40938,FE,17511,TOM ECHOLS,Employer,18637,COALITION OF COASTAL FISHERIES,18-Jan,2/15/2018,16331.0,COALITION OF COASTAL FISHERIES,1750.0,0.0,1750.0,0.0,0.0,0.0,0.0,0.0,0.0,0.0,1750.0,18637.0,Direct,,,View report (https://accesshub.pdc.wa.gov/node/40938),Environmental Affairs - natural resources - parks,2626,House AGNR
30140,41024-18130,41024,FE,17335,NICHOLAS ALLEN,Employer,18130,COLUMBIA LEGAL SERVICES,18-Jan,2/15/2018,16338.0,COLUMBIA LEGAL SERVICES,297.84,0.0,297.84,0.0,0.0,0.0,0.0,0.0,0.0,0.0,297.84,18130.0,Direct,,,View report (https://accesshub.pdc.wa.gov/node/41024),Law and justice,HB 2895/SB 6160/HB 1783,Senate Law and Justice/Sen Hum Servs & Corr/House Early Learning &Hum Servs
30141,40578-30621,40578,FE,30619,Eulalia Sotelo,Employer,30621,COLUMBIA LEGAL SERVICES,18-Jan,2/15/2018,16338.0,COLUMBIA LEGAL SERVICES,4520.0,0.0,4520.0,518.49,0.0,0.0,0.0,0.0,0.0,518.49,5038.49,30621.0,Direct,,,View report (https://accesshub.pdc.wa.gov/node/40578),Higher education,HB 1169,House Higher Education Committee
30142,40978-19871,40978,FE,18075,RHONDA WEAVER,Employer,19871,COMCAST CABLE COMMUNICATIONS,18-Jan,2/15/2018,16344.0,COMCAST CABLE COMMUNICATIONS,3215.0,0.0,3215.0,0.0,0.0,500.0,0.0,0.0,0.0,500.0,3715.0,19871.0,Direct,,,View report (https://accesshub.pdc.wa.gov/node/40978),Technology,General business and telecommunications issues.,Various state agencies and legislative committees.
30143,41043-37638,41043,FE,17709,DAVE KNUTSON,Employer,37638,COMMUNITY HEALTH NETWORK OF WA,18-Jan,2/15/2018,16348.0,COMMUNITY HEALTH NETWORK OF WA,5000.0,0.0,5000.0,0.0,0.0,0.0,0.0,0.0,0.0,0.0,5000.0,37638.0,Direct,,,View report (https://accesshub.pdc.wa.gov/node/41043),Health Care,operating budget,House and Senate fiscal committees
30144,40982-31648,40982,FE,17341,RICK ANDERSON,Employer,31648,COMMUNITIES IN SCHOOLS OF WA,18-Jan,2/15/2018,16351.0,COMMUNITIES IN SCHOOLS OF WA,5000.0,0.0,5000.0,0.0,0.0,0.0,0.0,0.0,0.0,0.0,5000.0,31648.0,Direct,,,View report (https://accesshub.pdc.wa.gov/node/40982),Education,Integrated Student Supports,"Education Committees, OSPI"
30145,40297-18763,40297,FE,17565,GANO & ASSOC*,Employer,18763,CONTINENTAL CASUALTY COMPANY (CNA Insurance Companies),18-Jan,2/15/2018,16363.0,CONTINENTAL CASUALTY COMPANY (CNA Insurance Companies),3500.0,-462.25,3037.75,0.0,0.0,0.0,0.0,0.0,0.0,0.0,3037.75,18763.0,Direct,,,View report (https://accesshub.pdc.wa.gov/node/40297),Financial institutions and insurance,Insurance,H S Financial Inst and Insurance
30146,40297-18764,40297,FE,17565,GANO & ASSOC*,Employer,18764,Molson Coors Beverage Company USA LLC,18-Jan,2/15/2018,16366.0,Molson Coors Beverage Company USA LLC,4333.33,-528.29,3805.04,0.0,0.0,0.0,0.0,0.0,0.0,0.0,3805.04,18764.0,Direct,,,View report (https://accesshub.pdc.wa.gov/node/40297),Business and consumer affairs,Beer,H S Commerce
30147,39140-19467,39140,FE,17897,POTTS & ASSOC*,Employer,19467,DOUGLAS CO COMMISSION,18-Jan,2/15/2018,16394.0,DOUGLAS CO COMMISSION,1000.0,0.0,1000.0,0.0,0.0,0.0,0.0,0.0,0.0,0.0,1000.0,19467.0,Direct,,,View report (https://accesshub.pdc.wa.gov/node/39140),Local government,"Agriculture, water, natural resources, GMA, fire, transportation, WATVs, indegent defense","Transportation, local government, state government, Ag & Natural resource, and environment"
30148,40297-18765,40297,FE,17565,GANO & ASSOC*,Employer,18765,Expedia Group,18-Jan,2/15/2018,16427.0,Expedia Group,4500.0,-400.0,4100.0,0.0,0.0,15500.0,0.0,0.0,0.0,15500.0,19600.0,18765.0,Direct,,,View report (https://accesshub.pdc.wa.gov/node/40297),Technology,Travel Agent,"H S Tech, Local Gov Business and Consumer"
30149,39140-19468,39140,FE,17897,POTTS & ASSOC*,Employer,19468,FERRY CO COMMISSION,18-Jan,2/15/2018,16440.0,FERRY CO COMMISSION,1000.0,0.0,1000.0,0.0,0.0,0.0,0.0,0.0,0.0,0.0,1000.0,19468.0,Direct,,,View report (https://accesshub.pdc.wa.gov/node/39140),Local government,"Agriculture, water, natural resources, GMA, fire, transportation, WATVs, indegent defense","Transportation, local government, state government, Ag & Natural resource, and environment"
30150,39140-19469,39140,FE,17897,POTTS & ASSOC*,Employer,19469,FRANKLIN CO COMMISSION,18-Jan,2/15/2018,16453.0,FRANKLIN CO COMMISSION,1000.0,0.0,1000.0,0.0,0.0,0.0,0.0,0.0,0.0,0.0,1000.0,19469.0,Direct,,,View report (https://accesshub.pdc.wa.gov/node/39140),,,
30151,40865-28134,40865,FE,25651,Insight Strategic Partners LLC,Employer,28134,FRED HUTCHINSON CANCER RESEARCH CENTER,18-Jan,2/15/2018,16458.0,FRED HUTCHINSON CANCER RESEARCH CENTER,6000.0,0.0,6000.0,0.0,0.0,0.0,0.0,0.0,0.0,0.0,6000.0,28134.0,Direct,,,View report (https://accesshub.pdc.wa.gov/node/40865),Health Care,SB5375,Healthcare Committee
30152,40972-19302,40972,FE,17816,BRIAN MINNICH,Employer,19302,FREEDOM FOUNDATION,18-Jan,2/15/2018,16460.0,FREEDOM FOUNDATION,750.0,0.0,750.0,0.0,0.0,0.0,0.0,0.0,0.0,0.0,750.0,19302.0,Direct,,,View report (https://accesshub.pdc.wa.gov/node/40972),Labor,SB 6199,Senate Committee on Health & Long Term Care
30153,35284-18984,35284,FE,17654,Trent M House,Employer,18984,GENENTECH,17-Jun,2/15/2018,16467.0,GENENTECH,3000.0,0.0,3000.0,0.0,0.0,0.0,0.0,0.0,0.0,0.0,3000.0,18984.0,Direct,,,View report (https://accesshub.pdc.wa.gov/node/35284),Health Care,Drug Pricing,Health Care Committees
30154,40060-18984,40060,FE,17654,Trent M House,Employer,18984,GENENTECH,18-Jan,2/15/2018,16467.0,GENENTECH,3000.0,0.0,3000.0,0.0,0.0,0.0,0.0,0.0,0.0,0.0,3000.0,18984.0,Direct,,,View report (https://accesshub.pdc.wa.gov/node/40060),Health Care,Drug Pricing,Health Care Committees
30155,40297-18767,40297,FE,17565,GANO & ASSOC*,Employer,18767,CAL PORTLAND COMPANY,18-Jan,2/15/2018,16472.0,CAL PORTLAND COMPANY,4000.0,-528.29,3471.71,283.73,0.0,0.0,0.0,0.0,0.0,283.73,3755.44,18767.0,Direct,,,View report (https://accesshub.pdc.wa.gov/node/40297),Agriculture,Construction Materials,"H S Ag, HS Transportation"
30156,39140-19470,39140,FE,17897,POTTS & ASSOC*,Employer,19470,GRANT CO COMMISSION,18-Jan,2/15/2018,16479.0,GRANT CO COMMISSION,1000.0,0.0,1000.0,0.0,0.0,0.0,0.0,0.0,0.0,0.0,1000.0,19470.0,Direct,,,View report (https://accesshub.pdc.wa.gov/node/39140),Local government,"Agriculture, water, natural resources, GMA, fire, transportation, WATVs, indegent defense","Transportation, local government, state government, Ag & Natural resource, and environment"
30157,29851-18285,29851,FE,17398,BOSWELL CONSULTING*,Employer,18285,GREATER SEATTLE CHAMBER OF COMMERCE,17-Jan,2/15/2018,16483.0,GREATER SEATTLE CHAMBER OF COMMERCE,5000.0,0.0,5000.0,290.4,0.0,0.0,0.0,0.0,0.0,290.4,5290.4,18285.0,Direct,,,View report (https://accesshub.pdc.wa.gov/node/29851),Local government,various,various
30158,40918-18338,40918,FE,17423,William E Burris jr,Employer,18338,GUN OWNERS ACTION LEAGUE OF WA,18-Jan,2/15/2018,16487.0,GUN OWNERS ACTION LEAGUE OF WA,3000.0,0.0,3000.0,0.0,0.0,0.0,0.0,0.0,0.0,0.0,3000.0,18338.0,Direct,,,View report (https://accesshub.pdc.wa.gov/node/40918),Law and justice,"HB2666. SB6146, HB1134, S B550, HB1387, SB5444, HB2422, SB 6049, SB 5992, HB1122, SB5441, SB5553, SB6297, SB6298",Judiciary
30159,30305-19445,30305,FE,17881,DANIEL W PAUL,Employer,19445,HUMANE SOCIETY OF THE UNITED STATES,17-Jan,2/15/2018,16514.0,HUMANE SOCIETY OF THE UNITED STATES,869.12,0.0,869.12,0.0,0.0,0.0,0.0,0.0,0.0,0.0,869.12,19445.0,Direct,,,View report (https://accesshub.pdc.wa.gov/node/30305),Law and justice,5356,Senate Law & Justice Committee
30160,32055-19445,32055,FE,17881,DANIEL W PAUL,Employer,19445,HUMANE SOCIETY OF THE UNITED STATES,17-Feb,2/15/2018,16514.0,HUMANE SOCIETY OF THE UNITED STATES,551.08,0.0,551.08,0.0,0.0,0.0,0.0,0.0,0.0,0.0,551.08,19445.0,Direct,,,View report (https://accesshub.pdc.wa.gov/node/32055),Law and justice,SSB 5356,House Judiciary Committee
30161,32557-19445,32557,FE,17881,DANIEL W PAUL,Employer,19445,HUMANE SOCIETY OF THE UNITED STATES,17-Mar,2/15/2018,16514.0,HUMANE SOCIETY OF THE UNITED STATES,714.82,0.0,714.82,0.0,0.0,0.0,0.0,0.0,0.0,0.0,714.82,19445.0,Direct,,,View report (https://accesshub.pdc.wa.gov/node/32557),Law and justice,SBB 5356,House Judiciary Committe
30162,40938-18638,40938,FE,17511,TOM ECHOLS,Employer,18638,HUNTERS HERITAGE COUNCIL,18-Jan,2/15/2018,16515.0,HUNTERS HERITAGE COUNCIL,1500.0,0.0,1500.0,0.0,0.0,0.0,0.0,0.0,0.0,0.0,1500.0,18638.0,Direct,,,View report (https://accesshub.pdc.wa.gov/node/40938),Environmental Affairs - natural resources - parks,2505,House AGNR
30163,29851-18286,29851,FE,17398,BOSWELL CONSULTING*,Employer,18286,JAKES FIREWORKS,17-Jan,2/15/2018,16556.0,JAKES FIREWORKS,6000.0,0.0,6000.0,0.0,0.0,0.0,0.0,0.0,0.0,0.0,6000.0,18286.0,Direct,,,View report (https://accesshub.pdc.wa.gov/node/29851),Business and consumer affairs,various,various
30164,40964-19366,40964,FE,17851,NANCY F NOE,Employer,19366,"JOHNSON & JOHNSON SERVICES, INC.",18-Jan,2/15/2018,16562.0,"JOHNSON & JOHNSON SERVICES, INC.",1050.0,0.0,1050.0,0.0,0.0,0.0,0.0,0.0,0.0,0.0,1050.0,19366.0,Direct,,,View report (https://accesshub.pdc.wa.gov/node/40964),Health Care,SB5586,Ways & Means Com.
30165,40297-18769,40297,FE,17565,GANO & ASSOC*,Employer,18769,Kapstone Paper and Packaging d/b/a WestRock,18-Jan,2/15/2018,16571.0,Kapstone Paper and Packaging d/b/a WestRock,5500.0,-660.36,4839.64,0.0,0.0,0.0,0.0,0.0,0.0,0.0,4839.64,18769.0,Direct,,,View report (https://accesshub.pdc.wa.gov/node/40297),Energy and utilities,Biomass,H S Tech Sen Energy
30166,40297-18770,40297,FE,17565,GANO & ASSOC*,Employer,18770,KEYBANK,18-Jan,2/15/2018,16574.0,KEYBANK,1800.0,-237.73,1562.27,0.0,0.0,0.0,0.0,0.0,0.0,0.0,1562.27,18770.0,Direct,,,View report (https://accesshub.pdc.wa.gov/node/40297),Financial institutions and insurance,Banking,H S Financial Inst
30167,41053-19852,41053,FE,18068,WASHINGTON 2 ADVOCATES*,Employer,19852,KING CO FLOOD CONTROL DIST,18-Jan,2/15/2018,16577.0,KING CO FLOOD CONTROL DIST,3500.0,-2500.0,1000.0,0.0,0.0,0.0,0.0,0.0,0.0,0.0,1000.0,19852.0,Direct,,,View report (https://accesshub.pdc.wa.gov/node/41053),Local government,capital budget,capital budget
30168,39140-19471,39140,FE,17897,POTTS & ASSOC*,Employer,19471,KLICKITAT CO COMMISSION,18-Jan,2/15/2018,16583.0,KLICKITAT CO COMMISSION,1000.0,0.0,1000.0,0.0,0.0,0.0,0.0,0.0,0.0,0.0,1000.0,19471.0,Direct,,,View report (https://accesshub.pdc.wa.gov/node/39140),Local government,"Agriculture, water, natural resources, GMA, fire, transportation, WATVs, indegent defense","Transportation, local government, state government, Ag & Natural resource, and environment"
30169,40916-19853,40916,FE,18069,WA MEDIA SVCS INC*,Employer,19853,LEOFF1 COALITION,18-Jan,2/15/2018,16595.0,LEOFF1 COALITION,577.5,0.0,577.5,0.0,0.0,0.0,0.0,0.0,0.0,0.0,577.5,19853.0,Direct,,,View report (https://accesshub.pdc.wa.gov/node/40916),State government,HB 2719,Legislature
30171,39140-19472,39140,FE,17897,POTTS & ASSOC*,Employer,19472,LINCOLN CO COMMISSION,18-Jan,2/15/2018,16608.0,LINCOLN CO COMMISSION,1000.0,0.0,1000.0,0.0,0.0,0.0,0.0,0.0,0.0,0.0,1000.0,19472.0,Direct,,,View report (https://accesshub.pdc.wa.gov/node/39140),Local government,"Agriculture, water, natural resources, GMA, fire, transportation, WATVs, indegent defense","Transportation, local government, state government, Ag & Natural resource, and environment"
30172,40865-25652,40865,FE,25651,Insight Strategic Partners LLC,Employer,25652,LYFT INC,18-Jan,2/15/2018,16612.0,LYFT INC,8000.0,0.0,8000.0,0.0,0.0,0.0,0.0,0.0,0.0,0.0,8000.0,25652.0,Direct,,,View report (https://accesshub.pdc.wa.gov/node/40865),Transportation,Labor Policy Including Unemployment Insurance,Dept. of Transportation
30173,40297-18771,40297,FE,17565,GANO & ASSOC*,Employer,18771,MCNA HEALTH CARE HOLDINGS,18-Jan,2/15/2018,16627.0,MCNA HEALTH CARE HOLDINGS,6500.0,0.0,6500.0,0.0,0.0,0.0,0.0,0.0,0.0,0.0,6500.0,18771.0,Direct,,,View report (https://accesshub.pdc.wa.gov/node/40297),Health Care,Medicaid Dental,H S Health Care
30174,41011-19184,41011,FE,17769,Cyan Strategies,Employer,19184,NISSAN NORTH AMERICA,18-Jan,2/15/2018,16688.0,NISSAN NORTH AMERICA,1900.0,0.0,1900.0,0.0,0.0,0.0,0.0,0.0,0.0,0.0,1900.0,19184.0,Direct,,,View report (https://accesshub.pdc.wa.gov/node/41011),Transportation,EV sales tax,"Tranportation Committee, Exec"
30175,29851-18287,29851,FE,17398,BOSWELL CONSULTING*,Employer,18287,NORTHWEST AUTOMATIC VENDING ASSN,17-Jan,2/15/2018,16699.0,NORTHWEST AUTOMATIC VENDING ASSN,1500.0,0.0,1500.0,0.0,0.0,0.0,0.0,0.0,0.0,0.0,1500.0,18287.0,Direct,,,View report (https://accesshub.pdc.wa.gov/node/29851),Business and consumer affairs,various,various
30176,40995-30886,40995,FE,17907,Krystelle Purkey,Employer,30886,GoWest Credit Union Association,18-Jan,2/15/2018,16703.0,GoWest Credit Union Association,2500.0,0.0,2500.0,0.0,0.0,0.0,0.0,0.0,0.0,0.0,2500.0,30886.0,Direct,,,View report (https://accesshub.pdc.wa.gov/node/40995),Financial institutions and insurance,"1209, 2098, 5928","senante financial institutions & insurace, Houe judiciary, Senate & house rules"
30177,29851-18288,29851,FE,17398,BOSWELL CONSULTING*,Employer,18288,NUCOR STEEL SEATTLE INC,17-Jan,2/15/2018,16727.0,NUCOR STEEL SEATTLE INC,4000.0,0.0,4000.0,0.0,0.0,0.0,0.0,0.0,0.0,0.0,4000.0,18288.0,Direct,,,View report (https://accesshub.pdc.wa.gov/node/29851),Business and consumer affairs,na,na
30178,40882-18881,40882,FE,17591,LINDSEY R GRAD,Employer,18881,SEIU HEALTHCARE 1199 NW,18-Jan,2/15/2018,16729.0,SEIU HEALTHCARE 1199 NW,9705.06,0.0,9705.06,0.0,0.0,0.0,0.0,0.0,0.0,0.0,9705.06,18881.0,Direct,,,View report (https://accesshub.pdc.wa.gov/node/40882),Health Care,Health Care,All
30179,39140-19473,39140,FE,17897,POTTS & ASSOC*,Employer,19473,OKANOGAN CO COMMISSION,18-Jan,2/15/2018,16732.0,OKANOGAN CO COMMISSION,1000.0,0.0,1000.0,0.0,0.0,0.0,0.0,0.0,0.0,0.0,1000.0,19473.0,Direct,,,View report (https://accesshub.pdc.wa.gov/node/39140),Local government,"Agriculture, water, natural resources, GMA, fire, transportation, WATVs, indegent defense","Transportation, local government, state government, Ag & Natural resource, and environment"
30180,41043-19083,41043,FE,17709,DAVE KNUTSON,Employer,19083,PACIFIC NORTHWEST UNIVERSITY OF HEALTH SCIENCES,18-Jan,2/15/2018,16755.0,PACIFIC NORTHWEST UNIVERSITY OF HEALTH SCIENCES,5000.0,0.0,5000.0,0.0,0.0,0.0,0.0,0.0,0.0,0.0,5000.0,19083.0,Direct,,,View report (https://accesshub.pdc.wa.gov/node/41043),Health Care,SB 5544,Senate Ways & Means committee
30181,40389-38846,40389,FE,38146,RNJ Strategies,Employer,38846,PARENT TRUST FOR WA CHILDREN,18-Jan,2/15/2018,16763.0,PARENT TRUST FOR WA CHILDREN,1000.0,-500.0,500.0,0.0,0.0,0.0,0.0,0.0,0.0,0.0,500.0,38846.0,Direct,,,View report (https://accesshub.pdc.wa.gov/node/40389),Fiscal,Fiscal,All House Senate
30182,39140-19474,39140,FE,17897,POTTS & ASSOC*,Employer,19474,PEND OREILLE CO COMMISSION,18-Jan,2/15/2018,16771.0,PEND OREILLE CO COMMISSION,1000.0,0.0,1000.0,0.0,0.0,0.0,0.0,0.0,0.0,0.0,1000.0,19474.0,Direct,,,View report (https://accesshub.pdc.wa.gov/node/39140),Local government,"Agriculture, water, natural resources, GMA, fire, transportation, WATVs, indegent defense","Transportation, local government, state government, Ag & Natural resource, and environment"
30183,40939-33665,40939,FE,17843,SHERI NELSON,Employer,33665,PHARMACEUTICAL RSRCH/MFG OF AMERICA,18-Jan,2/15/2018,16776.0,PHARMACEUTICAL RSRCH/MFG OF AMERICA,269.22,0.0,269.22,0.0,0.0,0.0,0.0,0.0,0.0,0.0,269.22,33665.0,Direct,,,View report (https://accesshub.pdc.wa.gov/node/40939),Health Care,Pharmaceuticals Issues,Legislature
30184,40297-18772,40297,FE,17565,GANO & ASSOC*,Employer,18772,ALTRIA CLIENT SERVICES LLC & ITS AFFILIATES,18-Jan,2/15/2018,16778.0,ALTRIA CLIENT SERVICES LLC & ITS AFFILIATES,6666.67,-480.48,6186.19,0.0,0.0,0.0,0.0,0.0,0.0,0.0,6186.19,18772.0,Direct,,,View report (https://accesshub.pdc.wa.gov/node/40297),Business and consumer affairs,Tobacco,"H Commerce, Sen Commerce"
30185,40577-19080,40577,FE,17706,AMANDA KLUMP,Employer,19080,ALTRIA CLIENT SERVICES LLC & ITS AFFILIATES,18-Jan,2/15/2018,16778.0,ALTRIA CLIENT SERVICES LLC & ITS AFFILIATES,1000.0,0.0,1000.0,708.41,0.0,0.0,0.0,0.0,7606.03,8314.44,9314.44,19080.0,Direct,,,View report (https://accesshub.pdc.wa.gov/node/40577),Business and consumer affairs,Tobacco & Vaping business issues,"H Commerce, Senate Commerce"
30186,41025-40914,41025,FE,39080,Adair Dammann,Employer,40914,PLANNED PARENTHOOD ALLIANCE ADVOCATES,18-Jan,2/15/2018,16789.0,PLANNED PARENTHOOD ALLIANCE ADVOCATES,256.92,0.0,256.92,231.65,0.0,0.0,0.0,0.0,116.63,348.28,605.2,40914.0,Direct,,,View report (https://accesshub.pdc.wa.gov/node/41025),Health Care,6219,Health & Long-term care committee
30187,29851-18289,29851,FE,17398,BOSWELL CONSULTING*,Employer,18289,MC Construction,17-Jan,2/15/2018,16790.0,MC Construction,4000.0,0.0,4000.0,0.0,0.0,0.0,0.0,0.0,0.0,0.0,4000.0,18289.0,Direct,,,View report (https://accesshub.pdc.wa.gov/node/29851),Business and consumer affairs,various,various
30188,39140-19475,39140,FE,17897,POTTS & ASSOC*,Employer,19475,PORT OF ROYAL SLOPE,18-Jan,2/15/2018,16804.0,PORT OF ROYAL SLOPE,1000.0,0.0,1000.0,0.0,0.0,0.0,0.0,0.0,0.0,0.0,1000.0,19475.0,Direct,,,View report (https://accesshub.pdc.wa.gov/node/39140),Transportation,"GMA, fire protection, transportation, rail issues, rail funding, DOT operations","DOT, Transportation comittees, local government, & state government"
30189,35284-18987,35284,FE,17654,Trent M House,Employer,18987,PORT OF SEATTLE,17-Jun,2/15/2018,16805.0,PORT OF SEATTLE,7000.0,0.0,7000.0,0.0,0.0,0.0,0.0,0.0,0.0,0.0,7000.0,18987.0,Direct,,,View report (https://accesshub.pdc.wa.gov/node/35284),Transportation,"Real ID, TNC's, Taxi Cabs, Elections","Transportation Committees, Local Government Committees"
30190,40060-18987,40060,FE,17654,Trent M House,Employer,18987,PORT OF SEATTLE,18-Jan,2/15/2018,16805.0,PORT OF SEATTLE,7000.0,0.0,7000.0,0.0,0.0,0.0,0.0,0.0,0.0,0.0,7000.0,18987.0,Direct,,,View report (https://accesshub.pdc.wa.gov/node/40060),Transportation,"Real ID, TNC's, Taxi Cabs, Elections","Transportation Committees, Local Government Committees"
30191,40933-39186,40933,FE,17526,Arbutus Consulting LLC,Employer,39186,PORT OF WALLA WALLA,18-Jan,2/15/2018,16809.0,PORT OF WALLA WALLA,3500.0,0.0,3500.0,0.0,0.0,0.0,0.0,0.0,0.0,0.0,3500.0,39186.0,Direct,,,View report (https://accesshub.pdc.wa.gov/node/40933),Local government,"capital budget, economic development","House and Senate Local Government Committee, Capital Budget"
30192,40297-18773,40297,FE,17565,GANO & ASSOC*,Employer,18773,PREMERA BLUE CROSS,18-Jan,2/15/2018,16812.0,PREMERA BLUE CROSS,10084.0,0.0,10084.0,866.77,0.0,0.0,0.0,0.0,0.0,866.77,10950.77,18773.0,Direct,,,View report (https://accesshub.pdc.wa.gov/node/40297),Health Care,Health Care,H S Healthcare
30193,40912-19646,40912,FE,17975,LEONARD SORRIN,Employer,19646,PREMERA BLUE CROSS,18-Jan,2/15/2018,16812.0,PREMERA BLUE CROSS,1431.0,0.0,1431.0,42.71,0.0,0.0,0.0,0.0,0.0,42.71,1473.71,19646.0,Direct,,,View report (https://accesshub.pdc.wa.gov/node/40912),Health Care,HC Legislation (Various),Washington State Legislature
30194,35284-18988,35284,FE,17654,Trent M House,Employer,18988,PROVIDENCE HEALTH & SERVICES- WA,17-Jun,2/15/2018,16821.0,PROVIDENCE HEALTH & SERVICES- WA,5500.0,0.0,5500.0,0.0,0.0,0.0,0.0,0.0,0.0,0.0,5500.0,18988.0,Direct,,,View report (https://accesshub.pdc.wa.gov/node/35284),Health Care,"1411, Dental Residencies",Health Care Committee
30195,40060-18988,40060,FE,17654,Trent M House,Employer,18988,PROVIDENCE HEALTH & SERVICES- WA,18-Jan,2/15/2018,16821.0,PROVIDENCE HEALTH & SERVICES- WA,6000.0,0.0,6000.0,0.0,0.0,0.0,0.0,0.0,0.0,0.0,6000.0,18988.0,Direct,,,View report (https://accesshub.pdc.wa.gov/node/40060),Health Care,Dental Residencies,Health Care Committee
30196,40605-19377,40605,FE,17857,NINA ODELL,Employer,19377,PUGET SOUND ENERGY INC,18-Jan,2/15/2018,16828.0,PUGET SOUND ENERGY INC,2345.0,0.0,2345.0,2100.0,0.0,0.0,0.0,0.0,0.0,2100.0,4445.0,19377.0,Direct,,,View report (https://accesshub.pdc.wa.gov/node/40605),Energy and utilities,Energy and utilities,"Legislature, Executive"
30197,40865-25657,40865,FE,25651,Insight Strategic Partners LLC,Employer,25657,PUGET SOUND ENERGY INC,18-Jan,2/15/2018,16828.0,PUGET SOUND ENERGY INC,8500.0,0.0,8500.0,0.0,0.0,0.0,0.0,0.0,0.0,0.0,8500.0,25657.0,Direct,,,View report (https://accesshub.pdc.wa.gov/node/40865),,,
30198,40818-28338,40818,FE,17653,BRANDON HOUSKEEPER,Employer,28338,PUGET SOUND ENERGY INC,18-Jan,2/15/2018,16828.0,PUGET SOUND ENERGY INC,8000.0,0.0,8000.0,984.21,69.23,2500.0,0.0,0.0,0.0,3553.44,11553.44,28338.0,Direct,,,View report (https://accesshub.pdc.wa.gov/node/40818),Energy and utilities,"Carbon tax, RPS, solar, regualtion","Legislature, Executive office, UTC"
30199,40790-39497,40790,FE,39496,Kelsey Hulse,Employer,39497,PUGET SOUND ENERGY INC,18-Jan,2/15/2018,16828.0,PUGET SOUND ENERGY INC,7000.0,0.0,7000.0,239.0,0.0,0.0,0.0,0.0,0.0,239.0,7239.0,39497.0,Direct,,,View report (https://accesshub.pdc.wa.gov/node/40790),Energy and utilities,"Net metering, on-bill financing, voluntary purchase of renewable energy","House of Representatives, Senate, Agency"
30200,40906-19397,40906,FE,17870,OUTCOMES BY LEVY LLC*,Employer,19397,RECREATIONAL BOATING ASSN OF WA,18-Jan,2/15/2018,16844.0,RECREATIONAL BOATING ASSN OF WA,3000.0,0.0,3000.0,323.14,0.0,0.0,0.0,0.0,0.0,323.14,3323.14,19397.0,Direct,,,View report (https://accesshub.pdc.wa.gov/node/40906),Environmental Affairs - natural resources - parks,Recreational Boating Issues,"Operating, Capital, and Transportation budget writers"
30201,40929-19843,40929,FE,18064,RICHARD C WARBROUCK,Employer,19843,RETIRED FIREFIGHTERS OF WA,18-Jan,2/15/2018,16858.0,RETIRED FIREFIGHTERS OF WA,1920.0,0.0,1920.0,609.88,0.0,0.0,0.0,0.0,0.0,609.88,2529.88,19843.0,Direct,,,View report (https://accesshub.pdc.wa.gov/node/40929),Local government,HB 2719,House Local Govenment
30202,40389-40913,40389,FE,38146,RNJ Strategies,Employer,40913,SAMISH INDIAN NATION (The Arledge Group),18-Jan,2/15/2018,16870.0,SAMISH INDIAN NATION,2700.0,0.0,2700.0,0.0,0.0,0.0,0.0,0.0,0.0,0.0,2700.0,40913.0,Subcontract,37395.0,The Arledge Group,View report (https://accesshub.pdc.wa.gov/node/40389),,,
30203,40539-19857,40539,FE,18071,WA ST NURSES ASSN,Employer,19857,SCHOOL NURSES ORGANIZATION OF WA,18-Jan,2/15/2018,16882.0,SCHOOL NURSES ORGANIZATION OF WA,400.0,0.0,400.0,0.0,0.0,0.0,0.0,0.0,0.0,0.0,400.0,19857.0,Direct,,,View report (https://accesshub.pdc.wa.gov/node/40539),Health Care,Nursing/Health Care Issues,"Healthcare, Labor, Budget Committees, Dept of Health, Labor and Industries"
30204,40297-18774,40297,FE,17565,GANO & ASSOC*,Employer,18774,SCI Shared Resources LLC,18-Jan,2/15/2018,16884.0,SCI Shared Resources LLC,4000.0,-528.29,3471.71,0.0,0.0,0.0,0.0,0.0,0.0,0.0,3471.71,18774.0,Direct,,,View report (https://accesshub.pdc.wa.gov/node/40297),Business and consumer affairs,Funeral business,H S Business and Consumer Affairs
30205,40297-18775,40297,FE,17565,GANO & ASSOC*,Employer,18775,SCIENTIFIC GAMES CORPORATION,18-Jan,2/15/2018,16885.0,SCIENTIFIC GAMES CORPORATION,3000.0,0.0,3000.0,0.0,0.0,0.0,0.0,0.0,0.0,0.0,3000.0,18775.0,Direct,,,View report (https://accesshub.pdc.wa.gov/node/40297),Fiscal,Lottery Scratch Tickets,WA Lottery H S Commerce
30206,40297-18776,40297,FE,17565,GANO & ASSOC*,Employer,18776,SHELL OIL CO,18-Jan,2/15/2018,16911.0,SHELL OIL CO,5000.0,-660.36,4339.64,0.0,0.0,0.0,0.0,0.0,0.0,0.0,4339.64,18776.0,Direct,,,View report (https://accesshub.pdc.wa.gov/node/40297),Transportation,Oil Refinery,H S Trans H S Business Fiscal
30207,40878-18162,40878,FE,17342,DAVID C ARBAUGH,Employer,18162,SNOHOMISH CO PUBLIC UTILITY DIST #1,18-Jan,2/15/2018,16926.0,SNOHOMISH CO PUBLIC UTILITY DIST #1,6500.0,0.0,6500.0,0.0,0.0,0.0,0.0,0.0,0.0,0.0,6500.0,18162.0,Direct,,,View report (https://accesshub.pdc.wa.gov/node/40878),Energy and utilities,Energy/Water,TEC EWE
30208,40919-27358,40919,FE,27257,Paribello Public Affairs,Employer,27358,SOCIETY OF PROFESSIONAL ENGINEERING EMPLOYEES IN AEROSPACE SPEEA,18-Jan,2/15/2018,16928.0,SOCIETY OF PROFESSIONAL ENGINEERING EMPLOYEES IN AEROSPACE SPEEA,3000.0,0.0,3000.0,0.0,0.0,0.0,0.0,0.0,0.0,0.0,3000.0,27358.0,Direct,,,View report (https://accesshub.pdc.wa.gov/node/40919),Labor,"HB 2355, HB 2796, SB 5993, SB 6062, SB 6162, SB 6406, SB 6544",House and Senate
30209,29851-18290,29851,FE,17398,BOSWELL CONSULTING*,Employer,18290,Washington Solar Energy Industries Association,17-Jan,2/15/2018,16929.0,Washington Solar Energy Industries Association,4000.0,0.0,4000.0,870.0,0.0,0.0,0.0,0.0,0.0,870.0,4870.0,18290.0,Direct,,,View report (https://accesshub.pdc.wa.gov/node/29851),Energy and utilities,various,various
30210,40297-18777,40297,FE,17565,GANO & ASSOC*,Employer,18777,STE MICHELLE WINE ESTATES LLC,18-Jan,2/15/2018,16948.0,STE MICHELLE WINE ESTATES LLC,4500.0,-594.32,3905.68,0.0,0.0,2580.0,0.0,0.0,0.0,2580.0,6485.68,18777.0,Direct,,,View report (https://accesshub.pdc.wa.gov/node/40297),Business and consumer affairs,Wine,H S Commerce
30211,39140-19476,39140,FE,17897,POTTS & ASSOC*,Employer,19476,STEVENS CO COMMISSION,18-Jan,2/15/2018,16954.0,STEVENS CO COMMISSION,1000.0,0.0,1000.0,0.0,0.0,0.0,0.0,0.0,0.0,0.0,1000.0,19476.0,Direct,,,View report (https://accesshub.pdc.wa.gov/node/39140),Local government,"Agriculture, water, natural resources, GMA, fire, transportation, WATVs, indegent defense","Transportation, local government, state government, Ag & Natural resource, and environment"
30212,40945-29490,40945,FE,25302,Northwest Solutions,Employer,29490,STILLAGUAMISH TRIBE OF INDIANS,18-Jan,2/15/2018,16955.0,STILLAGUAMISH TRIBE OF INDIANS,1750.0,0.0,1750.0,0.0,0.0,0.0,0.0,0.0,0.0,0.0,1750.0,29490.0,Direct,,,View report (https://accesshub.pdc.wa.gov/node/40945),Environmental Affairs - natural resources - parks,Elk management,Representative Carolyn Eslick
30213,40973-19454,40973,FE,17890,LEE PHILLIPS,Employer,19454,SUNRISE SERVICES INC,18-Jan,2/15/2018,16959.0,SUNRISE SERVICES INC,1200.0,0.0,1200.0,0.0,0.0,0.0,0.0,0.0,0.0,0.0,1200.0,19454.0,Direct,,,View report (https://accesshub.pdc.wa.gov/node/40973),Fiscal,Budget,"Appropriations, Ways & Means"
30214,29851-18291,29851,FE,17398,BOSWELL CONSULTING*,Employer,18291,Uber Technologies Inc and Affiliates,17-Jan,2/15/2018,17001.0,Uber Technologies Inc and Affiliates,5000.0,0.0,5000.0,0.0,0.0,0.0,0.0,0.0,0.0,0.0,5000.0,18291.0,Direct,,,View report (https://accesshub.pdc.wa.gov/node/29851),Transportation,various,various
30215,40297-18780,40297,FE,17565,GANO & ASSOC*,Employer,18780,Uber Technologies Inc and Affiliates,18-Jan,2/15/2018,17001.0,Uber Technologies Inc and Affiliates,7500.0,-500.0,7000.0,0.0,0.0,0.0,0.0,0.0,0.0,0.0,7000.0,18780.0,Direct,,,View report (https://accesshub.pdc.wa.gov/node/40297),Technology,Rideshare,H S Transport H S Commerce
30216,40389-40398,40389,FE,38146,RNJ Strategies,Employer,40398,UNITED FOOD & COMM WRKRS # 3000,18-Jan,2/15/2018,17005.0,UNITED FOOD & COMM WRKRS # 3000,4150.0,0.0,4150.0,0.0,0.0,0.0,0.0,0.0,0.0,0.0,4150.0,40398.0,Direct,,,View report (https://accesshub.pdc.wa.gov/node/40389),Labor,Labor,All House Senate
30217,29851-28159,29851,FE,17398,BOSWELL CONSULTING*,Employer,28159,VALLEY MEDICAL CENTER,17-Jan,2/15/2018,17027.0,VALLEY MEDICAL CENTER,7000.0,0.0,7000.0,0.0,0.0,0.0,0.0,0.0,0.0,0.0,7000.0,28159.0,Direct,,,View report (https://accesshub.pdc.wa.gov/node/29851),,,
30218,29851-18292,29851,FE,17398,BOSWELL CONSULTING*,Employer,18292,VIGOR INDUSTRIAL,17-Jan,2/15/2018,17035.0,VIGOR INDUSTRIAL,4500.0,0.0,4500.0,0.0,0.0,0.0,0.0,0.0,0.0,0.0,4500.0,18292.0,Direct,,,View report (https://accesshub.pdc.wa.gov/node/29851),Business and consumer affairs,various,various
30219,40297-18781,40297,FE,17565,GANO & ASSOC*,Employer,18781,WALMART INC.,18-Jan,2/15/2018,17042.0,WALMART INC.,8000.0,-924.5,7075.5,0.0,0.0,0.0,0.0,0.0,0.0,0.0,7075.5,18781.0,Direct,,,View report (https://accesshub.pdc.wa.gov/node/40297),Business and consumer affairs,Retail Stores,H S Business H S Commerce
30220,39506-18962,39506,FE,17634,DEBORAH HERRON,Employer,18962,WALMART INC.,17-Dec,2/15/2018,17042.0,WALMART INC.,500.0,0.0,500.0,0.0,0.0,5000.0,0.0,0.0,0.0,5000.0,5500.0,18962.0,Direct,,,View report (https://accesshub.pdc.wa.gov/node/39506),Business and consumer affairs,Retail,Legislature
30221,40851-18962,40851,FE,17634,DEBORAH HERRON,Employer,18962,WALMART INC.,18-Jan,2/15/2018,17042.0,WALMART INC.,1500.0,0.0,1500.0,500.0,0.0,0.0,0.0,0.0,0.0,500.0,2000.0,18962.0,Direct,,,View report (https://accesshub.pdc.wa.gov/node/40851),Business and consumer affairs,Retail,Legislature
30222,40060-39392,40060,FE,17654,Trent M House,Employer,39392,WA BANKERS ASSN,18-Jan,2/15/2018,17061.0,WA BANKERS ASSN,10000.0,0.0,10000.0,0.0,0.0,0.0,0.0,0.0,0.0,0.0,10000.0,39392.0,Direct,,,View report (https://accesshub.pdc.wa.gov/node/40060),,,
30223,41033-39751,41033,FE,39750,Annie McGrath,Employer,39751,WA BREWERS GUILD,18-Jan,2/15/2018,17065.0,WA BREWERS GUILD,1541.67,0.0,1541.67,0.0,400.0,0.0,0.0,0.0,0.0,400.0,1941.67,39751.0,Direct,,,View report (https://accesshub.pdc.wa.gov/node/41033),Business and consumer affairs,"HB 2517, SB 6346, HB 2419, HB 2573, SB 6212","House Labor & Commerce, Senate Labor & Commerce, House and Senate"
30224,41007-28609,41007,FE,28243,Margaret Shield,Employer,28609,ZERO WASTE WA,18-Jan,2/15/2018,17086.0,ZERO WASTE WA,1500.0,0.0,1500.0,0.0,0.0,0.0,0.0,0.0,0.0,0.0,1500.0,28609.0,Direct,,,View report (https://accesshub.pdc.wa.gov/node/41007),Health Care,House Bill 1047,Rep. Peterson; House Health Care & Wellness Committee; Senate Health & Long-Term Care; WA Dept of Health; WA Pharmacy Quality Assurance Commission; WA Ecology
30225,40389-38848,40389,FE,38146,RNJ Strategies,Employer,38848,WA COALITION OF SEXUAL ASSAULT PROGRAMS,18-Jan,2/15/2018,17087.0,WA COALITION OF SEXUAL ASSAULT PROGRAMS,2800.0,0.0,2800.0,0.0,0.0,0.0,0.0,0.0,0.0,0.0,2800.0,38848.0,Direct,,,View report (https://accesshub.pdc.wa.gov/node/40389),Law and justice,Public Safety,All House Senate
30226,29851-18293,29851,FE,17398,BOSWELL CONSULTING*,Employer,18293,CLEANTECH ALLIANCE,17-Jan,2/15/2018,17088.0,CLEANTECH ALLIANCE,4000.0,0.0,4000.0,0.0,0.0,0.0,0.0,0.0,0.0,0.0,4000.0,18293.0,Direct,,,View report (https://accesshub.pdc.wa.gov/node/29851),Energy and utilities,various,various
30227,41032-19070,41032,FE,17698,Juliet Schindler,Employer,19070,COLLEGE SUCCESS FOUNDATION,18-Jan,2/15/2018,17104.0,COLLEGE SUCCESS FOUNDATION,3000.0,0.0,3000.0,0.0,0.0,0.0,0.0,0.0,0.0,0.0,3000.0,19070.0,Direct,,,View report (https://accesshub.pdc.wa.gov/node/41032),Higher education,"HB1488, SB 6274, SB 6223, ed funding",higher ed and fiscal committees
30230,40922-18633,40922,FE,17509,DENNIS EAGLE,Employer,18633,WA FEDERATION OF STATE EMPLOYEES,18-Jan,2/15/2018,17121.0,WA FEDERATION OF STATE EMPLOYEES,8565.5,0.0,8565.5,0.0,0.0,0.0,0.0,0.0,0.0,0.0,8565.5,18633.0,Direct,,,View report (https://accesshub.pdc.wa.gov/node/40922),State government,SHB 1434,H Rules
30231,40909-18903,40909,FE,17598,ALIA GRIFFING,Employer,18903,WA FEDERATION OF STATE EMPLOYEES,18-Jan,2/15/2018,17121.0,WA FEDERATION OF STATE EMPLOYEES,3814.67,0.0,3814.67,0.0,0.0,0.0,0.0,0.0,0.0,0.0,3814.67,18903.0,Direct,,,View report (https://accesshub.pdc.wa.gov/node/40909),State government,HB 1851,H State Government & Electionc
30232,40910-19927,40910,FE,18111,MATT ZUVICH,Employer,19927,WA FEDERATION OF STATE EMPLOYEES,18-Jan,2/15/2018,17121.0,WA FEDERATION OF STATE EMPLOYEES,7012.5,0.0,7012.5,0.0,0.0,0.0,0.0,0.0,0.0,0.0,7012.5,19927.0,Direct,,,View report (https://accesshub.pdc.wa.gov/node/40910),State government,HB 1434,H Rules
30233,41043-19085,41043,FE,17709,DAVE KNUTSON,Employer,19085,WA HEALTH CARE ASSN,18-Jan,2/15/2018,17128.0,WA HEALTH CARE ASSN,8000.0,0.0,8000.0,0.0,0.0,0.0,0.0,0.0,0.0,0.0,8000.0,19085.0,Direct,,,View report (https://accesshub.pdc.wa.gov/node/41043),Health Care,HB 2515/HB2750,Legislature
30234,41043-19086,41043,FE,17709,DAVE KNUTSON,Employer,19086,WA OSTEOPATHIC MEDICAL ASSN,18-Jan,2/15/2018,17158.0,WA OSTEOPATHIC MEDICAL ASSN,2000.0,0.0,2000.0,0.0,0.0,0.0,0.0,0.0,0.0,0.0,2000.0,19086.0,Direct,,,View report (https://accesshub.pdc.wa.gov/node/41043),,,
30235,40905-18341,40905,FE,17426,GEORGE CAAN,Employer,18341,WA PUBLIC UTILITIES DISTS ASSN,18-Jan,2/15/2018,17176.0,WA PUBLIC UTILITIES DISTS ASSN,2050.0,0.0,2050.0,0.0,8367.0,0.0,0.0,0.0,0.0,8367.0,10417.0,18341.0,Direct,,,View report (https://accesshub.pdc.wa.gov/node/40905),,,
30236,35284-18989,35284,FE,17654,Trent M House,Employer,18989,WA PUBLIC UTILITIES DISTS ASSN,17-Jun,2/15/2018,17176.0,WA PUBLIC UTILITIES DISTS ASSN,2850.0,0.0,2850.0,0.0,0.0,0.0,0.0,0.0,0.0,0.0,2850.0,18989.0,Direct,,,View report (https://accesshub.pdc.wa.gov/node/35284),Local government,5G Wireless,"Energy, Telecommunications, Economic Development Committees"
30237,40906-19398,40906,FE,17870,OUTCOMES BY LEVY LLC*,Employer,19398,WA RECREATION & PARKS ASSN,18-Jan,2/15/2018,17183.0,WA RECREATION & PARKS ASSN,4300.0,0.0,4300.0,385.59,0.0,0.0,0.0,0.0,0.0,385.59,4685.59,19398.0,Direct,,,View report (https://accesshub.pdc.wa.gov/node/40906),Environmental Affairs - natural resources - parks,Recreational Issues,"Operating, Capital, and Transportation budget writers"
30238,29851-18294,29851,FE,17398,BOSWELL CONSULTING*,Employer,18294,WA BEVERAGE ASSN,17-Jan,2/15/2018,17190.0,WA BEVERAGE ASSN,5000.0,0.0,5000.0,451.75,0.0,0.0,0.0,0.0,0.0,451.75,5451.75,18294.0,Direct,,,View report (https://accesshub.pdc.wa.gov/node/29851),Business and consumer affairs,various,various
30239,41045-19253,41045,FE,17796,JAMES MCMAHAN,Employer,19253,WA ASSN OF SHERIFFS & POLICE CHIEFS,18-Jan,2/15/2018,17196.0,WA ASSN OF SHERIFFS & POLICE CHIEFS,6315.01,0.0,6315.01,0.0,0.0,0.0,0.0,0.0,0.0,0.0,6315.01,19253.0,Direct,,,View report (https://accesshub.pdc.wa.gov/node/41045),Law and justice,"SB6468, SB6188/HB2532, SB6517/HB2461, SB6408, HB2817, SB5689",State Legislature
30240,41048-40142,41048,FE,40141,STEVEN STRACHAN,Employer,40142,WA ASSN OF SHERIFFS & POLICE CHIEFS,18-Jan,2/15/2018,17196.0,WA ASSN OF SHERIFFS & POLICE CHIEFS,2500.05,0.0,2500.05,0.0,0.0,0.0,0.0,0.0,0.0,0.0,2500.05,40142.0,Direct,,,View report (https://accesshub.pdc.wa.gov/node/41048),Law and justice,"SB6468, SB6188/HB2532, SB6517/HB2461, SB6408, HB2817, SB5689",State Legislature
30241,40865-25653,40865,FE,25651,Insight Strategic Partners LLC,Employer,25653,WA TECHNOLOGY INDUSTRY ASSN,18-Jan,2/15/2018,17203.0,WA TECHNOLOGY INDUSTRY ASSN,8000.0,0.0,8000.0,0.0,0.0,0.0,0.0,0.0,0.0,0.0,8000.0,25653.0,Direct,,,View report (https://accesshub.pdc.wa.gov/node/40865),Technology,Technology Public Policy,Dept. of Revenue
30242,40933-18671,40933,FE,17526,Arbutus Consulting LLC,Employer,18671,WA STATE ASSN OF COUNTIES (WSAC),18-Jan,2/15/2018,17215.0,WA STATE ASSN OF COUNTIES (WSAC),3000.0,0.0,3000.0,0.0,0.0,0.0,0.0,0.0,0.0,0.0,3000.0,18671.0,Direct,,,View report (https://accesshub.pdc.wa.gov/node/40933),Local government,liability,"House and Senate Local Government Committee, Capital Budget"
30243,40904-38416,40904,FE,38415,Jaime Bodden,Employer,38416,WA STATE ASSN OF COUNTIES (WSAC),18-Jan,2/15/2018,17215.0,WA STATE ASSN OF COUNTIES (WSAC),1213.75,0.0,1213.75,0.0,0.0,0.0,0.0,0.0,0.0,0.0,1213.75,38416.0,Direct,,,View report (https://accesshub.pdc.wa.gov/node/40904),Health Care,Various,Various
30244,40460-38291,40460,FE,38289,Joseph A. Sprague,Employer,38291,WA ST CATHOLIC CONFERENCE,18-Jan,2/15/2018,17228.0,WA ST CATHOLIC CONFERENCE,3468.75,0.0,3468.75,356.6,0.0,0.0,0.0,0.0,0.0,356.6,3825.35,38291.0,Direct,,,View report (https://accesshub.pdc.wa.gov/node/40460),Human services,"human services, insurance, restorative justice, education",House & Senate
30245,40060-18991,40060,FE,17654,Trent M House,Employer,18991,WA ST DENTAL ASSN,18-Jan,2/15/2018,17238.0,WA ST DENTAL ASSN,8500.0,0.0,8500.0,0.0,0.0,0.0,0.0,0.0,0.0,0.0,8500.0,18991.0,Direct,,,View report (https://accesshub.pdc.wa.gov/node/40060),Health Care,Dental Insurance Reforms,Health Care Committees
30246,35284-18991,35284,FE,17654,Trent M House,Employer,18991,WA ST DENTAL ASSN,17-Jun,2/15/2018,17238.0,WA ST DENTAL ASSN,8500.0,0.0,8500.0,0.0,0.0,0.0,0.0,0.0,0.0,0.0,8500.0,18991.0,Direct,,,View report (https://accesshub.pdc.wa.gov/node/35284),Health Care,5322,Health Care Committees
30247,40938-18640,40938,FE,17511,TOM ECHOLS,Employer,18640,WA ST FINANCIAL SERVICES ASSN,18-Jan,2/15/2018,17249.0,WA ST FINANCIAL SERVICES ASSN,4000.0,0.0,4000.0,0.0,0.0,0.0,0.0,0.0,0.0,0.0,4000.0,18640.0,Direct,,,View report (https://accesshub.pdc.wa.gov/node/40938),,,
30248,29851-28160,29851,FE,17398,BOSWELL CONSULTING*,Employer,28160,"WASTE MANAGEMENT OF WASHINGTON, INC.",17-Jan,2/15/2018,17260.0,"WASTE MANAGEMENT OF WASHINGTON, INC.",5850.0,0.0,5850.0,0.0,0.0,0.0,0.0,0.0,0.0,0.0,5850.0,28160.0,Direct,,,View report (https://accesshub.pdc.wa.gov/node/29851),,,
30249,40389-38147,40389,FE,38146,RNJ Strategies,Employer,38147,WA ST ASSN FOR JUSTICE,18-Jan,2/15/2018,17289.0,WA ST ASSN FOR JUSTICE,9000.0,0.0,9000.0,0.0,0.0,0.0,0.0,0.0,0.0,0.0,9000.0,38147.0,Direct,,,View report (https://accesshub.pdc.wa.gov/node/40389),Labor,Labor,House & Senate
30250,40297-18782,40297,FE,17565,GANO & ASSOC*,Employer,18782,WELLS FARGO & CO,18-Jan,2/15/2018,17296.0,WELLS FARGO & CO,3250.0,-429.23,2820.77,0.0,0.0,0.0,0.0,0.0,0.0,0.0,2820.77,18782.0,Direct,,,View report (https://accesshub.pdc.wa.gov/node/40297),Financial institutions and insurance,Banking,H S Financial Inst
30251,40906-19399,40906,FE,17870,OUTCOMES BY LEVY LLC*,Employer,19399,WESTAF,18-Jan,2/15/2018,17301.0,WESTAF,4000.0,-2000.0,2000.0,0.0,0.0,0.0,0.0,0.0,0.0,0.0,2000.0,19399.0,Direct,,,View report (https://accesshub.pdc.wa.gov/node/40906),Fiscal,Arts,"Operating, Capital, and Transportation budget writers"
30252,39140-19477,39140,FE,17897,POTTS & ASSOC*,Employer,19477,WHITMAN CO COMMISSION,18-Jan,2/15/2018,17309.0,WHITMAN CO COMMISSION,1000.0,0.0,1000.0,0.0,0.0,0.0,0.0,0.0,0.0,0.0,1000.0,19477.0,Direct,,,View report (https://accesshub.pdc.wa.gov/node/39140),Local government,"Agriculture, water, natural resources, GMA, fire, transportation, WATVs, indegent defense","Transportation, local government, state government, Ag & Natural resource, and environment"
30253,40917-38920,40917,FE,38463,Cadena Consulting,Employer,38920,WOODLAND PARK ZOO SOCIETY (JENNIFER ZIEGLER),18-Jan,2/15/2018,17315.0,WOODLAND PARK ZOO SOCIETY,1750.0,0.0,1750.0,0.0,0.0,0.0,0.0,0.0,0.0,0.0,1750.0,38920.0,Subcontract,18108.0,JENNIFER ZIEGLER,View report (https://accesshub.pdc.wa.gov/node/40917),,,
30254,40945-25311,40945,FE,25302,Northwest Solutions,Employer,25311,Public Works  Board,18-Jan,2/15/2018,25309.0,Public Works  Board,4000.0,0.0,4000.0,0.0,0.0,0.0,0.0,0.0,0.0,0.0,4000.0,25311.0,Direct,,,View report (https://accesshub.pdc.wa.gov/node/40945),,,
30255,40878-35158,40878,FE,17342,DAVID C ARBAUGH,Employer,35158,Public Works  Board,18-Jan,2/15/2018,25309.0,Public Works  Board,1000.0,0.0,1000.0,0.0,0.0,0.0,0.0,0.0,0.0,0.0,1000.0,35158.0,Direct,,,View report (https://accesshub.pdc.wa.gov/node/40878),,,
30256,29851-26487,29851,FE,17398,BOSWELL CONSULTING*,Employer,26487,Advantage Capital,17-Jan,2/15/2018,26331.0,Advantage Capital,3000.0,0.0,3000.0,0.0,0.0,0.0,0.0,0.0,0.0,0.0,3000.0,26487.0,Direct,,,View report (https://accesshub.pdc.wa.gov/node/29851),Business and consumer affairs,various,various
30257,40297-26763,40297,FE,17565,GANO & ASSOC*,Employer,26763,Advantage Capital,18-Jan,2/15/2018,26331.0,Advantage Capital,6000.0,-2490.53,3509.47,0.0,0.0,0.0,0.0,0.0,0.0,0.0,3509.47,26763.0,Direct,,,View report (https://accesshub.pdc.wa.gov/node/40297),Fiscal,"Rural Eco Develop, 6532","H Tech Eco Develop, Sen Ag Eco Develp, sen Fi and I, H Comm dev"
30258,40933-27361,40933,FE,17526,Arbutus Consulting LLC,Employer,27361,City of Ferndale,18-Jan,2/15/2018,27359.0,City of Ferndale,1667.0,0.0,1667.0,0.0,0.0,0.0,0.0,0.0,0.0,0.0,1667.0,27361.0,Direct,,,View report (https://accesshub.pdc.wa.gov/node/40933),Local government,Local Government,Policy and Fiscal Committees
30259,29851-27470,29851,FE,17398,BOSWELL CONSULTING*,Employer,27470,Technology Access Foundation,17-Jan,2/15/2018,27462.0,Technology Access Foundation,2000.0,0.0,2000.0,0.0,0.0,0.0,0.0,0.0,0.0,0.0,2000.0,27470.0,Direct,,,View report (https://accesshub.pdc.wa.gov/node/29851),Technology,various,various
30260,40865-36474,40865,FE,25651,Insight Strategic Partners LLC,Employer,36474,New Venture Fund,18-Jan,2/15/2018,27911.0,New Venture Fund,7500.0,0.0,7500.0,0.0,0.0,0.0,0.0,0.0,0.0,0.0,7500.0,36474.0,Direct,,,View report (https://accesshub.pdc.wa.gov/node/40865),State government,Voter Registration,Senate and House Leadership
30261,40597-28185,40597,FE,17885,Thomas A Perrick,Employer,28185,JPMorgan Chase Holdings LLC,18-Jan,2/15/2018,28184.0,JPMorgan Chase Holdings LLC,577.5,0.0,577.5,0.0,0.0,0.0,0.0,0.0,0.0,0.0,577.5,28185.0,Direct,,,View report (https://accesshub.pdc.wa.gov/node/40597),Financial institutions and insurance,HB 1209,"State Senator Mark Schoesler, Senator Steve Hobbs and Senator Jan Angel"
30262,41011-28283,41011,FE,17769,Cyan Strategies,Employer,28283,EVgo Services LLC,18-Jan,2/15/2018,28270.0,EVgo Services LLC,3000.0,0.0,3000.0,0.0,0.0,0.0,0.0,0.0,0.0,0.0,3000.0,28283.0,Direct,,,View report (https://accesshub.pdc.wa.gov/node/41011),Transportation,EVIPP,"Transportation Committee, Exec"
30263,40865-28513,40865,FE,25651,Insight Strategic Partners LLC,Employer,28513,Yoga Alliance,18-Jan,2/15/2018,28496.0,Yoga Alliance,7500.0,-3750.0,3750.0,0.0,0.0,0.0,0.0,0.0,0.0,0.0,3750.0,28513.0,Direct,,,View report (https://accesshub.pdc.wa.gov/node/40865),Education,SB5141,House and Senate Higher Ed
30264,40164-29234,40164,FE,29233,Philip J. Watson,Employer,29234,Firearms Policy Coalition,18-Jan,2/15/2018,29232.0,Firearms Policy Coalition,1107.2,0.0,1107.2,0.0,0.0,0.0,0.0,0.0,0.0,0.0,1107.2,29234.0,Direct,,,View report (https://accesshub.pdc.wa.gov/node/40164),Law and justice,"HB 1122, HB 1387, HB 2293, HB 2422, HB 2666, SB 5444, SB 5463, SB 5992, SB 6006, SB 6049, SB 6146, SB 6298, SB 6415",Legislature.
30265,35284-29353,35284,FE,17654,Trent M House,Employer,29353,"A Place for Mom, Inc.",17-Jun,2/15/2018,29258.0,"A Place for Mom, Inc.",1000.0,0.0,1000.0,0.0,0.0,0.0,0.0,0.0,0.0,0.0,1000.0,29353.0,Direct,,,View report (https://accesshub.pdc.wa.gov/node/35284),Business and consumer affairs,General Business Climate Monitoring,All Legislative Committees
30266,40060-29353,40060,FE,17654,Trent M House,Employer,29353,"A Place for Mom, Inc.",18-Jan,2/15/2018,29258.0,"A Place for Mom, Inc.",1000.0,0.0,1000.0,0.0,0.0,0.0,0.0,0.0,0.0,0.0,1000.0,29353.0,Direct,,,View report (https://accesshub.pdc.wa.gov/node/40060),Business and consumer affairs,General Business Climate Monitoring,All Legislative Committees
30267,29851-29392,29851,FE,17398,BOSWELL CONSULTING*,Employer,29392,Independent Inc,17-Jan,2/15/2018,29390.0,Independent Inc,2500.0,0.0,2500.0,0.0,0.0,0.0,0.0,0.0,0.0,0.0,2500.0,29392.0,Direct,,,View report (https://accesshub.pdc.wa.gov/node/29851),Business and consumer affairs,various,various
30268,40919-38082,40919,FE,27257,Paribello Public Affairs,Employer,38082,Hepatitis Education Project,18-Jan,2/15/2018,29562.0,Hepatitis Education Project,3000.0,0.0,3000.0,0.0,0.0,0.0,0.0,0.0,0.0,0.0,3000.0,38082.0,Direct,,,View report (https://accesshub.pdc.wa.gov/node/40919),Health Care,"HB 2296, HB 2310, SB 5995, SB 6026, SB 6147",House and Senate
30269,40865-39811,40865,FE,25651,Insight Strategic Partners LLC,Employer,39811,Washington State Data Center Competitiveness Coalition,18-Jan,2/15/2018,30622.0,Washington State Data Center Competitiveness Coalition,8000.0,0.0,8000.0,0.0,0.0,0.0,0.0,0.0,0.0,0.0,8000.0,39811.0,Direct,,,View report (https://accesshub.pdc.wa.gov/node/40865),State government,SB6307 HB2673,Economic Development
30270,41017-38244,41017,FE,38243,Rose Feliciano,Employer,38244,Internet Association,18-Jan,2/15/2018,31991.0,Internet Association,10250.0,0.0,10250.0,0.0,0.0,0.0,0.0,0.0,0.0,0.0,10250.0,38244.0,Direct,,,View report (https://accesshub.pdc.wa.gov/node/41017),Fiscal,SHB 1904,"Rep. Joe Fitzgibbon, Rep. Eric Pettigrew, Rep. David Sawyer, Rep. Tim Ormsby, Rep. Norma Smith"
30271,40917-39599,40917,FE,38463,Cadena Consulting,Employer,39599,CHI Franciscan Health,18-Jan,2/15/2018,32196.0,CHI Franciscan Health,3500.0,0.0,3500.0,0.0,0.0,0.0,0.0,0.0,0.0,0.0,3500.0,39599.0,Direct,,,View report (https://accesshub.pdc.wa.gov/node/40917),Health Care,"Health care charity care, mergers & acquisitions, noncompetes",House and senate
30272,40865-32966,40865,FE,25651,Insight Strategic Partners LLC,Employer,32966,Space Exploration Technologies Corp. (SpaceX),18-Jan,2/15/2018,32962.0,Space Exploration Technologies Corp. (SpaceX),7000.0,0.0,7000.0,0.0,0.0,0.0,0.0,0.0,0.0,0.0,7000.0,32966.0,Direct,,,View report (https://accesshub.pdc.wa.gov/node/40865),Transportation,Transportation and Economic Development,"Department of Commerce, Governor's Office"
30273,40865-33041,40865,FE,25651,Insight Strategic Partners LLC,Employer,33041,"National Grid USA Service Company, Inc.",18-Jan,2/15/2018,33016.0,"National Grid USA Service Company, Inc.",3500.0,0.0,3500.0,0.0,0.0,0.0,0.0,0.0,0.0,0.0,3500.0,33041.0,Direct,,,View report (https://accesshub.pdc.wa.gov/node/40865),Fiscal,"Capital Budget, Infrastructure Issues",Capital Budget
30274,40878-36523,40878,FE,17342,DAVID C ARBAUGH,Employer,36523,OCHIN Inc.,18-Jan,2/15/2018,35865.0,OCHIN Inc.,2500.0,0.0,2500.0,0.0,0.0,0.0,0.0,0.0,0.0,0.0,2500.0,36523.0,Direct,,,View report (https://accesshub.pdc.wa.gov/node/40878),Health Care,Health Care Information Technology,Health care information technology.
30275,40919-35886,40919,FE,27257,Paribello Public Affairs,Employer,35886,Win Win Network,18-Jan,2/15/2018,35885.0,Win Win Network,2500.0,0.0,2500.0,0.0,0.0,0.0,0.0,0.0,0.0,0.0,2500.0,35886.0,Direct,,,View report (https://accesshub.pdc.wa.gov/node/40919),Constitutions and elections,"HB 1513 HB 1800, HB 2297, HB 2359, HB 2595, HB 2680, SB 5110, SB 6002, SB 6021, SB 6058, SB 6092, SB 6249, SB 6353",House and Senate
30276,40297-35899,40297,FE,17565,GANO & ASSOC*,Employer,35899,Global Discoveries LTD,18-Jan,2/15/2018,35897.0,Global Discoveries LTD,5000.0,-2500.0,2500.0,0.0,0.0,0.0,0.0,0.0,0.0,0.0,2500.0,35899.0,Direct,,,View report (https://accesshub.pdc.wa.gov/node/40297),Financial institutions and insurance,Unclaimed property,H and S Financial Institutions
30277,40865-36094,40865,FE,25651,Insight Strategic Partners LLC,Employer,36094,"Youth Villages, Inc.",18-Jan,2/15/2018,36043.0,"Youth Villages, Inc.",7000.0,0.0,7000.0,0.0,0.0,0.0,0.0,0.0,0.0,0.0,7000.0,36094.0,Direct,,,View report (https://accesshub.pdc.wa.gov/node/40865),,,
30278,41019-38782,41019,FE,33757,Guillermo Rogel,Employer,38782,WA Student Association,18-Jan,2/15/2018,38781.0,WA Student Association,1440.0,0.0,1440.0,0.0,0.0,0.0,0.0,0.0,0.0,0.0,1440.0,38782.0,Direct,,,View report (https://accesshub.pdc.wa.gov/node/41019),Higher education,HB 1488 (Undoc) HB 2595 (AVR) ESHB 1513 (Pre-Reg 16-17) SB 6002 (VRA) SB 6021 (Same Day Vote) FUTURE LINE SB 6029 (Bill of Rights) SB 6353 (AVR) HB 1433 (S&A) SB 5525 (Vets MH) SB 6514 (mental health HB 2367 (Child Care Taskforce) HB 1169 (SOAR) SB 5074 (,"Senate and House Higher Education Committee, Senate Ways and Means, House Appropriations, Representative Haler, Representative Hansen, Representative Ranker, Senator Liias, Representative Stambaugh"
30279,40954-39120,40954,FE,39117,Lara Zarowsky,Employer,39120,Innocence Project Northwest,18-Jan,2/15/2018,39119.0,Innocence Project Northwest,2434.0,0.0,2434.0,0.0,0.0,0.0,0.0,0.0,0.0,0.0,2434.0,39120.0,Direct,,,View report (https://accesshub.pdc.wa.gov/node/40954),Law and justice,"SB5038, SB6052",Washington State Senate
30280,40962-39120,40962,FE,39117,Lara Zarowsky,Employer,39120,Innocence Project Northwest,18-Feb,2/15/2018,39119.0,Innocence Project Northwest,2434.0,0.0,2434.0,0.0,0.0,0.0,0.0,0.0,0.0,0.0,2434.0,39120.0,Direct,,,View report (https://accesshub.pdc.wa.gov/node/40962),Law and justice,"SB5038, SB6052",Washington State Senate
30281,40933-40843,40933,FE,17526,Arbutus Consulting LLC,Employer,40843,Ostrom Mushroom Farms,18-Jan,2/15/2018,40842.0,Ostrom Mushroom Farms,5000.0,0.0,5000.0,0.0,0.0,0.0,0.0,0.0,0.0,0.0,5000.0,40843.0,Direct,,,View report (https://accesshub.pdc.wa.gov/node/40933),Agriculture,2980,"House Finance, Governor's Office"
30282,37538-19158,37538,FE,17759,CATHLEEN MACCAUL,Employer,19158,AARP WA ST OFFICE,17-Oct,2/16/2018,16121.0,AARP WA ST OFFICE,3000.0,0.0,3000.0,0.0,0.0,25000.0,13037.41,13037.41,0.0,51074.82,54074.82,19158.0,Direct,,,View report (https://accesshub.pdc.wa.gov/node/37538),Health Care,Funding Levels,DSHS
30291,41108-29275,41108,FE,17693,Water Street Public Affairs LLC,Employer,29275,ABBOTT LABORATORIES,18-Jan,2/16/2018,16060.0,ABBOTT LABORATORIES,3333.33,0.0,3333.33,0.0,0.0,0.0,0.0,0.0,0.0,0.0,3333.33,29275.0,Direct,,,View report (https://accesshub.pdc.wa.gov/node/41108),Health Care,"Aging and Disability Task Force, Repairing Electronic Devices",House Technology & Economic Development Committee
30292,41119-19409,41119,FE,17873,PACIFIC NW REGIONAL STRATEGIES LLC*,Employer,19409,ACE METALS CORP,18-Jan,2/16/2018,16064.0,ACE METALS CORP,2000.0,0.0,2000.0,0.0,0.0,0.0,0.0,0.0,0.0,0.0,2000.0,19409.0,Direct,,,View report (https://accesshub.pdc.wa.gov/node/41119),Technology,1824,Environment House/Senate
30293,41174-18649,41174,FE,17520,Emerick & Bloom,Employer,18649,Washington Acupuncture and Eastern Medicine Association,18-Jan,2/16/2018,16067.0,Washington Acupuncture and Eastern Medicine Association,3000.0,0.0,3000.0,0.0,0.0,0.0,0.0,0.0,0.0,0.0,3000.0,18649.0,Direct,,,View report (https://accesshub.pdc.wa.gov/node/41174),Health Care,"East Asian Medicine, Acupunture","DOH, HCA, Legislative heathcare committees, L&I"
30294,41174-18650,41174,FE,17520,Emerick & Bloom,Employer,18650,ARNPS UNITED OF WA ST,18-Jan,2/16/2018,16070.0,ARNPS UNITED OF WA ST,2500.0,0.0,2500.0,0.0,0.0,0.0,0.0,0.0,0.0,0.0,2500.0,18650.0,Direct,,,View report (https://accesshub.pdc.wa.gov/node/41174),Health Care,ARNP nursing issues,"DOH, HCA, Legislative heathcare committees, DSHS"
30295,41114-19341,41114,FE,17840,GRANT NELSON,Employer,19341,AMERICAN CHEMISTRY COUNCIL,18-Jan,2/16/2018,16094.0,AMERICAN CHEMISTRY COUNCIL,8000.0,0.0,8000.0,0.0,0.0,0.0,0.0,0.0,0.0,0.0,8000.0,19341.0,Direct,,,View report (https://accesshub.pdc.wa.gov/node/41114),Environmental Affairs - natural resources - parks,chemical management,"Environment, EET"
30296,41070-19129,41070,FE,17741,JEAN M LEONARD*,Employer,19129,AMERICAN INTERNATIONAL GROUP INC,18-Jan,2/16/2018,16112.0,AMERICAN INTERNATIONAL GROUP INC,3500.0,0.0,3500.0,0.0,0.0,0.0,0.0,0.0,0.0,0.0,3500.0,19129.0,Direct,,,View report (https://accesshub.pdc.wa.gov/node/41070),Financial institutions and insurance,"S FIH, S JUD, H FII, H JUD TR",
30297,41114-19342,41114,FE,17840,GRANT NELSON,Employer,19342,"UNIVERSITY OF PHOENIX, INC.",18-Jan,2/16/2018,16130.0,"UNIVERSITY OF PHOENIX, INC.",4000.0,0.0,4000.0,0.0,0.0,0.0,0.0,0.0,0.0,0.0,4000.0,19342.0,Direct,,,View report (https://accesshub.pdc.wa.gov/node/41114),Higher education,regulations,Higher Ed
30298,41114-19343,41114,FE,17840,GRANT NELSON,Employer,19343,"Ash Grove Cement Co., a CRH Company",18-Jan,2/16/2018,16143.0,"Ash Grove Cement Co., a CRH Company",5000.0,0.0,5000.0,0.0,0.0,0.0,0.0,0.0,0.0,0.0,5000.0,19343.0,Direct,,,View report (https://accesshub.pdc.wa.gov/node/41114),Environmental Affairs - natural resources - parks,carbon,EET
30299,40512-19743,40512,FE,18021,LISA THATCHER,Employer,19743,ASSN OF DENTAL SUPPORT ORGANIZATIONS,18-Jan,2/16/2018,16153.0,ASSN OF DENTAL SUPPORT ORGANIZATIONS,5000.0,0.0,5000.0,164.36,0.0,0.0,0.0,0.0,0.0,164.36,5164.36,19743.0,Direct,,,View report (https://accesshub.pdc.wa.gov/node/40512),Health Care,Support services offered to dentists,Dept of Health
30300,40512-19744,40512,FE,18021,LISA THATCHER,Employer,19744,ASSN OF WA PUBLIC HOSPITAL DISTRICTS,18-Jan,2/16/2018,16170.0,ASSN OF WA PUBLIC HOSPITAL DISTRICTS,4500.0,0.0,4500.0,65.76,0.0,0.0,0.0,0.0,0.0,65.76,4565.76,19744.0,Direct,,,View report (https://accesshub.pdc.wa.gov/node/40512),Fiscal,Public bidding issues,CPARB
30301,41108-26056,41108,FE,17693,Water Street Public Affairs LLC,Employer,26056,BENTON PUD,18-Jan,2/16/2018,16188.0,BENTON PUD,5100.0,0.0,5100.0,0.0,0.0,0.0,0.0,0.0,0.0,0.0,5100.0,26056.0,Direct,,,View report (https://accesshub.pdc.wa.gov/node/41108),Energy and utilities,"Broadband, Energy Independence Act, Carbon","House Technology & Economic Development Committee, Senate Energy Environment & Telecommunications"
30302,40961-18406,40961,FE,17434,CASCADE GOVT AFFAIRS LLC*,Employer,18406,BETHEL SCHOOL DISTRICT,18-Jan,2/16/2018,16190.0,BETHEL SCHOOL DISTRICT,4500.0,0.0,4500.0,0.0,0.0,0.0,0.0,0.0,0.0,0.0,4500.0,18406.0,Direct,,,View report (https://accesshub.pdc.wa.gov/node/40961),Education,School Siting and Education Funding Issues,Education and Fiscal Committees
30303,40781-40136,40781,FE,39860,Shahraim C. Allen,Employer,40136,BROTHERHOOD OF LOCOMOTIVE ENGINEERS & TRAINMEN,18-Jan,2/16/2018,16211.0,BROTHERHOOD OF LOCOMOTIVE ENGINEERS & TRAINMEN,9210.0,0.0,9210.0,534.97,0.0,0.0,0.0,0.0,0.0,534.97,9744.97,40136.0,Direct,,,View report (https://accesshub.pdc.wa.gov/node/40781),Transportation,HB1669,"House of Representatives, WUTC"
30304,40961-18407,40961,FE,17434,CASCADE GOVT AFFAIRS LLC*,Employer,18407,CASCADE NATURAL GAS,18-Jan,2/16/2018,16235.0,CASCADE NATURAL GAS,5000.0,0.0,5000.0,0.0,0.0,0.0,0.0,0.0,0.0,0.0,5000.0,18407.0,Direct,,,View report (https://accesshub.pdc.wa.gov/node/40961),Energy and utilities,Carbon and Utility Issues,Energy and Technology Committees
30305,41115-26311,41115,FE,17528,LUKE ESSER,Employer,26311,CITY OF SPOKANE,18-Jan,2/16/2018,16314.0,CITY OF SPOKANE,2500.0,0.0,2500.0,0.0,0.0,0.0,0.0,0.0,0.0,0.0,2500.0,26311.0,Direct,,,View report (https://accesshub.pdc.wa.gov/node/41115),Environmental Affairs - natural resources - parks,Parks,Sen. Ways & Means; House Capital Budget
30306,40512-19748,40512,FE,18021,LISA THATCHER,Employer,19748,CLARK PUBLIC UTILITIES,18-Jan,2/16/2018,16324.0,CLARK PUBLIC UTILITIES,4500.0,0.0,4500.0,0.0,0.0,0.0,0.0,0.0,0.0,0.0,4500.0,19748.0,Direct,,,View report (https://accesshub.pdc.wa.gov/node/40512),Energy and utilities,Energy and Utility issues,Dept of Commerce; Dept of Ecology
30307,40512-19749,40512,FE,18021,LISA THATCHER,Employer,19749,CLIPPER NAVIGATION,18-Jan,2/16/2018,16328.0,CLIPPER NAVIGATION,2000.0,0.0,2000.0,81.15,0.0,0.0,0.0,0.0,0.0,81.15,2081.15,19749.0,Direct,,,View report (https://accesshub.pdc.wa.gov/node/40512),,,
30308,40961-18408,40961,FE,17434,CASCADE GOVT AFFAIRS LLC*,Employer,18408,CONSUMER TECHNOLOGY ASSN (THROUGH MULTISTATE ASSOCIATES LLC),18-Jan,2/16/2018,16359.0,CONSUMER TECHNOLOGY ASSN (THROUGH MULTISTATE ASSOCIATES LLC),3666.0,0.0,3666.0,0.0,0.0,0.0,0.0,0.0,0.0,0.0,3666.0,18408.0,Direct,,,View report (https://accesshub.pdc.wa.gov/node/40961),Technology,Electronic Products Issues and Drones,Environment and Technology Committees
30309,40512-19750,40512,FE,18021,LISA THATCHER,Employer,19750,DENTA QUEST,18-Jan,2/16/2018,16386.0,DENTA QUEST,5641.79,0.0,5641.79,83.21,0.0,0.0,0.0,0.0,0.0,83.21,5725.0,19750.0,Direct,,,View report (https://accesshub.pdc.wa.gov/node/40512),Fiscal,Dental Medicaid,HCA
30310,40961-18409,40961,FE,17434,CASCADE GOVT AFFAIRS LLC*,Employer,18409,DIAGEO,18-Jan,2/16/2018,16387.0,DIAGEO,5000.0,0.0,5000.0,0.0,0.0,0.0,0.0,0.0,0.0,0.0,5000.0,18409.0,Direct,,,View report (https://accesshub.pdc.wa.gov/node/40961),,,
30311,41083-19036,41083,FE,17675,CHRISTOPHER H JOHNSON,Employer,19036,EAST KING CO CHAMBER OF COMM LEG COALITION,18-Jan,2/16/2018,16398.0,EAST KING CO CHAMBER OF COMM LEG COALITION,370.5,0.0,370.5,0.0,0.0,0.0,0.0,0.0,0.0,0.0,370.5,19036.0,Direct,,,View report (https://accesshub.pdc.wa.gov/node/41083),Transportation,"SB 6043, HB 2716, HB 2862",Senate and House Transportation Committees
30312,41070-19130,41070,FE,17741,JEAN M LEONARD*,Employer,19130,ENTERTAINMENT SOFTWARE ASSN,18-Jan,2/16/2018,16416.0,ENTERTAINMENT SOFTWARE ASSN,5333.33,0.0,5333.33,0.0,0.0,0.0,0.0,0.0,0.0,0.0,5333.33,19130.0,Direct,,,View report (https://accesshub.pdc.wa.gov/node/41070),Technology,"S CFS, S JUD, H JUD, H JJFJ",
30313,41108-25369,41108,FE,17693,Water Street Public Affairs LLC,Employer,25369,FRANKLIN CO PUBLIC UTILITY DIST,18-Jan,2/16/2018,16454.0,FRANKLIN CO PUBLIC UTILITY DIST,3250.0,0.0,3250.0,0.0,0.0,0.0,0.0,0.0,0.0,0.0,3250.0,25369.0,Direct,,,View report (https://accesshub.pdc.wa.gov/node/41108),Energy and utilities,"Broadband, Energy Independence Act, Carbon","House Technology & Economic Development Committee, Senate Energy Environment & Telecommunications"
30314,40961-18411,40961,FE,17434,CASCADE GOVT AFFAIRS LLC*,Employer,18411,FRANKLIN PIERCE SCHOOL DISTRICT,18-Jan,2/16/2018,16455.0,FRANKLIN PIERCE SCHOOL DISTRICT,3250.0,0.0,3250.0,0.0,0.0,0.0,0.0,0.0,0.0,0.0,3250.0,18411.0,Direct,,,View report (https://accesshub.pdc.wa.gov/node/40961),Education,Early Learning Center Funding,Capital Budget Committees
30315,40961-18412,40961,FE,17434,CASCADE GOVT AFFAIRS LLC*,Employer,18412,FRED MEYER (OXLEY & ASSOC),18-Jan,2/16/2018,16459.0,FRED MEYER (OXLEY & ASSOC),3400.0,0.0,3400.0,0.0,0.0,0.0,0.0,0.0,0.0,0.0,3400.0,18412.0,Direct,,,View report (https://accesshub.pdc.wa.gov/node/40961),Business and consumer affairs,Liquor and Initiative Signature Gathering,Commerce and State Government Committees
30316,40512-19751,40512,FE,18021,LISA THATCHER,Employer,19751,GLAXO SMITHKLINE,18-Jan,2/16/2018,16473.0,GLAXO SMITHKLINE,4213.95,0.0,4213.95,2.06,0.0,0.0,0.0,0.0,0.0,2.06,4216.01,19751.0,Direct,,,View report (https://accesshub.pdc.wa.gov/node/40512),Environmental Affairs - natural resources - parks,Healthcare and pharma issues,Dept of Health; HCA
30317,40387-19432,40387,FE,17879,THOMAS M PARKER,Employer,19432,GONZAGA UNIVERSITY,18-Jan,2/16/2018,16474.0,GONZAGA UNIVERSITY,5000.0,0.0,5000.0,0.0,0.0,0.0,0.0,0.0,0.0,0.0,5000.0,19432.0,Direct,,,View report (https://accesshub.pdc.wa.gov/node/40387),Higher education,HIGHER ED,FISCAL HIGHER ED
30318,41071-37265,41071,FE,37264,Matthew Munoz,Employer,37265,GRADUATE & PROF STUDENT SENATE/U OF W,18-Jan,2/16/2018,16477.0,GRADUATE & PROF STUDENT SENATE/U OF W,2025.74,0.0,2025.74,0.0,0.0,0.0,0.0,0.0,0.0,0.0,2025.74,37265.0,Direct,,,View report (https://accesshub.pdc.wa.gov/node/41071),Higher education,"HB 1433/SB 5592, SB 6029, SB 5525/HB 1737, HB 1651, HB 2598, SB 6100, HB 2367, HB 1169, HB 6259","Senate Higher Ed, House Higher Ed, Senate Early Learning, House Early Learning, Sen. Nelson, Rep. Holy, Rep. Wilcox, Rep. Stonier, Sen. Fain, Sen. Liias, Rep. Haler, Sen. Miloscia, Rep. Pollet, Sen. Ranker, Sen. Palumbo, Rep. Reeves, Sen. Short"
30319,41174-18651,41174,FE,17520,Emerick & Bloom,Employer,18651,HOME CARE ASSN OF WA,18-Jan,2/16/2018,16509.0,HOME CARE ASSN OF WA,3200.0,0.0,3200.0,0.0,0.0,0.0,0.0,0.0,0.0,0.0,3200.0,18651.0,Direct,,,View report (https://accesshub.pdc.wa.gov/node/41174),Health Care,"Home Health, Home Care","DOH, HCA, Legislative heathcare committees"
30320,40961-18413,40961,FE,17434,CASCADE GOVT AFFAIRS LLC*,Employer,18413,INTL CODE COUNCIL,18-Jan,2/16/2018,16539.0,INTL CODE COUNCIL,2500.0,0.0,2500.0,0.0,0.0,0.0,0.0,0.0,0.0,0.0,2500.0,18413.0,Direct,,,View report (https://accesshub.pdc.wa.gov/node/40961),State government,Building Code Issues,Labor and State Government Committees
