,id,report_number,origin,filer_id,filer_name,type,funding_source_id,funding_source_name,filing_period,receipt_date,employer_id,employer_name,compensation,sub_lobbyist_compensation,net_compensation,personal_expenses,entertainment,contributions,advertising,political_ads,other,total_expenses,net_total,employment_registration_id,employment_type,contractor_id,contractor_name,url,legislation_subject_matter,issue_bill_number,committee_lobbied
75000,69995-19938,69995,FE,18108,JENNIFER ZIEGLER,Employer,19938,Sanitary Service Co (PATRICK DUNN & ASSOCIATES LTD*),20-Jul,8/14/2020,16872.0,Sanitary Service Co,250.0,0.0,250.0,0.0,0.0,0.0,0.0,0.0,0.0,0.0,250.0,19938.0,Subcontract,17505.0,PATRICK DUNN & ASSOCIATES LTD*,View report (https://accesshub.pdc.wa.gov/node/69995),,,
75001,70011-19837,70011,FE,18059,DAWN P VYVYAN,Employer,19837,SAUK-SUIATTLE INDIAN TRIBE,20-Jul,8/14/2020,16875.0,SAUK-SUIATTLE INDIAN TRIBE,5000.0,0.0,5000.0,0.0,0.0,0.0,0.0,0.0,0.0,0.0,5000.0,19837.0,Direct,,,View report (https://accesshub.pdc.wa.gov/node/70011),State government,Education Health,Children Family Serevices
75002,69995-28263,69995,FE,18108,JENNIFER ZIEGLER,Employer,28263,School Alliance,20-Jul,8/14/2020,16879.0,School Alliance,1500.0,0.0,1500.0,0.0,0.0,0.0,0.0,0.0,0.0,0.0,1500.0,28263.0,Direct,,,View report (https://accesshub.pdc.wa.gov/node/69995),,,
75003,69825-18775,69825,FE,17565,GANO & ASSOC*,Employer,18775,SCIENTIFIC GAMES CORPORATION,20-Jul,8/14/2020,16885.0,SCIENTIFIC GAMES CORPORATION,8500.0,-2750.0,5750.0,0.0,0.0,0.0,0.0,0.0,0.0,0.0,5750.0,18775.0,Direct,,,View report (https://accesshub.pdc.wa.gov/node/69825),Fiscal,Lottery Scratch Tickets,WA Lottery H S Commerce
75004,69825-18776,69825,FE,17565,GANO & ASSOC*,Employer,18776,SHELL OIL CO,20-Jul,8/14/2020,16911.0,SHELL OIL CO,5000.0,-660.36,4339.64,0.0,0.0,0.0,0.0,0.0,0.0,0.0,4339.64,18776.0,Direct,,,View report (https://accesshub.pdc.wa.gov/node/69825),Transportation,Oil Refinery,H S Trans H S Business Fiscal
75007,69825-18777,69825,FE,17565,GANO & ASSOC*,Employer,18777,STE MICHELLE WINE ESTATES LLC,20-Jul,8/14/2020,16948.0,STE MICHELLE WINE ESTATES LLC,4500.0,-594.32,3905.68,0.0,0.0,0.0,0.0,0.0,0.0,0.0,3905.68,18777.0,Direct,,,View report (https://accesshub.pdc.wa.gov/node/69825),Business and consumer affairs,Wine,H S Commerce
75008,70012-19454,70012,FE,17890,LEE PHILLIPS,Employer,19454,SUNRISE SERVICES INC,20-Jul,8/14/2020,16959.0,SUNRISE SERVICES INC,800.0,0.0,800.0,0.0,0.0,0.0,0.0,0.0,0.0,0.0,800.0,19454.0,Direct,,,View report (https://accesshub.pdc.wa.gov/node/70012),Human services,Budget,"Appropriations, Ways & Means"
75009,69624-57163,69624,FE,25651,Insight Strategic Partners LLC,Employer,57163,TALGO INC,20-Jul,8/14/2020,16971.0,TALGO INC,5000.0,0.0,5000.0,0.0,0.0,0.0,0.0,0.0,0.0,0.0,5000.0,57163.0,Direct,,,View report (https://accesshub.pdc.wa.gov/node/69624),Transportation,Transportation,"Department of Transporation, Governor's Office"
75010,69966-18558,69966,FE,17489,WILLIAM F DEWEY,Employer,18558,TAYLOR SHELLFISH CO INC,20-Jul,8/14/2020,16973.0,TAYLOR SHELLFISH CO INC,1175.4,0.0,1175.4,0.0,0.0,0.0,0.0,0.0,0.0,0.0,1175.4,18558.0,Direct,,,View report (https://accesshub.pdc.wa.gov/node/69966),Agriculture,decision package for water quality inspector,Chery Sullivan WSDA
75011,69913-58298,69913,FE,58297,Samantha Kersul,Employer,58298,TECHNOLOGY NETWORK,20-Jul,8/14/2020,16978.0,TECHNOLOGY NETWORK,6510.0,0.0,6510.0,0.0,0.0,0.0,0.0,0.0,0.0,0.0,6510.0,58298.0,Direct,,,View report (https://accesshub.pdc.wa.gov/node/69913),Transportation,"Autonomous Vehicle Issues, Testing, Deployment","AV Work Group, State Legislature"
75012,70007-46896,70007,FE,18102,Bryce Yadon,Employer,46896,TRANSPORTATION CHOICES COALITION,20-Jul,8/14/2020,16990.0,TRANSPORTATION CHOICES COALITION,500.0,0.0,500.0,0.0,0.0,0.0,0.0,0.0,0.0,0.0,500.0,46896.0,Direct,,,View report (https://accesshub.pdc.wa.gov/node/70007),Transportation,Transportation Revenue and Funding,"Rep. Fey, Governor's Office"
75013,69825-18780,69825,FE,17565,GANO & ASSOC*,Employer,18780,Uber Technologies Inc and Affiliates,20-Jul,8/14/2020,17001.0,Uber Technologies Inc and Affiliates,6750.0,-500.0,6250.0,0.0,0.0,0.0,0.0,0.0,0.0,0.0,6250.0,18780.0,Direct,,,View report (https://accesshub.pdc.wa.gov/node/69825),Technology,Rideshare,H S Transport H S Commerce
75014,69818-18895,69818,FE,17597,PIERCE CONSULTING SVCS LLC*,Employer,18895,VULCAN INC,20-Jul,8/14/2020,17039.0,VULCAN INC,4000.0,-334.62,3665.38,0.0,0.0,0.0,0.0,0.0,0.0,0.0,3665.38,18895.0,Direct,,,View report (https://accesshub.pdc.wa.gov/node/69818),Business and consumer affairs,various,various
75015,69825-18781,69825,FE,17565,GANO & ASSOC*,Employer,18781,WALMART INC.,20-Jul,8/14/2020,17042.0,WALMART INC.,8000.0,-1422.28,6577.72,0.0,0.0,0.0,0.0,0.0,0.0,0.0,6577.72,18781.0,Direct,,,View report (https://accesshub.pdc.wa.gov/node/69825),Business and consumer affairs,Retail issues,"House and Sen Commerce, Business, Technology, Ag, Ways Means"
75016,69624-60371,69624,FE,25651,Insight Strategic Partners LLC,Employer,60371,WA ACADEMY OF PHYSICIAN ASSISTANTS,20-Jul,8/14/2020,17058.0,WA ACADEMY OF PHYSICIAN ASSISTANTS,4000.0,0.0,4000.0,0.0,0.0,0.0,0.0,0.0,0.0,0.0,4000.0,60371.0,Direct,,,View report (https://accesshub.pdc.wa.gov/node/69624),Health Care,Healthcare,"Health Care committees, Washington Medical Commission"
75017,69976-52299,69976,FE,52298,Mary Hull-Drury,Employer,52299,WA ASSN OF REALTORS,20-Jun,8/14/2020,17059.0,WA ASSN OF REALTORS,3500.0,0.0,3500.0,0.0,0.0,0.0,0.0,0.0,0.0,0.0,3500.0,52299.0,Direct,,,View report (https://accesshub.pdc.wa.gov/node/69976),Business and consumer affairs,"license law, real estate business issues","DOL Real Estate Commission, Senators, Legislators"
75018,69982-52299,69982,FE,52298,Mary Hull-Drury,Employer,52299,WA ASSN OF REALTORS,20-Jul,8/14/2020,17059.0,WA ASSN OF REALTORS,3500.0,0.0,3500.0,0.0,0.0,0.0,0.0,0.0,0.0,0.0,3500.0,52299.0,Direct,,,View report (https://accesshub.pdc.wa.gov/node/69982),Business and consumer affairs,"license law, real estate business issues","DOL Real Estate Commission, Senators, Legislators"
75019,69984-52299,69984,FE,52298,Mary Hull-Drury,Employer,52299,WA ASSN OF REALTORS,20-Aug,8/14/2020,17059.0,WA ASSN OF REALTORS,3500.0,0.0,3500.0,0.0,0.0,0.0,0.0,0.0,0.0,0.0,3500.0,52299.0,Direct,,,View report (https://accesshub.pdc.wa.gov/node/69984),Business and consumer affairs,"license law, real estate business issues","DOL Real Estate Commission, Senators, Legislators"
75020,69986-52299,69986,FE,52298,Mary Hull-Drury,Employer,52299,WA ASSN OF REALTORS,20-Sep,8/14/2020,17059.0,WA ASSN OF REALTORS,3500.0,0.0,3500.0,0.0,0.0,0.0,0.0,0.0,0.0,0.0,3500.0,52299.0,Direct,,,View report (https://accesshub.pdc.wa.gov/node/69986),Business and consumer affairs,"license law, real estate business issues","DOL Real Estate Commission, Senators, Legislators"
75021,69987-52299,69987,FE,52298,Mary Hull-Drury,Employer,52299,WA ASSN OF REALTORS,20-Oct,8/14/2020,17059.0,WA ASSN OF REALTORS,3500.0,0.0,3500.0,0.0,0.0,0.0,0.0,0.0,0.0,0.0,3500.0,52299.0,Direct,,,View report (https://accesshub.pdc.wa.gov/node/69987),Business and consumer affairs,"license law, real estate business issues","DOL Real Estate Commission, Senators, Legislators"
75022,69988-52299,69988,FE,52298,Mary Hull-Drury,Employer,52299,WA ASSN OF REALTORS,20-Nov,8/14/2020,17059.0,WA ASSN OF REALTORS,3500.0,0.0,3500.0,0.0,0.0,0.0,0.0,0.0,0.0,0.0,3500.0,52299.0,Direct,,,View report (https://accesshub.pdc.wa.gov/node/69988),Business and consumer affairs,"license law, real estate business issues","DOL Real Estate Commission, Senators, Legislators"
75023,69989-52299,69989,FE,52298,Mary Hull-Drury,Employer,52299,WA ASSN OF REALTORS,20-Dec,8/14/2020,17059.0,WA ASSN OF REALTORS,3500.0,0.0,3500.0,0.0,0.0,0.0,0.0,0.0,0.0,0.0,3500.0,52299.0,Direct,,,View report (https://accesshub.pdc.wa.gov/node/69989),Business and consumer affairs,"license law, real estate business issues","DOL Real Estate Commission, Senators, Legislators"
75024,69818-29242,69818,FE,17597,PIERCE CONSULTING SVCS LLC*,Employer,29242,WA CHARTERS ACTION,20-Jul,8/14/2020,17071.0,WA CHARTERS ACTION,6750.0,-2955.0,3795.0,0.0,0.0,0.0,0.0,0.0,0.0,0.0,3795.0,29242.0,Direct,,,View report (https://accesshub.pdc.wa.gov/node/69818),Education,various,various
75025,69818-18897,69818,FE,17597,PIERCE CONSULTING SVCS LLC*,Employer,18897,Delta Dental of WA,20-Jul,8/14/2020,17096.0,Delta Dental of WA,3000.0,-250.96,2749.04,0.0,0.0,0.0,0.0,0.0,0.0,0.0,2749.04,18897.0,Direct,,,View report (https://accesshub.pdc.wa.gov/node/69818),Health Care,various,various
75026,70024-18249,70024,FE,17391,SIMONE BOE,Employer,18249,WA EDUCATION ASSN,20-Jul,8/14/2020,17098.0,WA EDUCATION ASSN,3301.12,0.0,3301.12,0.0,0.0,538.96,0.0,0.0,0.0,538.96,3840.08,18249.0,Direct,,,View report (https://accesshub.pdc.wa.gov/node/70024),Education,"Equity, Graduation Pathways, Higher Education, Ethnic Studies, African American Studies, WA Kids, Early Childhood","Sen. Randall, Wellman, Rep. Stonier, Santos, Entenman, Johnson, Senate D Caucus Staff, State Board of Ed, WSAC, EOGOAC, SBCTC"
75027,69995-46939,69995,FE,18108,JENNIFER ZIEGLER,Employer,46939,WA ECONOMIC DEVELOPMENT ASSN,20-Jul,8/14/2020,17102.0,WA ECONOMIC DEVELOPMENT ASSN,3000.0,0.0,3000.0,0.0,0.0,0.0,0.0,0.0,0.0,0.0,3000.0,46939.0,Direct,,,View report (https://accesshub.pdc.wa.gov/node/69995),,,
75028,69818-18899,69818,FE,17597,PIERCE CONSULTING SVCS LLC*,Employer,18899,WA FOREST PROTECTION ASSN,20-Jul,8/14/2020,17120.0,WA FOREST PROTECTION ASSN,2000.0,-167.31,1832.69,0.0,0.0,0.0,0.0,0.0,0.0,0.0,1832.69,18899.0,Direct,,,View report (https://accesshub.pdc.wa.gov/node/69818),Environmental Affairs - natural resources - parks,various,various
75029,69958-24909,69958,FE,24907,Jason Callahan,Employer,24909,WA FOREST PROTECTION ASSN,20-Jul,8/14/2020,17120.0,WA FOREST PROTECTION ASSN,1100.0,0.0,1100.0,0.0,0.0,0.0,0.0,0.0,0.0,0.0,1100.0,24909.0,Direct,,,View report (https://accesshub.pdc.wa.gov/node/69958),Environmental Affairs - natural resources - parks,Elections,Various
75030,69957-49348,69957,FE,49142,Darin Cramer,Employer,49348,WA FOREST PROTECTION ASSN,20-Jul,8/14/2020,17120.0,WA FOREST PROTECTION ASSN,1330.0,0.0,1330.0,0.0,0.0,0.0,0.0,0.0,0.0,0.0,1330.0,49348.0,Direct,,,View report (https://accesshub.pdc.wa.gov/node/69957),Environmental Affairs - natural resources - parks,Forest Practices,Various
75034,69964-61489,69964,FE,52232,Carolyn Brotherton,Employer,61489,AFT Washington,20-Jul,8/14/2020,17122.0,AFT Washington,334.24,0.0,334.24,0.0,0.0,0.0,0.0,0.0,0.0,0.0,334.24,61489.0,Direct,,,View report (https://accesshub.pdc.wa.gov/node/69964),Higher education,"COVID, revenue, union concerns","Rep. Chopp, Sen.Lovelett, Sen. Wilson, SEBB, Rep.Ortiz-Self, Sen.Saldana,Rep. Springrt, Rep.Mosbrucker, Sen.King, Sen.Liias, Rep.Goodman"
75035,69928-19086,69928,FE,17709,DAVE KNUTSON,Employer,19086,WA OSTEOPATHIC MEDICAL ASSN,20-Jul,8/14/2020,17158.0,WA OSTEOPATHIC MEDICAL ASSN,2000.0,0.0,2000.0,0.0,0.0,0.0,0.0,0.0,0.0,0.0,2000.0,19086.0,Direct,,,View report (https://accesshub.pdc.wa.gov/node/69928),,,
75036,69818-18901,69818,FE,17597,PIERCE CONSULTING SVCS LLC*,Employer,18901,WA ROUNDTABLE,20-Jul,8/14/2020,17178.0,WA ROUNDTABLE,2175.0,-181.95,1993.05,0.0,0.0,0.0,0.0,0.0,0.0,0.0,1993.05,18901.0,Direct,,,View report (https://accesshub.pdc.wa.gov/node/69818),Business and consumer affairs,various,various
75037,69954-19326,69954,FE,17827,STEPHEN F MULLIN,Employer,19326,WA ROUNDTABLE,20-Jul,8/14/2020,17178.0,WA ROUNDTABLE,1287.5,0.0,1287.5,0.0,0.0,0.0,0.0,0.0,0.0,0.0,1287.5,19326.0,Direct,,,View report (https://accesshub.pdc.wa.gov/node/69954),Education,Various,Various
75038,69950-19716,69950,FE,18000,NEIL STREGE,Employer,19716,WA ROUNDTABLE,20-Jul,8/14/2020,17178.0,WA ROUNDTABLE,2739.77,0.0,2739.77,0.0,0.0,0.0,0.0,0.0,0.0,0.0,2739.77,19716.0,Direct,,,View report (https://accesshub.pdc.wa.gov/node/69950),Education,Various,Various
75039,69995-47807,69995,FE,18108,JENNIFER ZIEGLER,Employer,47807,WA ROUNDTABLE,20-Jul,8/14/2020,17178.0,WA ROUNDTABLE,1500.0,0.0,1500.0,0.0,0.0,0.0,0.0,0.0,0.0,0.0,1500.0,47807.0,Direct,,,View report (https://accesshub.pdc.wa.gov/node/69995),Transportation,Transportation Funding,Transportation Committees
75040,69938-19398,69938,FE,17870,OUTCOMES BY LEVY LLC*,Employer,19398,WA RECREATION & PARKS ASSN,20-Jul,8/14/2020,17183.0,WA RECREATION & PARKS ASSN,1500.0,0.0,1500.0,0.0,0.0,0.0,0.0,0.0,0.0,0.0,1500.0,19398.0,Direct,,,View report (https://accesshub.pdc.wa.gov/node/69938),Environmental Affairs - natural resources - parks,Local Parks Funding Options,7/13 -- City of Monroe and WRPA (Doug Levy) meeting with State Rep. Carolyn Eslick (R-39th)
75041,69624-25653,69624,FE,25651,Insight Strategic Partners LLC,Employer,25653,WA TECHNOLOGY INDUSTRY ASSN,20-Jul,8/14/2020,17203.0,WA TECHNOLOGY INDUSTRY ASSN,4000.0,-4000.0,0.0,0.0,0.0,0.0,0.0,0.0,0.0,0.0,0.0,25653.0,Direct,,,View report (https://accesshub.pdc.wa.gov/node/69624),Technology,Technology,Technology
75042,69818-18902,69818,FE,17597,PIERCE CONSULTING SVCS LLC*,Employer,18902,WA WHOLESALE DRUGGIST ASSN,20-Jul,8/14/2020,17208.0,WA WHOLESALE DRUGGIST ASSN,2750.0,-230.05,2519.95,0.0,0.0,0.0,0.0,0.0,0.0,0.0,2519.95,18902.0,Direct,,,View report (https://accesshub.pdc.wa.gov/node/69818),Health Care,various,various
75043,69991-48429,69991,FE,44616,DeVere Public Affairs and Consulting,Employer,48429,WA ST COUNCIL OF POLICE & SHERIFFS,20-Jul,8/14/2020,17236.0,WA ST COUNCIL OF POLICE & SHERIFFS,2917.0,0.0,2917.0,0.0,0.0,0.0,0.0,0.0,0.0,0.0,2917.0,48429.0,Direct,,,View report (https://accesshub.pdc.wa.gov/node/69991),Law and justice,"Retirement, Law and Justice","Public Safety, Law and Justice, Health"
75044,69931-18340,69931,FE,17425,ANDREW J BUSZ,Employer,18340,WA ST HOSPITAL ASSN,20-Jul,8/14/2020,17252.0,WA ST HOSPITAL ASSN,225.0,0.0,225.0,0.0,0.0,0.0,0.0,0.0,0.0,0.0,225.0,18340.0,Direct,,,View report (https://accesshub.pdc.wa.gov/node/69931),Health Care,Safety net Assessment,HCA Staff
75045,69995-63123,69995,FE,18108,JENNIFER ZIEGLER,Employer,63123,BEHIND THE BADGE FOUNDATION (PATRICK DUNN & ASSOCIATES LTD*),20-Jul,8/14/2020,17259.0,BEHIND THE BADGE FOUNDATION,2000.0,0.0,2000.0,0.0,0.0,0.0,0.0,0.0,0.0,0.0,2000.0,63123.0,Subcontract,17505.0,PATRICK DUNN & ASSOCIATES LTD*,View report (https://accesshub.pdc.wa.gov/node/69995),,,
75048,69991-57804,69991,FE,44616,DeVere Public Affairs and Consulting,Employer,57804,WA ST PATROL LIEUTENANTS AND CAPTAINS ASSN,20-Jul,8/14/2020,17274.0,WA ST PATROL LIEUTENANTS AND CAPTAINS ASSN,2000.0,0.0,2000.0,0.0,0.0,0.0,0.0,0.0,0.0,0.0,2000.0,57804.0,Direct,,,View report (https://accesshub.pdc.wa.gov/node/69991),Transportation,Retirement,"Transportation Committee, WSDOT, WSP"
75051,69825-18782,69825,FE,17565,GANO & ASSOC*,Employer,18782,WELLS FARGO & CO,20-Jul,8/14/2020,17296.0,WELLS FARGO & CO,3250.0,-429.23,2820.77,0.0,0.0,0.0,0.0,0.0,0.0,0.0,2820.77,18782.0,Direct,,,View report (https://accesshub.pdc.wa.gov/node/69825),Financial institutions and insurance,Banking,H S Financial Inst
75053,70017-49366,70017,FE,17828,"Debora Munguia, Capitol Consulting",Employer,49366,WOODLAND PARK ZOO SOCIETY,20-Jul,8/14/2020,17315.0,WOODLAND PARK ZOO SOCIETY,3750.0,0.0,3750.0,0.0,0.0,0.0,0.0,0.0,0.0,0.0,3750.0,49366.0,Direct,,,View report (https://accesshub.pdc.wa.gov/node/70017),Environmental Affairs - natural resources - parks,Funding,"legislators, state agency staff"
75054,70011-19838,70011,FE,18059,DAWN P VYVYAN,Employer,19838,CONFEDERATED TRIBES & BANDS OF THE YAKAMA NATION,20-Jul,8/14/2020,17319.0,CONFEDERATED TRIBES & BANDS OF THE YAKAMA NATION,2500.0,0.0,2500.0,0.0,0.0,0.0,0.0,0.0,0.0,0.0,2500.0,19838.0,Direct,,,View report (https://accesshub.pdc.wa.gov/node/70011),Environmental Affairs - natural resources - parks,WAter land use,Ecology
75055,70017-23618,70017,FE,17828,"Debora Munguia, Capitol Consulting",Employer,23618,BIG BROTHERS BIG SISTERS,20-Jul,8/14/2020,23606.0,BIG BROTHERS BIG SISTERS,2083.0,0.0,2083.0,0.0,0.0,0.0,0.0,0.0,0.0,0.0,2083.0,23618.0,Direct,,,View report (https://accesshub.pdc.wa.gov/node/70017),Human services,funding,legislators
75056,70017-25044,70017,FE,17828,"Debora Munguia, Capitol Consulting",Employer,25044,Pacific Education Institute,20-Jul,8/14/2020,25039.0,Pacific Education Institute,2100.0,0.0,2100.0,0.0,0.0,0.0,0.0,0.0,0.0,0.0,2100.0,25044.0,Direct,,,View report (https://accesshub.pdc.wa.gov/node/70017),,,
75057,69825-26763,69825,FE,17565,GANO & ASSOC*,Employer,26763,Advantage Capital,20-Jul,8/14/2020,26331.0,Advantage Capital,2000.0,-200.0,1800.0,0.0,0.0,0.0,0.0,0.0,0.0,0.0,1800.0,26763.0,Direct,,,View report (https://accesshub.pdc.wa.gov/node/69825),Business and consumer affairs,Prisoner release,"Rural develop, Corrections program"
75058,69995-48266,69995,FE,18108,JENNIFER ZIEGLER,Employer,48266,City of Medina (SOUND VIEW STRATEGIES LLC*),20-Jul,8/14/2020,26873.0,City of Medina,2000.0,0.0,2000.0,0.0,0.0,0.0,0.0,0.0,0.0,0.0,2000.0,48266.0,Subcontract,17977.0,SOUND VIEW STRATEGIES LLC*,View report (https://accesshub.pdc.wa.gov/node/69995),,,
75059,69624-58644,69624,FE,25651,Insight Strategic Partners LLC,Employer,58644,Acadia Healthcare,20-Jul,8/14/2020,27349.0,Acadia Healthcare,6000.0,0.0,6000.0,0.0,0.0,0.0,0.0,0.0,0.0,0.0,6000.0,58644.0,Direct,,,View report (https://accesshub.pdc.wa.gov/node/69624),Health Care,Behavioral Health,"Health care committees, Governor's office, Dept. of Health, HCA"
75060,69624-43858,69624,FE,25651,Insight Strategic Partners LLC,Employer,43858,Seattle Theatre Group,20-Jul,8/14/2020,27353.0,Seattle Theatre Group,1000.0,0.0,1000.0,0.0,0.0,0.0,0.0,0.0,0.0,0.0,1000.0,43858.0,Direct,,,View report (https://accesshub.pdc.wa.gov/node/69624),Technology,Internet ticket sales legislation,"- Environment, Energy & Technology and Innovation, Technology & Economic Development"
75061,70001-27361,70001,FE,17526,Arbutus Consulting LLC,Employer,27361,City of Ferndale,20-Jul,8/14/2020,27359.0,City of Ferndale,1900.0,0.0,1900.0,0.0,0.0,0.0,0.0,0.0,0.0,0.0,1900.0,27361.0,Direct,,,View report (https://accesshub.pdc.wa.gov/node/70001),Local government,Local Government,House and Senate Local Government Committees
75062,70004-27593,70004,FE,27592,Hemstad Consulting,Employer,27593,City of Des Moines,20-Jul,8/14/2020,27571.0,City of Des Moines,4000.0,0.0,4000.0,0.0,0.0,0.0,0.0,0.0,0.0,0.0,4000.0,27593.0,Direct,,,View report (https://accesshub.pdc.wa.gov/node/70004),Fiscal,Appropriation for Redondo fishing pier,fiscal committees
75064,70017-49367,70017,FE,17828,"Debora Munguia, Capitol Consulting",Employer,49367,Thurston County,20-Jul,8/14/2020,29205.0,Thurston County,3000.0,0.0,3000.0,0.0,0.0,0.0,0.0,0.0,0.0,0.0,3000.0,49367.0,Direct,,,View report (https://accesshub.pdc.wa.gov/node/70017),Local government,Funding,legislators
75065,69624-53511,69624,FE,25651,Insight Strategic Partners LLC,Employer,53511,Renewable Energy Group,20-Jul,8/14/2020,30764.0,Renewable Energy Group,6000.0,0.0,6000.0,0.0,0.0,0.0,0.0,0.0,0.0,0.0,6000.0,53511.0,Direct,,,View report (https://accesshub.pdc.wa.gov/node/69624),Energy and utilities,Ecology,"Energy and Environment, Ecology"
75066,69818-30933,69818,FE,17597,PIERCE CONSULTING SVCS LLC*,Employer,30933,Washington State Opportunity Scholarship,20-Jul,8/14/2020,30931.0,Washington State Opportunity Scholarship,2000.0,-167.31,1832.69,0.0,0.0,0.0,0.0,0.0,0.0,0.0,1832.69,30933.0,Direct,,,View report (https://accesshub.pdc.wa.gov/node/69818),Higher education,various,various
75067,69972-59645,69972,FE,45759,"The Warren Group, LLC",Employer,59645,"National Grid USA Service Company, Inc.",20-Jul,8/14/2020,33016.0,"National Grid USA Service Company, Inc.",6000.0,0.0,6000.0,0.0,0.0,0.0,0.0,0.0,0.0,0.0,6000.0,59645.0,Direct,,,View report (https://accesshub.pdc.wa.gov/node/69972),Energy and utilities,Energy Storage,Commerce
75068,69624-36094,69624,FE,25651,Insight Strategic Partners LLC,Employer,36094,"Youth Villages, Inc.",20-Jul,8/14/2020,36043.0,"Youth Villages, Inc.",4000.0,0.0,4000.0,0.0,0.0,0.0,0.0,0.0,0.0,0.0,4000.0,36094.0,Direct,,,View report (https://accesshub.pdc.wa.gov/node/69624),Human services,Human Services,"appropriations, ways and means, DCYF, Office of Homeless Youth"
75069,70017-60218,70017,FE,17828,"Debora Munguia, Capitol Consulting",Employer,60218,City of Olympia,20-Jul,8/14/2020,38336.0,City of Olympia,3000.0,0.0,3000.0,0.0,0.0,0.0,0.0,0.0,0.0,0.0,3000.0,60218.0,Direct,,,View report (https://accesshub.pdc.wa.gov/node/70017),,,
75070,69624-51447,69624,FE,25651,Insight Strategic Partners LLC,Employer,51447,FareStart,20-Jul,8/14/2020,39820.0,FareStart,2500.0,0.0,2500.0,0.0,0.0,0.0,0.0,0.0,0.0,0.0,2500.0,51447.0,Direct,,,View report (https://accesshub.pdc.wa.gov/node/69624),Human services,Operating funding and human services,Budget and Human Services Committees
75071,69972-46940,69972,FE,45759,"The Warren Group, LLC",Employer,46940,Klickitat County PUD,20-Jul,8/14/2020,46053.0,Klickitat County PUD,4200.0,0.0,4200.0,0.0,0.0,0.0,0.0,0.0,0.0,0.0,4200.0,46940.0,Direct,,,View report (https://accesshub.pdc.wa.gov/node/69972),,,
75072,69972-48354,69972,FE,45759,"The Warren Group, LLC",Employer,48354,"Silfab Solar WA, Inc",20-Jul,8/14/2020,48336.0,"Silfab Solar WA, Inc",3200.0,0.0,3200.0,0.0,0.0,0.0,0.0,0.0,0.0,0.0,3200.0,48354.0,Direct,,,View report (https://accesshub.pdc.wa.gov/node/69972),Energy and utilities,Trade,Governor's Office
75073,69995-53836,69995,FE,18108,JENNIFER ZIEGLER,Employer,53836,"Toyota Motor North America, Inc.",20-Jul,8/14/2020,49816.0,"Toyota Motor North America, Inc.",5000.0,0.0,5000.0,0.0,0.0,0.0,0.0,0.0,0.0,0.0,5000.0,53836.0,Direct,,,View report (https://accesshub.pdc.wa.gov/node/69995),,,
75074,69972-50687,69972,FE,45759,"The Warren Group, LLC",Employer,50687,PUD No. 1 of Douglas County,20-Jul,8/14/2020,50686.0,PUD No. 1 of Douglas County,4000.0,0.0,4000.0,0.0,0.0,0.0,0.0,0.0,0.0,0.0,4000.0,50687.0,Direct,,,View report (https://accesshub.pdc.wa.gov/node/69972),Energy and utilities,CETA Rulemaking,Commerce Energy
75075,69825-51058,69825,FE,17565,GANO & ASSOC*,Employer,51058,TEKNI-PLEX,20-Jul,8/14/2020,51057.0,TEKNI-PLEX,4333.33,-2166.67,2166.66,0.0,0.0,0.0,0.0,0.0,0.0,0.0,2166.66,51058.0,Direct,,,View report (https://accesshub.pdc.wa.gov/node/69825),Business and consumer affairs,Egg cartons/clamshells,"H and S Environment , S Ways and Means, H Approp."
75076,69624-51838,69624,FE,25651,Insight Strategic Partners LLC,Employer,51838,Everytown for Gun Safety Action Fund,20-Jul,8/14/2020,51477.0,Everytown for Gun Safety Action Fund,10000.0,0.0,10000.0,0.0,0.0,0.0,0.0,0.0,0.0,0.0,10000.0,51838.0,Direct,,,View report (https://accesshub.pdc.wa.gov/node/69624),State government,Gun Responsibility,"Governor's office, law and justice, public safety"
75077,69972-52114,69972,FE,45759,"The Warren Group, LLC",Employer,52114,Renewable Hydrogen Alliance,20-Jul,8/14/2020,52076.0,Renewable Hydrogen Alliance,4500.0,0.0,4500.0,0.0,0.0,0.0,0.0,0.0,0.0,0.0,4500.0,52114.0,Direct,,,View report (https://accesshub.pdc.wa.gov/node/69972),State government,"Energy Storage, Hydrogen","Commerce, Ecology"
75078,69991-53288,69991,FE,44616,DeVere Public Affairs and Consulting,Employer,53288,Ice Floe LLC,20-Jul,8/14/2020,53287.0,Ice Floe LLC,3000.0,0.0,3000.0,0.0,0.0,0.0,0.0,0.0,0.0,0.0,3000.0,53288.0,Direct,,,View report (https://accesshub.pdc.wa.gov/node/69991),Transportation,"Ferry Construction Issues, Budget","Transportation and Labor Committees, Washington State Ferries"
75079,69624-54810,69624,FE,25651,Insight Strategic Partners LLC,Employer,54810,Blackstone Real Estate Services LLC,20-Jul,8/14/2020,54805.0,Blackstone Real Estate Services LLC,10000.0,0.0,10000.0,0.0,0.0,0.0,0.0,0.0,0.0,0.0,10000.0,54810.0,Direct,,,View report (https://accesshub.pdc.wa.gov/node/69624),Business and consumer affairs,Taxation and housing,"appropriations, ways and means"
75080,70004-59583,70004,FE,27592,Hemstad Consulting,Employer,59583,King County Fire Protection District 39 DBA South King Fire & Rescue,20-Jul,8/14/2020,59576.0,King County Fire Protection District 39 DBA South King Fire & Rescue,4000.0,0.0,4000.0,0.0,0.0,0.0,0.0,0.0,0.0,0.0,4000.0,59583.0,Direct,,,View report (https://accesshub.pdc.wa.gov/node/70004),Local government,Bills of interest to fire districts,"Local Government Committee, fiscal committees"
75081,69624-59698,69624,FE,25651,Insight Strategic Partners LLC,Employer,59698,Lazarus Naturals,20-Jul,8/14/2020,59688.0,Lazarus Naturals,6000.0,0.0,6000.0,0.0,0.0,0.0,0.0,0.0,0.0,0.0,6000.0,59698.0,Direct,,,View report (https://accesshub.pdc.wa.gov/node/69624),Agriculture,Hemp & CBD,Agriculture and Natural Resources
75082,69995-60158,69995,FE,18108,JENNIFER ZIEGLER,Employer,60158,Washington State Charter School Commission,20-Jul,8/14/2020,60009.0,Washington State Charter School Commission,5000.0,0.0,5000.0,0.0,0.0,0.0,0.0,0.0,0.0,0.0,5000.0,60158.0,Direct,,,View report (https://accesshub.pdc.wa.gov/node/69995),,,
75083,69991-60993,69991,FE,44616,DeVere Public Affairs and Consulting,Employer,60993,Accenture LLP (GALLATIN PUBLIC AFFAIRS*),20-Jul,8/14/2020,60622.0,Accenture LLP,3900.0,0.0,3900.0,0.0,0.0,0.0,0.0,0.0,0.0,0.0,3900.0,60993.0,Subcontract,17564.0,GALLATIN PUBLIC AFFAIRS*,View report (https://accesshub.pdc.wa.gov/node/69991),,,
75084,69937-62001,69937,FE,59659,Orlando Cano Consulting LLC,Employer,62001,Group Health Foundation,20-Jul,8/14/2020,61438.0,Group Health Foundation,3055.0,0.0,3055.0,0.0,0.0,0.0,0.0,0.0,0.0,0.0,3055.0,62001.0,Direct,,,View report (https://accesshub.pdc.wa.gov/node/69937),,,
75085,69624-62258,69624,FE,25651,Insight Strategic Partners LLC,Employer,62258,National Football League c/o MultiState Associates LLC,20-Jul,8/14/2020,62202.0,National Football League c/o MultiState Associates LLC,7500.0,0.0,7500.0,0.0,0.0,0.0,0.0,0.0,0.0,0.0,7500.0,62258.0,Direct,,,View report (https://accesshub.pdc.wa.gov/node/69624),Business and consumer affairs,Sports Gambling,"Gambling Commission, Labor and Commerce, Commerce and Gaming"
75086,69624-62990,69624,FE,25651,Insight Strategic Partners LLC,Employer,62990,Zillow Group,20-Jul,8/14/2020,62547.0,Zillow Group,4000.0,0.0,4000.0,0.0,0.0,0.0,0.0,0.0,0.0,0.0,4000.0,62990.0,Direct,,,View report (https://accesshub.pdc.wa.gov/node/69624),Technology,Housing & Technology,Technology and housing committees
75089,69997-63187,69997,FE,63186,Amanda Gualderama,Employer,63187,Sentry Insurance a Mutual Company,20-Jul,8/14/2020,63184.0,Sentry Insurance a Mutual Company,3364.53,0.0,3364.53,0.0,0.0,0.0,0.0,0.0,0.0,0.0,3364.53,63187.0,Direct,,,View report (https://accesshub.pdc.wa.gov/node/69997),Financial institutions and insurance,Regulatory matters,Washington State Office of the Insurance Commissioner
75090,69972-63521,69972,FE,45759,"The Warren Group, LLC",Employer,63521,Washington Clean Energy Company LLC,20-Jul,8/14/2020,63520.0,Washington Clean Energy Company LLC,7500.0,0.0,7500.0,0.0,0.0,0.0,0.0,0.0,0.0,0.0,7500.0,63521.0,Direct,,,View report (https://accesshub.pdc.wa.gov/node/69972),,,
75091,70046-18490,70046,FE,17465,Coyne Jesernig LLC,Employer,18490,ALASKA AIRLINES,20-Jul,8/15/2020,16077.0,ALASKA AIRLINES,3000.0,0.0,3000.0,0.0,0.0,0.0,0.0,0.0,0.0,0.0,3000.0,18490.0,Direct,,,View report (https://accesshub.pdc.wa.gov/node/70046),Transportation,Real ID,H & S Transportation
75092,70045-19413,70045,FE,17875,PAM CRONE LEGISLATIVE CONSULTING SVCS*,Employer,19413,AMERICAN CONGRESS OF OBSTETRICIANS AND GYNECOLOGISTS,20-Jul,8/15/2020,16099.0,AMERICAN CONGRESS OF OBSTETRICIANS AND GYNECOLOGISTS,1500.0,0.0,1500.0,0.0,0.0,0.0,0.0,0.0,0.0,0.0,1500.0,19413.0,Direct,,,View report (https://accesshub.pdc.wa.gov/node/70045),Health Care,healthcare,HCA House and Senate health care
75093,68224-56563,68224,FE,17460,COMMUNICO*,Employer,56563,Bayer U.S. LLC,20-May,8/15/2020,16185.0,Bayer U.S. LLC,3333.33,0.0,3333.33,0.0,0.0,0.0,0.0,0.0,0.0,0.0,3333.33,56563.0,Direct,,,View report (https://accesshub.pdc.wa.gov/node/68224),Agriculture,Seeds,"S - Agriculture & Natural Resources, H - Agriculture, Water, Trade & Econ. Dev."
75094,69257-56563,69257,FE,17460,COMMUNICO*,Employer,56563,Bayer U.S. LLC,20-Jun,8/15/2020,16185.0,Bayer U.S. LLC,3333.33,0.0,3333.33,0.0,0.0,0.0,0.0,0.0,0.0,0.0,3333.33,56563.0,Direct,,,View report (https://accesshub.pdc.wa.gov/node/69257),Agriculture,Seeds,"S - Agriculture & Natural Resources, H - Agriculture, Water, Trade & Econ. Dev."
75095,70045-19414,70045,FE,17875,PAM CRONE LEGISLATIVE CONSULTING SVCS*,Employer,19414,BUILDING CHANGES,20-Jul,8/15/2020,16214.0,BUILDING CHANGES,2475.0,0.0,2475.0,0.0,0.0,0.0,0.0,0.0,0.0,0.0,2475.0,19414.0,Direct,,,View report (https://accesshub.pdc.wa.gov/node/70045),Education,students experiencing homelessness,Education committees OSPI Governor
75096,69811-18194,69811,FE,17358,"Public Affairs Consulting, LLC",Employer,18194,BLDG OWNERS & MANAGERS ASSN OF KING CO,20-Jul,8/15/2020,16216.0,BLDG OWNERS & MANAGERS ASSN OF KING CO,4000.0,0.0,4000.0,0.0,0.0,0.0,0.0,0.0,0.0,0.0,4000.0,18194.0,Direct,,,View report (https://accesshub.pdc.wa.gov/node/69811),Business and consumer affairs,Commercial Real Estate,Lawmakers and Agencies of Government
75097,70045-58280,70045,FE,17875,PAM CRONE LEGISLATIVE CONSULTING SVCS*,Employer,58280,CITY OF SEATTLE,20-Jul,8/15/2020,16311.0,CITY OF SEATTLE,2600.0,-2600.0,0.0,0.0,0.0,0.0,0.0,0.0,0.0,0.0,0.0,58280.0,Direct,,,View report (https://accesshub.pdc.wa.gov/node/70045),Labor,UI and other worker supports,ESD Governor
75098,69811-30466,69811,FE,17358,"Public Affairs Consulting, LLC",Employer,30466,CONSOLIDATED BOOKKEEPING & MANAGEMENT SERVICES INC,20-Jul,8/15/2020,16357.0,CONSOLIDATED BOOKKEEPING & MANAGEMENT SERVICES INC,3500.0,0.0,3500.0,0.0,0.0,0.0,0.0,0.0,0.0,0.0,3500.0,30466.0,Direct,,,View report (https://accesshub.pdc.wa.gov/node/69811),Labor,Labor and Contracting,Lawmakers and Agencies of Government
75099,68224-18480,68224,FE,17460,COMMUNICO*,Employer,18480,COSTCO WHOLESALE,20-May,8/15/2020,16370.0,COSTCO WHOLESALE,5000.0,0.0,5000.0,0.0,0.0,0.0,0.0,0.0,0.0,0.0,5000.0,18480.0,Direct,,,View report (https://accesshub.pdc.wa.gov/node/68224),Business and consumer affairs,Liquor,"S - Commerce, Labor & Sports and H- Commerce & Gaming"
75100,69257-18480,69257,FE,17460,COMMUNICO*,Employer,18480,COSTCO WHOLESALE,20-Jun,8/15/2020,16370.0,COSTCO WHOLESALE,5000.0,0.0,5000.0,0.0,0.0,0.0,0.0,0.0,0.0,0.0,5000.0,18480.0,Direct,,,View report (https://accesshub.pdc.wa.gov/node/69257),Business and consumer affairs,Liquor,"S - Commerce, Labor & Sports and H- Commerce & Gaming"
75101,70046-18494,70046,FE,17465,Coyne Jesernig LLC,Employer,18494,Darigold,20-Jul,8/15/2020,16378.0,Darigold,6000.0,0.0,6000.0,0.0,0.0,0.0,0.0,0.0,0.0,0.0,6000.0,18494.0,Direct,,,View report (https://accesshub.pdc.wa.gov/node/70046),Environmental Affairs - natural resources - parks,Carbon Tax,"H Env, EET"
75102,69811-63471,69811,FE,17358,"Public Affairs Consulting, LLC",Employer,63471,FAMILY WINERIES OF WA ST,20-Jul,8/15/2020,16434.0,FAMILY WINERIES OF WA ST,208.33,-104.17,104.16,0.0,0.0,0.0,0.0,0.0,0.0,0.0,104.16,63471.0,Direct,,,View report (https://accesshub.pdc.wa.gov/node/69811),Labor,Wine,H S Labor and Commerce
75103,70045-19416,70045,FE,17875,PAM CRONE LEGISLATIVE CONSULTING SVCS*,Employer,19416,CEDAR RIVER CLINICS,20-Jul,8/15/2020,16439.0,CEDAR RIVER CLINICS,375.0,-375.0,0.0,0.0,0.0,0.0,0.0,0.0,0.0,0.0,0.0,19416.0,Direct,,,View report (https://accesshub.pdc.wa.gov/node/70045),Health Care,sex ed ref healthcare access,Healthcare Leadership House and Senate Governor
75104,69811-18196,69811,FE,17358,"Public Affairs Consulting, LLC",Employer,18196,GOVT BLDG OWNERS & LESSORS ASSN,20-Jul,8/15/2020,16476.0,GOVT BLDG OWNERS & LESSORS ASSN,6128.65,0.0,6128.65,0.0,0.0,0.0,0.0,0.0,0.0,0.0,6128.65,18196.0,Direct,,,View report (https://accesshub.pdc.wa.gov/node/69811),Business and consumer affairs,Commercial Real Estate,Lawmakers and Agencies of Government
75105,70046-18495,70046,FE,17465,Coyne Jesernig LLC,Employer,18495,KOCH CO PUBLIC SECTOR LLC & AFFILIATES,20-Jul,8/15/2020,16585.0,KOCH CO PUBLIC SECTOR LLC & AFFILIATES,5000.0,0.0,5000.0,0.0,0.0,0.0,0.0,0.0,0.0,0.0,5000.0,18495.0,Direct,,,View report (https://accesshub.pdc.wa.gov/node/70046),,,
75106,69811-18198,69811,FE,17358,"Public Affairs Consulting, LLC",Employer,18198,Manufactured Housing Communities of WA,20-Jul,8/15/2020,16614.0,Manufactured Housing Communities of WA,4000.0,0.0,4000.0,0.0,0.0,0.0,0.0,0.0,0.0,0.0,4000.0,18198.0,Direct,,,View report (https://accesshub.pdc.wa.gov/node/69811),Business and consumer affairs,Affordable Housing,Lawmakers and Agencies of Government
75107,70045-19417,70045,FE,17875,PAM CRONE LEGISLATIVE CONSULTING SVCS*,Employer,19417,The Mockingbird Society,20-Jul,8/15/2020,16639.0,The Mockingbird Society,1500.0,0.0,1500.0,0.0,0.0,0.0,0.0,0.0,0.0,0.0,1500.0,19417.0,Direct,,,View report (https://accesshub.pdc.wa.gov/node/70045),Human services,"legal rep, foster youth","House Early Learning and Human Services DCYF, and Senate Human Services Approps Ways/Means"
75108,69811-18200,69811,FE,17358,"Public Affairs Consulting, LLC",Employer,18200,NATL ASSN OF CREDIT MGMT,20-Jul,8/15/2020,16659.0,NATL ASSN OF CREDIT MGMT,1208.0,-604.0,604.0,0.0,0.0,0.0,0.0,0.0,0.0,0.0,604.0,18200.0,Direct,,,View report (https://accesshub.pdc.wa.gov/node/69811),Financial institutions and insurance,Financial Affairs,Lawmakers and Agencies of Government
75109,69932-63463,69932,FE,63455,"Consulting Services NW, LLC",Employer,63463,"NATL ASSN OF CREDIT MGMT (Public Affairs Consulting, LLC)",20-Jul,8/15/2020,16659.0,NATL ASSN OF CREDIT MGMT,604.0,0.0,604.0,0.0,0.0,0.0,0.0,0.0,0.0,0.0,604.0,63463.0,Subcontract,17358.0,"Public Affairs Consulting, LLC",View report (https://accesshub.pdc.wa.gov/node/69932),,,
75110,68224-18482,68224,FE,17460,COMMUNICO*,Employer,18482,NAIOP Washington State,20-May,8/15/2020,16669.0,NAIOP Washington State,8500.0,0.0,8500.0,0.0,0.0,0.0,0.0,0.0,0.0,0.0,8500.0,18482.0,Direct,,,View report (https://accesshub.pdc.wa.gov/node/68224),Environmental Affairs - natural resources - parks,"SEPA, GMA & Housing Taxes","H and S Environment Cmtes., H and S Local Government, H and S State Government"
75111,69257-18482,69257,FE,17460,COMMUNICO*,Employer,18482,NAIOP Washington State,20-Jun,8/15/2020,16669.0,NAIOP Washington State,8500.0,0.0,8500.0,0.0,0.0,0.0,0.0,0.0,0.0,0.0,8500.0,18482.0,Direct,,,View report (https://accesshub.pdc.wa.gov/node/69257),Environmental Affairs - natural resources - parks,"SEPA, GMA & Housing Taxes","H and S Environment Cmtes., H and S Local Government, H and S State Government"
75112,70046-18496,70046,FE,17465,Coyne Jesernig LLC,Employer,18496,NORTHWEST FARM CREDIT SERVICES,20-Jul,8/15/2020,16706.0,NORTHWEST FARM CREDIT SERVICES,5000.0,0.0,5000.0,0.0,0.0,0.0,0.0,0.0,0.0,0.0,5000.0,18496.0,Direct,,,View report (https://accesshub.pdc.wa.gov/node/70046),Environmental Affairs - natural resources - parks,Carnon Tax,"H Env, EET"
75113,70046-18499,70046,FE,17465,Coyne Jesernig LLC,Employer,18499,PHILLIPS 66,20-Jul,8/15/2020,16779.0,PHILLIPS 66,6000.0,0.0,6000.0,0.0,0.0,0.0,0.0,0.0,0.0,0.0,6000.0,18499.0,Direct,,,View report (https://accesshub.pdc.wa.gov/node/70046),Environmental Affairs - natural resources - parks,Carbon Tax,"H Env, EET"
75114,70025-45767,70025,FE,17998,GARY STRANNIGAN,Employer,45767,PREMERA BLUE CROSS,20-Jul,8/15/2020,16812.0,PREMERA BLUE CROSS,926.5,0.0,926.5,0.0,0.0,37000.0,0.0,0.0,0.0,37000.0,37926.5,45767.0,Direct,,,View report (https://accesshub.pdc.wa.gov/node/70025),Health Care,"Covid 19, Telemedicine, Women's Health, Tax Policy, Foundational Health, Telehealth,","WA State Legislature, Rep & Dem Caucuses, Legislative Staff"
75115,70046-18500,70046,FE,17465,Coyne Jesernig LLC,Employer,18500,WestRock,20-Jul,8/15/2020,16863.0,WestRock,2250.0,0.0,2250.0,0.0,0.0,0.0,0.0,0.0,0.0,0.0,2250.0,18500.0,Direct,,,View report (https://accesshub.pdc.wa.gov/node/70046),Environmental Affairs - natural resources - parks,Carbon Tax,"H Env, EET"
75116,69811-18203,69811,FE,17358,"Public Affairs Consulting, LLC",Employer,18203,SUNRISE SERVICES INC,20-Jul,8/15/2020,16959.0,SUNRISE SERVICES INC,1450.0,-725.0,725.0,0.0,0.0,250.0,0.0,0.0,0.0,250.0,975.0,18203.0,Direct,,,View report (https://accesshub.pdc.wa.gov/node/69811),Human services,Developmental Disabilities,Lawmakers and Agencies of Government
75117,69932-63465,69932,FE,63455,"Consulting Services NW, LLC",Employer,63465,"SUNRISE SERVICES INC (Public Affairs Consulting, LLC)",20-Jul,8/15/2020,16959.0,SUNRISE SERVICES INC,725.0,0.0,725.0,0.0,0.0,0.0,0.0,0.0,0.0,0.0,725.0,63465.0,Subcontract,17358.0,"Public Affairs Consulting, LLC",View report (https://accesshub.pdc.wa.gov/node/69932),,,
75118,70046-18501,70046,FE,17465,Coyne Jesernig LLC,Employer,18501,SYNGENTA,20-Jul,8/15/2020,16964.0,SYNGENTA,2000.0,0.0,2000.0,0.0,0.0,0.0,0.0,0.0,0.0,0.0,2000.0,18501.0,Direct,,,View report (https://accesshub.pdc.wa.gov/node/70046),Environmental Affairs - natural resources - parks,Carbon Tax,"H Env, EET"
75119,68224-18483,68224,FE,17460,COMMUNICO*,Employer,18483,T-MOBILE USA INC,20-May,8/15/2020,17038.0,T-MOBILE USA INC,7000.0,0.0,7000.0,0.0,0.0,0.0,0.0,0.0,0.0,0.0,7000.0,18483.0,Direct,,,View report (https://accesshub.pdc.wa.gov/node/68224),Energy and utilities,Telecommunications,"S - Energy, Environment & Telecom H - Technology Econ & Dev."
75120,69257-18483,69257,FE,17460,COMMUNICO*,Employer,18483,T-MOBILE USA INC,20-Jun,8/15/2020,17038.0,T-MOBILE USA INC,7000.0,0.0,7000.0,0.0,0.0,0.0,0.0,0.0,0.0,0.0,7000.0,18483.0,Direct,,,View report (https://accesshub.pdc.wa.gov/node/69257),Energy and utilities,Telecommunications,"S - Energy, Environment & Telecom H - Technology Econ & Dev."
75122,69811-18204,69811,FE,17358,"Public Affairs Consulting, LLC",Employer,18204,WA APARTMENT ASSN,20-Jul,8/15/2020,17043.0,WA APARTMENT ASSN,5750.0,0.0,5750.0,0.0,0.0,0.0,0.0,0.0,0.0,0.0,5750.0,18204.0,Direct,,,View report (https://accesshub.pdc.wa.gov/node/69811),Business and consumer affairs,Affordable Housing,Lawmakers and Agencies of Government
75123,69811-18205,69811,FE,17358,"Public Affairs Consulting, LLC",Employer,18205,WA COLLECTORS ASSN,20-Jul,8/15/2020,17068.0,WA COLLECTORS ASSN,4154.67,0.0,4154.67,0.0,0.0,0.0,0.0,0.0,0.0,0.0,4154.67,18205.0,Direct,,,View report (https://accesshub.pdc.wa.gov/node/69811),Financial institutions and insurance,Financial Services and Judiciary,Lawmakers and Agencies of Government
75124,70035-19564,70035,FE,17931,JULIE K SALVI,Employer,19564,WA EDUCATION ASSN,20-Jul,8/15/2020,17098.0,WA EDUCATION ASSN,2694.8,0.0,2694.8,0.0,0.0,0.0,0.0,0.0,0.0,0.0,2694.8,19564.0,Direct,,,View report (https://accesshub.pdc.wa.gov/node/70035),Education,"SEBB and PEBB rules, policy changes and plan offerings, K-12 salaries, Funding improvements for institutional education programs, School funding rules and employee, benefit programs (unemployment/labor and industries)","Rep. Dolan, SCPP, Senate D Caucus Staff, Improving Inst. Ed Outcomes Task Force, HCA Staff, PEBB, SEBB, OFM Meeting, SPI Staff"
75125,70037-19913,70037,FE,18106,LUCINDA L YOUNG,Employer,19913,WA EDUCATION ASSN,20-Jul,8/15/2020,17098.0,WA EDUCATION ASSN,4176.94,0.0,4176.94,0.0,0.0,1145.29,0.0,0.0,0.0,1145.29,5322.23,19913.0,Direct,,,View report (https://accesshub.pdc.wa.gov/node/70037),Education,"K-12 Policy tied to COVID-19 issues, paraeducator training","Sen. Lovelett, C. Wilson, Rep. Dolan, Santos, Ortiz-Self, Hudgins, Paul, Callan, PESB, Paraeducator Board"
75126,70034-28564,70034,FE,28561,LORRELL NOAHR,Employer,28564,WA EDUCATION ASSN,20-Jul,8/15/2020,17098.0,WA EDUCATION ASSN,1920.04,0.0,1920.04,0.0,0.0,0.0,0.0,0.0,0.0,0.0,1920.04,28564.0,Direct,,,View report (https://accesshub.pdc.wa.gov/node/70034),Education,Education Fiscal Policy,"Wellman, Santos, Gregerson, Frame, Rolfes, Riccili, OSPI/OFM, SDC Staff, Tax Structure WG"
75127,70046-18503,70046,FE,17465,Coyne Jesernig LLC,Employer,18503,Food Northwest,20-Jul,8/15/2020,17119.0,Food Northwest,5500.0,-2750.0,2750.0,0.0,0.0,0.0,0.0,0.0,0.0,0.0,2750.0,18503.0,Direct,,,View report (https://accesshub.pdc.wa.gov/node/70046),Environmental Affairs - natural resources - parks,Carbon Tax,"H Env, EET"
75128,70046-18504,70046,FE,17465,Coyne Jesernig LLC,Employer,18504,WA INDEPENDENT TELECOMMUNICATIONS ASSN,20-Jul,8/15/2020,17138.0,WA INDEPENDENT TELECOMMUNICATIONS ASSN,5500.0,0.0,5500.0,0.0,0.0,0.0,0.0,0.0,0.0,0.0,5500.0,18504.0,Direct,,,View report (https://accesshub.pdc.wa.gov/node/70046),Energy and utilities,Telecommunications,"TED, EET"
75129,70045-19421,70045,FE,17875,PAM CRONE LEGISLATIVE CONSULTING SVCS*,Employer,19421,DISABILITY RIGHTS WA,20-Jul,8/15/2020,17163.0,DISABILITY RIGHTS WA,2000.0,0.0,2000.0,0.0,0.0,0.0,0.0,0.0,0.0,0.0,2000.0,19421.0,Direct,,,View report (https://accesshub.pdc.wa.gov/node/70045),Health Care,mental health,Health Care Committees
75130,69811-24811,69811,FE,17358,"Public Affairs Consulting, LLC",Employer,24811,TOWING AND RECOVERY ASSN OF WA,20-Jul,8/15/2020,17205.0,TOWING AND RECOVERY ASSN OF WA,3500.0,0.0,3500.0,0.0,0.0,0.0,0.0,0.0,0.0,0.0,3500.0,24811.0,Direct,,,View report (https://accesshub.pdc.wa.gov/node/69811),Transportation,Towing and Transporation,Lawmakers and Agencies of Government
75131,69811-18206,69811,FE,17358,"Public Affairs Consulting, LLC",Employer,18206,WA ASSN OF VEHICLE SUBAGENTS,20-Jul,8/15/2020,17207.0,WA ASSN OF VEHICLE SUBAGENTS,4304.86,-1000.0,3304.86,0.0,0.0,0.0,0.0,0.0,0.0,0.0,3304.86,18206.0,Direct,,,View report (https://accesshub.pdc.wa.gov/node/69811),Transportation,Transportation and Funding,Lawmakers and Agencies of Government
75132,70045-19422,70045,FE,17875,PAM CRONE LEGISLATIVE CONSULTING SVCS*,Employer,19422,WA ST COALITION  AGAINST DOMESTIC VIOLENCE,20-Jul,8/15/2020,17227.0,WA ST COALITION  AGAINST DOMESTIC VIOLENCE,2309.0,0.0,2309.0,0.0,0.0,0.0,0.0,0.0,0.0,0.0,2309.0,19422.0,Direct,,,View report (https://accesshub.pdc.wa.gov/node/70045),,,
75133,69811-63472,69811,FE,17358,"Public Affairs Consulting, LLC",Employer,63472,WA ST SNOWMOBILE ASSN,20-Jul,8/15/2020,17282.0,WA ST SNOWMOBILE ASSN,833.33,-1416.91,-583.58,0.0,0.0,0.0,0.0,0.0,0.0,0.0,-583.58,63472.0,Direct,,,View report (https://accesshub.pdc.wa.gov/node/69811),Transportation,Snowmobile,H Sen. Transportation
75134,69932-66041,69932,FE,63455,"Consulting Services NW, LLC",Employer,66041,"WA ST SNOWMOBILE ASSN (Public Affairs Consulting, LLC)",20-Jul,8/15/2020,17282.0,WA ST SNOWMOBILE ASSN,416.91,0.0,416.91,0.0,0.0,0.0,0.0,0.0,0.0,0.0,416.91,66041.0,Subcontract,17358.0,"Public Affairs Consulting, LLC",View report (https://accesshub.pdc.wa.gov/node/69932),,,
75135,69811-18207,69811,FE,17358,"Public Affairs Consulting, LLC",Employer,18207,WA ST SELF STORAGE ASSN,20-Jul,8/15/2020,17287.0,WA ST SELF STORAGE ASSN,1245.84,-622.92,622.92,0.0,0.0,0.0,0.0,0.0,0.0,0.0,622.92,18207.0,Direct,,,View report (https://accesshub.pdc.wa.gov/node/69811),Business and consumer affairs,Real Estate and Business,Lawmakers and Agencies of Government
75136,69932-63469,69932,FE,63455,"Consulting Services NW, LLC",Employer,63469,"WA ST SELF STORAGE ASSN (Public Affairs Consulting, LLC)",20-Jul,8/15/2020,17287.0,WA ST SELF STORAGE ASSN,622.92,0.0,622.92,0.0,0.0,0.0,0.0,0.0,0.0,0.0,622.92,63469.0,Subcontract,17358.0,"Public Affairs Consulting, LLC",View report (https://accesshub.pdc.wa.gov/node/69932),,,
75137,70046-18507,70046,FE,17465,Coyne Jesernig LLC,Employer,18507,WA ST UNIVERSITY,20-Jul,8/15/2020,17290.0,WA ST UNIVERSITY,2000.0,0.0,2000.0,0.0,0.0,0.0,0.0,0.0,0.0,0.0,2000.0,18507.0,Direct,,,View report (https://accesshub.pdc.wa.gov/node/70046),Higher education,Op/Cap Budget,"H Cap Budget, W&M"
75138,68224-18484,68224,FE,17460,COMMUNICO*,Employer,18484,Washington State Veterinary Medical Association,20-May,8/15/2020,17291.0,Washington State Veterinary Medical Association,4200.0,0.0,4200.0,0.0,0.0,0.0,0.0,0.0,0.0,0.0,4200.0,18484.0,Direct,,,View report (https://accesshub.pdc.wa.gov/node/68224),Health Care,"Health Care, Taxes and Animal Cruelty","S - Agriculture& Natural Resources, H - Agriculture, Water, Trade & Econ. Dev,S - Law & Justice, H - Judiciary, S - Health Care and H - Health Care & Wellness"
75139,69257-18484,69257,FE,17460,COMMUNICO*,Employer,18484,Washington State Veterinary Medical Association,20-Jun,8/15/2020,17291.0,Washington State Veterinary Medical Association,4200.0,0.0,4200.0,0.0,0.0,0.0,0.0,0.0,0.0,0.0,4200.0,18484.0,Direct,,,View report (https://accesshub.pdc.wa.gov/node/69257),Health Care,"Health Care, Taxes and Animal Cruelty","S - Agriculture& Natural Resources, H - Agriculture, Water, Trade & Econ. Dev,S - Law & Justice, H - Judiciary, S - Health Care and H - Health Care & Wellness"
75140,68224-18485,68224,FE,17460,COMMUNICO*,Employer,18485,Western States Petroleum Assn.,20-May,8/15/2020,17302.0,Western States Petroleum Assn.,33333.33,0.0,33333.33,0.0,0.0,0.0,0.0,0.0,0.0,0.0,33333.33,18485.0,Direct,,,View report (https://accesshub.pdc.wa.gov/node/68224),Energy and utilities,"Petroleumn Issues, Transportation, Marine Safety and Taxes","H - Environment and S - Energy, Environment & Telecommunications"
75141,69257-18485,69257,FE,17460,COMMUNICO*,Employer,18485,Western States Petroleum Assn.,20-Jun,8/15/2020,17302.0,Western States Petroleum Assn.,33333.33,0.0,33333.33,0.0,0.0,0.0,0.0,0.0,0.0,0.0,33333.33,18485.0,Direct,,,View report (https://accesshub.pdc.wa.gov/node/69257),Energy and utilities,"Petroleumn Issues, Transportation, Marine Safety and Taxes","H - Environment and S - Energy, Environment & Telecommunications"
75142,68224-18486,68224,FE,17460,COMMUNICO*,Employer,18486,The Williams Companies,20-May,8/15/2020,17311.0,The Williams Companies,2500.0,0.0,2500.0,0.0,0.0,0.0,0.0,0.0,0.0,0.0,2500.0,18486.0,Direct,,,View report (https://accesshub.pdc.wa.gov/node/68224),Environmental Affairs - natural resources - parks,Pipeline,"H - Environment and S - Energy, Environment & Telecommunications"
75143,69257-18486,69257,FE,17460,COMMUNICO*,Employer,18486,The Williams Companies,20-Jun,8/15/2020,17311.0,The Williams Companies,2500.0,0.0,2500.0,0.0,0.0,0.0,0.0,0.0,0.0,0.0,2500.0,18486.0,Direct,,,View report (https://accesshub.pdc.wa.gov/node/69257),Environmental Affairs - natural resources - parks,Pipeline,"H - Environment and S - Energy, Environment & Telecommunications"
75144,70046-18508,70046,FE,17465,Coyne Jesernig LLC,Employer,18508,The Williams Companies,20-Jul,8/15/2020,17311.0,The Williams Companies,2500.0,0.0,2500.0,0.0,0.0,0.0,0.0,0.0,0.0,0.0,2500.0,18508.0,Direct,,,View report (https://accesshub.pdc.wa.gov/node/70046),Environmental Affairs - natural resources - parks,Carbon Tax,"H Env, EET"
75145,69811-61590,69811,FE,17358,"Public Affairs Consulting, LLC",Employer,61590,YAKIMA VALLEY LANDLORDS ASSN,20-Jul,8/15/2020,17322.0,YAKIMA VALLEY LANDLORDS ASSN,1000.0,0.0,1000.0,0.0,0.0,0.0,0.0,0.0,0.0,0.0,1000.0,61590.0,Direct,,,View report (https://accesshub.pdc.wa.gov/node/69811),Business and consumer affairs,Real-Estate,Financial institutions and insurance & Housing
75146,70046-23613,70046,FE,17465,Coyne Jesernig LLC,Employer,23613,WA GRAIN COMMISSION,20-Jul,8/15/2020,23610.0,WA GRAIN COMMISSION,2050.0,0.0,2050.0,0.0,0.0,0.0,0.0,0.0,0.0,0.0,2050.0,23613.0,Direct,,,View report (https://accesshub.pdc.wa.gov/node/70046),,,
75147,69811-30404,69811,FE,17358,"Public Affairs Consulting, LLC",Employer,30404,"Delivery Express, Inc.",20-Jul,8/15/2020,26676.0,"Delivery Express, Inc.",6500.0,0.0,6500.0,0.0,0.0,0.0,0.0,0.0,0.0,0.0,6500.0,30404.0,Direct,,,View report (https://accesshub.pdc.wa.gov/node/69811),Transportation,SB 5765,Transportation
75148,69811-41062,69811,FE,17358,"Public Affairs Consulting, LLC",Employer,41062,Plumbing-Heating-Cooling Contractors of Washington,20-Jul,8/15/2020,41058.0,Plumbing-Heating-Cooling Contractors of Washington,2500.0,-1000.0,1500.0,0.0,0.0,0.0,0.0,0.0,0.0,0.0,1500.0,41062.0,Direct,,,View report (https://accesshub.pdc.wa.gov/node/69811),Labor,Plumbing,Lawmakers and Agencies of Government
75149,70052-50466,70052,FE,39147,Cameron M. Bailey,Employer,50466,Skagit PUD,20-Jul,8/15/2020,50279.0,Skagit PUD,1000.0,0.0,1000.0,0.0,0.0,0.0,0.0,0.0,0.0,0.0,1000.0,50466.0,Direct,,,View report (https://accesshub.pdc.wa.gov/node/70052),Energy and utilities,Capital Budget Funding,"Hosue Capital Budget, Senate Ways and Means"
75150,70046-50636,70046,FE,17465,Coyne Jesernig LLC,Employer,50636,NORTHWEST AGRICULTURAL COOPERATIVE COUNCIL,20-Jul,8/15/2020,50635.0,NORTHWEST AGRICULTURAL COOPERATIVE COUNCIL,4000.0,-2000.0,2000.0,0.0,0.0,0.0,0.0,0.0,0.0,0.0,2000.0,50636.0,Direct,,,View report (https://accesshub.pdc.wa.gov/node/70046),Environmental Affairs - natural resources - parks,Carbon Tax,"Environment, Energy & Transportation"
75151,70052-50715,70052,FE,39147,Cameron M. Bailey,Employer,50715,Washington State Animal Damage Control Program,20-Jul,8/15/2020,50705.0,Washington State Animal Damage Control Program,3000.0,0.0,3000.0,0.0,0.0,0.0,0.0,0.0,0.0,0.0,3000.0,50715.0,Direct,,,View report (https://accesshub.pdc.wa.gov/node/70052),Environmental Affairs - natural resources - parks,Animal Damage to Timber,"House Rural Dev. Agriculture & Nat. Resources, Senate Ag Water Nat. Resources, & Parks, WDFW"
75152,66865-54193,66865,FE,54165,Molecule Team,Employer,54193,Neste US Inc,20-Mar,8/15/2020,54183.0,Neste US Inc,7500.0,0.0,7500.0,0.0,0.0,0.0,0.0,0.0,0.0,0.0,7500.0,54193.0,Direct,,,View report (https://accesshub.pdc.wa.gov/node/66865),Energy and utilities,"HB1110, SB5971","House and Senate Energy Committee, House and Senate Transportation Committee"
75153,69282-54193,69282,FE,54165,Molecule Team,Employer,54193,Neste US Inc,20-Jun,8/15/2020,54183.0,Neste US Inc,7500.0,0.0,7500.0,0.0,0.0,0.0,0.0,0.0,0.0,0.0,7500.0,54193.0,Direct,,,View report (https://accesshub.pdc.wa.gov/node/69282),Energy and utilities,"HB1110, SB5971","House and Senate Energy Committee, House and Senate Transportation Committee"
75154,70047-56563,70047,FE,17460,COMMUNICO*,Employer,56563,Bayer U.S. LLC,20-Jul,8/16/2020,16185.0,Bayer U.S. LLC,3333.33,0.0,3333.33,0.0,0.0,0.0,0.0,0.0,0.0,0.0,3333.33,56563.0,Direct,,,View report (https://accesshub.pdc.wa.gov/node/70047),Agriculture,Seeds,"S - Agriculture & Natural Resources, H - Agriculture, Water, Trade & Econ. Dev."
75155,70073-19874,70073,FE,18078,MISHA WERSCHKUL,Employer,19874,WA ST BUDGET & POLICY CENTER,20-Jul,8/16/2020,16213.0,WA ST BUDGET & POLICY CENTER,315.86,0.0,315.86,0.0,0.0,0.0,0.0,0.0,0.0,0.0,315.86,19874.0,Direct,,,View report (https://accesshub.pdc.wa.gov/node/70073),Fiscal,State Budget and other,David Schumacher and Drew Shirk in Governor's office
75156,70047-18480,70047,FE,17460,COMMUNICO*,Employer,18480,COSTCO WHOLESALE,20-Jul,8/16/2020,16370.0,COSTCO WHOLESALE,5000.0,0.0,5000.0,0.0,0.0,0.0,0.0,0.0,0.0,0.0,5000.0,18480.0,Direct,,,View report (https://accesshub.pdc.wa.gov/node/70047),Business and consumer affairs,Liquor,"S - Commerce, Labor & Sports and H- Commerce & Gaming"
75157,70047-18482,70047,FE,17460,COMMUNICO*,Employer,18482,NAIOP Washington State,20-Jul,8/16/2020,16669.0,NAIOP Washington State,8500.0,0.0,8500.0,0.0,0.0,0.0,0.0,0.0,0.0,0.0,8500.0,18482.0,Direct,,,View report (https://accesshub.pdc.wa.gov/node/70047),Environmental Affairs - natural resources - parks,"SEPA, GMA & Housing Taxes","H and S Environment Cmtes., H and S Local Government, H and S State Government"
75158,70060-19104,70060,FE,17719,HERB KROHN,Employer,19104,SMART TD PAC,20-Jul,8/16/2020,17017.0,SMART TD PAC,1500.0,0.0,1500.0,0.0,0.0,0.0,0.0,0.0,0.0,0.0,1500.0,19104.0,Direct,,,View report (https://accesshub.pdc.wa.gov/node/70060),,,
75159,70047-18483,70047,FE,17460,COMMUNICO*,Employer,18483,T-MOBILE USA INC,20-Jul,8/16/2020,17038.0,T-MOBILE USA INC,7000.0,0.0,7000.0,0.0,0.0,0.0,0.0,0.0,0.0,0.0,7000.0,18483.0,Direct,,,View report (https://accesshub.pdc.wa.gov/node/70047),Energy and utilities,Telecommunications,"S - Energy, Environment & Telecom H - Technology Econ & Dev."
75160,70062-19636,70062,FE,17972,GLEN R SMITH,Employer,19636,WA ST GROUND WATER ASSN,20-Jul,8/16/2020,17240.0,WA ST GROUND WATER ASSN,2200.0,0.0,2200.0,32.47,0.0,0.0,0.0,0.0,0.0,32.47,2232.47,19636.0,Direct,,,View report (https://accesshub.pdc.wa.gov/node/70062),Environmental Affairs - natural resources - parks,"General lobbying activities in behalf of WSGWA with legislators and state departments, including participation in Water Trust, Banking and Transfers online meeting discussions.","General lobbying activities in behalf of WSGWA with legislators and state departments, including participation in Water Trust, Banking and Transfers online meeting discussions."
75161,70047-18484,70047,FE,17460,COMMUNICO*,Employer,18484,Washington State Veterinary Medical Association,20-Jul,8/16/2020,17291.0,Washington State Veterinary Medical Association,4200.0,0.0,4200.0,0.0,0.0,0.0,0.0,0.0,0.0,0.0,4200.0,18484.0,Direct,,,View report (https://accesshub.pdc.wa.gov/node/70047),Health Care,"Health Care, Taxes and Animal Cruelty","S - Agriculture& Natural Resources, H - Agriculture, Water, Trade & Econ. Dev,S - Law & Justice, H - Judiciary, S - Health Care and H - Health Care & Wellness"
75162,70047-18485,70047,FE,17460,COMMUNICO*,Employer,18485,Western States Petroleum Assn.,20-Jul,8/16/2020,17302.0,Western States Petroleum Assn.,33333.33,0.0,33333.33,0.0,0.0,0.0,0.0,0.0,0.0,0.0,33333.33,18485.0,Direct,,,View report (https://accesshub.pdc.wa.gov/node/70047),Energy and utilities,"Petroleumn Issues, Transportation, Marine Safety and Taxes","H - Environment and S - Energy, Environment & Telecommunications"
75163,70047-18486,70047,FE,17460,COMMUNICO*,Employer,18486,The Williams Companies,20-Jul,8/16/2020,17311.0,The Williams Companies,2500.0,0.0,2500.0,0.0,0.0,0.0,0.0,0.0,0.0,0.0,2500.0,18486.0,Direct,,,View report (https://accesshub.pdc.wa.gov/node/70047),Environmental Affairs - natural resources - parks,Pipeline,"H - Environment and S - Energy, Environment & Telecommunications"
75164,70057-62158,70057,FE,35236,Meg L Jones,Employer,62158,PacificSource Health Plans,20-Jul,8/16/2020,51438.0,PacificSource Health Plans,1500.0,0.0,1500.0,0.0,0.0,0.0,0.0,0.0,0.0,0.0,1500.0,62158.0,Direct,,,View report (https://accesshub.pdc.wa.gov/node/70057),Health Care,Pending regulations,"OIC, HCA, House Healthcare & Wellness Committee"
75165,69586-19288,69586,FE,17813,MILLENNIA PUBLIC AFFAIRS INC*,Employer,19288,ALKERMES PLC,20-Jul,8/17/2020,16079.0,ALKERMES PLC,5000.0,0.0,5000.0,0.0,0.0,0.0,0.0,0.0,0.0,0.0,5000.0,19288.0,Direct,,,View report (https://accesshub.pdc.wa.gov/node/69586),Business and consumer affairs,Business & Consumer Affairs,House Senate All
75168,70112-19680,70112,FE,17991,MELANIE STEWART & ASSOC LLC*,Employer,19680,AMERICAN MASSAGE THERAPY ASSN- WA CHAPTER,20-Jul,8/17/2020,16115.0,AMERICAN MASSAGE THERAPY ASSN- WA CHAPTER,2000.0,-500.0,1500.0,0.0,0.0,0.0,0.0,0.0,0.0,0.0,1500.0,19680.0,Direct,,,View report (https://accesshub.pdc.wa.gov/node/70112),Health Care,assorted,health and human services
75172,70110-18343,70110,FE,17428,DEANNE C CALVERT,Employer,18343,SANOFI US,20-Jul,8/17/2020,16178.0,SANOFI US,240.38,0.0,240.38,0.0,0.0,0.0,0.0,0.0,0.0,0.0,240.38,18343.0,Direct,,,View report (https://accesshub.pdc.wa.gov/node/70110),Health Care,Immunization requirements,"Governor's office, Legislature"
75173,70108-18454,70108,FE,17453,Bill Clarke,Employer,18454,BIOTECHNOLOGY INNOVATION ORGANIZATION,20-Jul,8/17/2020,16193.0,BIOTECHNOLOGY INNOVATION ORGANIZATION,5000.0,0.0,5000.0,0.0,0.0,0.0,0.0,0.0,0.0,0.0,5000.0,18454.0,Direct,,,View report (https://accesshub.pdc.wa.gov/node/70108),Health Care,Drug pricing; drug takeback,H. Health Care; S. Health Care
75174,70102-18970,70102,FE,17642,JAN HIMEBAUGH,Employer,18970,BUILDING INDUSTRY ASSN OF WA,20-Jul,8/17/2020,16215.0,BUILDING INDUSTRY ASSN OF WA,500.0,0.0,500.0,0.0,0.0,0.0,0.0,0.0,0.0,0.0,500.0,18970.0,Direct,,,View report (https://accesshub.pdc.wa.gov/node/70102),State government,Legislative Issues,Legislative and State agencies
75175,70056-45532,70056,FE,45531,Greg Lane,Employer,45532,BUILDING INDUSTRY ASSN OF WA,20-Jul,8/17/2020,16215.0,BUILDING INDUSTRY ASSN OF WA,500.0,0.0,500.0,0.0,0.0,0.0,0.0,0.0,0.0,0.0,500.0,45532.0,Direct,,,View report (https://accesshub.pdc.wa.gov/node/70056),State government,Legislative Issues,Legislative and State agencies
75176,69980-18158,69980,FE,17342,DAVID C ARBAUGH,Employer,18158,CHELAN CO PUBLIC UTILITY DIST #1,20-Jul,8/17/2020,16254.0,CHELAN CO PUBLIC UTILITY DIST #1,9450.0,0.0,9450.0,0.0,0.0,0.0,0.0,0.0,0.0,0.0,9450.0,18158.0,Direct,,,View report (https://accesshub.pdc.wa.gov/node/69980),Energy and utilities,Energy and Water,EWE
75177,70113-37347,70113,FE,25302,Northwest Solutions,Employer,37347,CITY OF WALLA WALLA,20-Jul,8/17/2020,16271.0,CITY OF WALLA WALLA,1750.0,0.0,1750.0,0.0,0.0,0.0,0.0,0.0,0.0,0.0,1750.0,37347.0,Direct,,,View report (https://accesshub.pdc.wa.gov/node/70113),Local government,REET 2,"Reps Stokesbary, Tarleton, Rude, Ryu, Frame, Blake, Doglio, Fey, Pollet; Sens Takko, Warnick, Das"
75178,69980-18159,69980,FE,17342,DAVID C ARBAUGH,Employer,18159,CITY OF RICHLAND,20-Jul,8/17/2020,16308.0,CITY OF RICHLAND,3000.0,0.0,3000.0,0.0,0.0,0.0,0.0,0.0,0.0,0.0,3000.0,18159.0,Direct,,,View report (https://accesshub.pdc.wa.gov/node/69980),Local government,Local Government,Government Operations Local
75179,70115-59221,70115,FE,17935,Nancy Sapiro,Employer,59221,CITY OF SEATTLE (PAM CRONE LEGISLATIVE CONSULTING SVCS*),20-Jul,8/17/2020,16311.0,CITY OF SEATTLE,2600.0,0.0,2600.0,0.0,0.0,0.0,0.0,0.0,0.0,0.0,2600.0,59221.0,Subcontract,17875.0,PAM CRONE LEGISLATIVE CONSULTING SVCS*,View report (https://accesshub.pdc.wa.gov/node/70115),,,
75180,70108-47868,70108,FE,17453,Bill Clarke,Employer,47868,CITY OF SUMNER,20-Jul,8/17/2020,16315.0,CITY OF SUMNER,5000.0,0.0,5000.0,0.0,0.0,0.0,0.0,0.0,0.0,0.0,5000.0,47868.0,Direct,,,View report (https://accesshub.pdc.wa.gov/node/70108),Fiscal,Capital Project Funding,House Capital Budget; Senate Ways & Means
75181,70117-19871,70117,FE,18075,RHONDA WEAVER,Employer,19871,COMCAST CABLE COMMUNICATIONS,20-Jul,8/17/2020,16344.0,COMCAST CABLE COMMUNICATIONS,2100.0,0.0,2100.0,0.0,0.0,8500.0,0.0,0.0,0.0,8500.0,10600.0,19871.0,Direct,,,View report (https://accesshub.pdc.wa.gov/node/70117),Technology,Telecommunucations,Legislature
75182,70115-23620,70115,FE,17935,Nancy Sapiro,Employer,23620,End of Life Washington,20-Jul,8/17/2020,16352.0,End of Life Washington,1500.0,0.0,1500.0,0.0,0.0,0.0,0.0,0.0,0.0,0.0,1500.0,23620.0,Direct,,,View report (https://accesshub.pdc.wa.gov/node/70115),Health Care,"End of Life Care, Advance Directives","Senate Law and Justice, House Health Care"
75183,70108-18455,70108,FE,17453,Bill Clarke,Employer,18455,The Trust for Public Land,20-Jul,8/17/2020,16358.0,The Trust for Public Land,3166.0,0.0,3166.0,0.0,0.0,0.0,0.0,0.0,0.0,0.0,3166.0,18455.0,Direct,,,View report (https://accesshub.pdc.wa.gov/node/70108),Environmental Affairs - natural resources - parks,Parks; recreation; farm/forest preservation,H. Capital Budget; S. Ways & Means; H. Enviro; S. Local Gov; S. Nat. Resources
75184,70079-56617,70079,FE,56616,Steve Taylor,Employer,56617,COWLITZ PUD,20-Jun,8/17/2020,16373.0,COWLITZ PUD,12917.0,0.0,12917.0,0.0,0.0,0.0,0.0,0.0,0.0,0.0,12917.0,56617.0,Direct,,,View report (https://accesshub.pdc.wa.gov/node/70079),Energy and utilities,Clean Energy Transformation Act,Department of Commerce
75185,70080-56617,70080,FE,56616,Steve Taylor,Employer,56617,COWLITZ PUD,20-Jul,8/17/2020,16373.0,COWLITZ PUD,12917.0,0.0,12917.0,0.0,0.0,0.0,0.0,0.0,0.0,0.0,12917.0,56617.0,Direct,,,View report (https://accesshub.pdc.wa.gov/node/70080),Energy and utilities,Clean Energy Transformation Act,Department of Commerce
75186,69586-19290,69586,FE,17813,MILLENNIA PUBLIC AFFAIRS INC*,Employer,19290,DISH Network Corporation,20-Jul,8/17/2020,16390.0,DISH Network Corporation,6000.0,0.0,6000.0,0.0,0.0,0.0,0.0,0.0,0.0,0.0,6000.0,19290.0,Direct,,,View report (https://accesshub.pdc.wa.gov/node/69586),Business and consumer affairs,BUSINESS AND CONSUMER AFFAIRS,BUSINESS AND CONSUMER AFFAIRS
75187,70112-19682,70112,FE,17991,MELANIE STEWART & ASSOC LLC*,Employer,19682,ELI LILLY & COMPANY,20-Jul,8/17/2020,16410.0,ELI LILLY & COMPANY,8750.0,-1500.0,7250.0,0.0,0.0,0.0,0.0,0.0,0.0,0.0,7250.0,19682.0,Direct,,,View report (https://accesshub.pdc.wa.gov/node/70112),,,
75188,70115-19968,70115,FE,17935,Nancy Sapiro,Employer,19968,CEDAR RIVER CLINICS (PAM CRONE LEGISLATIVE CONSULTING SVCS*),20-Jul,8/17/2020,16439.0,CEDAR RIVER CLINICS,375.0,0.0,375.0,0.0,0.0,0.0,0.0,0.0,0.0,0.0,375.0,19968.0,Subcontract,17875.0,PAM CRONE LEGISLATIVE CONSULTING SVCS*,View report (https://accesshub.pdc.wa.gov/node/70115),,,
75189,69829-19719,69829,FE,18003,ERIK STROM,Employer,19719,RUSSELL INVESTMENT GROUP,20-Jul,8/17/2020,16456.0,RUSSELL INVESTMENT GROUP,5000.0,0.0,5000.0,0.0,0.0,0.0,0.0,0.0,0.0,0.0,5000.0,19719.0,Direct,,,View report (https://accesshub.pdc.wa.gov/node/69829),State government,various,various
75190,70112-19683,70112,FE,17991,MELANIE STEWART & ASSOC LLC*,Employer,19683,FRESENIUS MEDICAL CARE NORTH AMERICA,20-Jul,8/17/2020,16462.0,FRESENIUS MEDICAL CARE NORTH AMERICA,2000.0,0.0,2000.0,0.0,0.0,0.0,0.0,0.0,0.0,0.0,2000.0,19683.0,Direct,,,View report (https://accesshub.pdc.wa.gov/node/70112),,,
75191,70077-68561,70077,FE,47356,Streuli Public Affairs,Employer,68561,Google LLC and its Affiliates (The Arledge Group),20-Jul,8/17/2020,16475.0,Google LLC and its Affiliates,1000.0,0.0,1000.0,0.0,0.0,0.0,0.0,0.0,0.0,0.0,1000.0,68561.0,Subcontract,37395.0,The Arledge Group,View report (https://accesshub.pdc.wa.gov/node/70077),,,
75192,70108-60240,70108,FE,17453,Bill Clarke,Employer,60240,GRANT PUD,20-Jul,8/17/2020,16481.0,GRANT PUD,4250.0,0.0,4250.0,100.0,0.0,0.0,0.0,0.0,0.0,100.0,4350.0,60240.0,Direct,,,View report (https://accesshub.pdc.wa.gov/node/70108),Energy and utilities,Energy,S. Energy & Environment; H. Energy & Environment; S. Ways & Means; H. Finance; S. Local Government; H. Local Government
75194,70077-49283,70077,FE,47356,Streuli Public Affairs,Employer,49283,IRON WORKERS DIST CNCL OF THE PNW,20-Jul,8/17/2020,16547.0,IRON WORKERS DIST CNCL OF THE PNW,2000.0,0.0,2000.0,0.0,0.0,0.0,0.0,0.0,0.0,0.0,2000.0,49283.0,Direct,,,View report (https://accesshub.pdc.wa.gov/node/70077),Transportation,Budget,Legislative Transportation Committees
75195,69586-19291,69586,FE,17813,MILLENNIA PUBLIC AFFAIRS INC*,Employer,19291,"JOHNSON & JOHNSON SERVICES, INC.",20-Jul,8/17/2020,16562.0,"JOHNSON & JOHNSON SERVICES, INC.",4000.0,0.0,4000.0,0.0,0.0,0.0,0.0,0.0,0.0,0.0,4000.0,19291.0,Direct,,,View report (https://accesshub.pdc.wa.gov/node/69586),Health Care,HEALTH CARE,HEALTH CARE
75196,70111-19145,70111,FE,17751,CAROLYN LOGUE,Employer,19145,"Stride, Inc.",20-Jul,8/17/2020,16567.0,"Stride, Inc.",5500.0,0.0,5500.0,0.0,0.0,0.0,0.0,0.0,0.0,0.0,5500.0,19145.0,Direct,,,View report (https://accesshub.pdc.wa.gov/node/70111),Education,Online Learning and ALE issues,"Education and Fiscal Committees, OSPI"
75197,70108-18456,70108,FE,17453,Bill Clarke,Employer,18456,KITTITAS CO BOARD OF COMMISSIONERS,20-Jul,8/17/2020,16582.0,KITTITAS CO BOARD OF COMMISSIONERS,2500.0,0.0,2500.0,0.0,0.0,0.0,0.0,0.0,0.0,0.0,2500.0,18456.0,Direct,,,View report (https://accesshub.pdc.wa.gov/node/70108),Local government,Water; budget,S. Ag & Water; H. Ag & Nat Resources; H. Cap. Budget; S. Ways & Means
75198,70111-19146,70111,FE,17751,CAROLYN LOGUE,Employer,19146,WA INDEPENDENT MEDICAL EXAM COALITION,20-Jul,8/17/2020,16630.0,WA INDEPENDENT MEDICAL EXAM COALITION,2500.0,0.0,2500.0,0.0,0.0,0.0,0.0,0.0,0.0,0.0,2500.0,19146.0,Direct,,,View report (https://accesshub.pdc.wa.gov/node/70111),Labor,IME Issues/Workers Comp,"House and Senate Labor Committees, L&I"
75199,69586-19292,69586,FE,17813,MILLENNIA PUBLIC AFFAIRS INC*,Employer,19292,MetLife,20-Jul,8/17/2020,16634.0,MetLife,2500.0,0.0,2500.0,0.0,0.0,0.0,0.0,0.0,0.0,0.0,2500.0,19292.0,Direct,,,View report (https://accesshub.pdc.wa.gov/node/69586),Financial institutions and insurance,2306 6146,House Senate All
75200,70095-63047,70095,FE,17537,KRISTEN FEDERICI,Employer,63047,Molina Healthcare Inc,20-May,8/17/2020,16641.0,Molina Healthcare Inc,600.0,0.0,600.0,0.0,0.0,0.0,0.0,0.0,0.0,0.0,600.0,63047.0,Direct,,,View report (https://accesshub.pdc.wa.gov/node/70095),Health Care,Medicaid,"Health Care, Appropriations, Ways and Means"
75201,70098-63047,70098,FE,17537,KRISTEN FEDERICI,Employer,63047,Molina Healthcare Inc,20-Jul,8/17/2020,16641.0,Molina Healthcare Inc,825.0,0.0,825.0,0.0,0.0,0.0,0.0,0.0,0.0,0.0,825.0,63047.0,Direct,,,View report (https://accesshub.pdc.wa.gov/node/70098),Health Care,Medicaid,"Health Care, Appropriations, Ways and Means"
75202,70118-19184,70118,FE,17769,Cyan Strategies,Employer,19184,NISSAN NORTH AMERICA,20-Jul,8/17/2020,16688.0,NISSAN NORTH AMERICA,1900.0,0.0,1900.0,0.0,0.0,0.0,0.0,0.0,0.0,0.0,1900.0,19184.0,Direct,,,View report (https://accesshub.pdc.wa.gov/node/70118),Transportation,EV issues,Transportation Committees
75203,70112-19684,70112,FE,17991,MELANIE STEWART & ASSOC LLC*,Employer,19684,PIERCE CO ALLIANCE,20-Jul,8/17/2020,16782.0,PIERCE CO ALLIANCE,4000.0,-2500.0,1500.0,0.0,0.0,0.0,0.0,0.0,0.0,0.0,1500.0,19684.0,Direct,,,View report (https://accesshub.pdc.wa.gov/node/70112),,,
75204,69965-18127,69965,FE,17333,JENNIFER M ALLEN,Employer,18127,PLANNED PARENTHOOD ALLIANCE ADVOCATES,20-Jul,8/17/2020,16789.0,PLANNED PARENTHOOD ALLIANCE ADVOCATES,4261.57,0.0,4261.57,0.0,0.0,0.0,0.0,0.0,0.0,0.0,4261.57,18127.0,Direct,,,View report (https://accesshub.pdc.wa.gov/node/69965),Health Care,"Reproductive Health, Rights, & Justice","Voters re R-90, Health and Appropriations Members, DOH, HCA, Governor"
75205,69586-58858,69586,FE,17813,MILLENNIA PUBLIC AFFAIRS INC*,Employer,58858,PRE-PAID LEGAL SERVICES INC,20-Jul,8/17/2020,16811.0,PRE-PAID LEGAL SERVICES INC,7000.0,0.0,7000.0,0.0,0.0,0.0,0.0,0.0,0.0,0.0,7000.0,58858.0,Direct,,,View report (https://accesshub.pdc.wa.gov/node/69586),Financial institutions and insurance,Insurance,House Senate All
75206,70091-19901,70091,FE,18096,BRUCE WISHART,Employer,19901,PUGET SOUND KEEPER ALLIANCE,20-Jul,8/17/2020,16829.0,PUGET SOUND KEEPER ALLIANCE,1800.0,0.0,1800.0,0.0,0.0,0.0,0.0,0.0,0.0,0.0,1800.0,19901.0,Direct,,,View report (https://accesshub.pdc.wa.gov/node/70091),Environmental Affairs - natural resources - parks,water quality issues,"Department of Ecology, House Environment Committee, Senate Energy and Environment, House Energy"
75207,70094-18930,70094,FE,17611,STUART A HALSAN,Employer,18930,RITE AID CORPORATION,20-Jul,8/17/2020,16861.0,RITE AID CORPORATION,4500.0,0.0,4500.0,0.0,0.0,0.0,0.0,0.0,0.0,0.0,4500.0,18930.0,Direct,,,View report (https://accesshub.pdc.wa.gov/node/70094),Business and consumer affairs,All,All
75208,69586-19295,69586,FE,17813,MILLENNIA PUBLIC AFFAIRS INC*,Employer,19295,ROWLEY PROPERTIES INC,20-Jul,8/17/2020,16864.0,ROWLEY PROPERTIES INC,4000.0,0.0,4000.0,0.0,0.0,0.0,0.0,0.0,0.0,0.0,4000.0,19295.0,Direct,,,View report (https://accesshub.pdc.wa.gov/node/69586),Business and consumer affairs,BUSINESS AND CONSUMER AFFAIRS,BUSINESS AND CONSUMER AFFAIRS
75209,70099-29754,70099,FE,29753,Erin Haick,Employer,29754,SERVICE EMPLOYEES INTL UNION DIST 925,20-Jul,8/17/2020,16904.0,SERVICE EMPLOYEES INTL UNION DIST 925,732.75,0.0,732.75,0.0,0.0,0.0,0.0,0.0,0.0,0.0,732.75,29754.0,Direct,,,View report (https://accesshub.pdc.wa.gov/node/70099),Education,"child care, labor issues","legislature, Gov staff, DCYF"
75210,70091-19902,70091,FE,18096,BRUCE WISHART,Employer,19902,Sierra Club,20-Jul,8/17/2020,16915.0,Sierra Club,1600.0,0.0,1600.0,0.0,0.0,0.0,0.0,0.0,0.0,0.0,1600.0,19902.0,Direct,,,View report (https://accesshub.pdc.wa.gov/node/70091),Environmental Affairs - natural resources - parks,"Climate, water resources, environmental issues","House and Senate Energy and Environment Committees, Governors Office, Department of Ecology"
75211,69980-53945,69980,FE,17342,DAVID C ARBAUGH,Employer,53945,Sierra Pacific Industries,20-Jul,8/17/2020,16916.0,Sierra Pacific Industries,3000.0,0.0,3000.0,0.0,0.0,0.0,0.0,0.0,0.0,0.0,3000.0,53945.0,Direct,,,View report (https://accesshub.pdc.wa.gov/node/69980),Fiscal,Natural Resource - Timber Issues; Tax Policy,"Environment & Energy; Finance; Appropriations; Labor & Workplace Standards; Rural Development, Agriculture & Natural Resources; Agriculture, Water, Natural Resources & Parks; Environment, Energy & Technology; Labor & Commerce; Ways & Means."
75213,70114-45763,70114,FE,27426,Peggen & Mara Political Consulting LLP,Employer,45763,STILLAGUAMISH TRIBE OF INDIANS,20-Jul,8/17/2020,16955.0,STILLAGUAMISH TRIBE OF INDIANS,3500.0,0.0,3500.0,0.0,0.0,0.0,0.0,0.0,0.0,0.0,3500.0,45763.0,Direct,,,View report (https://accesshub.pdc.wa.gov/node/70114),Human services,human services,"Reps Eslick, Blake, Dent, Brkis, Wilcox; Sen Billig"
75214,69586-19296,69586,FE,17813,MILLENNIA PUBLIC AFFAIRS INC*,Employer,19296,Marathon Petroleum Corporation and its Subsidiaries,20-Jul,8/17/2020,16980.0,Marathon Petroleum Corporation and its Subsidiaries,6000.0,0.0,6000.0,0.0,0.0,0.0,0.0,0.0,0.0,0.0,6000.0,19296.0,Direct,,,View report (https://accesshub.pdc.wa.gov/node/69586),Business and consumer affairs,BUSINESS AND CONSUMER AFFAIRS,BUSINESS AND CONSUMER AFFAIRS
75216,70108-18458,70108,FE,17453,Bill Clarke,Employer,18458,TROUT UNLIMITED,20-Jul,8/17/2020,16995.0,TROUT UNLIMITED,3500.0,0.0,3500.0,0.0,0.0,0.0,0.0,0.0,0.0,0.0,3500.0,18458.0,Direct,,,View report (https://accesshub.pdc.wa.gov/node/70108),Environmental Affairs - natural resources - parks,Fishery management; habitat; budget,S. Natural Resources; H. Ag & Natural Res
75217,69586-19298,69586,FE,17813,MILLENNIA PUBLIC AFFAIRS INC*,Employer,19298,UNIVERSITY OF WASHINGTON,20-Jul,8/17/2020,17021.0,UNIVERSITY OF WASHINGTON,7000.0,0.0,7000.0,0.0,0.0,0.0,0.0,0.0,0.0,0.0,7000.0,19298.0,Direct,,,View report (https://accesshub.pdc.wa.gov/node/69586),Business and consumer affairs,Business & Consumer Affairs,Business & Consumer Affairs
75218,69586-19299,69586,FE,17813,MILLENNIA PUBLIC AFFAIRS INC*,Employer,19299,WA AGGREGATES & CONCRETE ASSN,20-Jul,8/17/2020,17048.0,WA AGGREGATES & CONCRETE ASSN,5000.0,0.0,5000.0,0.0,0.0,0.0,0.0,0.0,0.0,0.0,5000.0,19299.0,Direct,,,View report (https://accesshub.pdc.wa.gov/node/69586),Business and consumer affairs,BUSINESS AND CONSUMER AFFAIRS,BUSINESS AND CONSUMER AFFAIRS
75220,70108-18459,70108,FE,17453,Bill Clarke,Employer,18459,WA ASSN OF REALTORS,20-Jul,8/17/2020,17059.0,WA ASSN OF REALTORS,6000.0,0.0,6000.0,0.0,0.0,0.0,0.0,0.0,0.0,0.0,6000.0,18459.0,Direct,,,View report (https://accesshub.pdc.wa.gov/node/70108),Business and consumer affairs,Growth Management; taxation; housing; water,S. Local Gov; H. Enviro; S. Finance; S. Ways & Means
75221,70077-47358,70077,FE,47356,Streuli Public Affairs,Employer,47358,WA CATTLEMEN'S ASSN,20-Jul,8/17/2020,17072.0,WA CATTLEMEN'S ASSN,1500.0,0.0,1500.0,0.0,0.0,0.0,0.0,0.0,0.0,0.0,1500.0,47358.0,Direct,,,View report (https://accesshub.pdc.wa.gov/node/70077),Agriculture,Washington Beef,Various Legislative Committees and State Agencies
75222,70111-19148,70111,FE,17751,CAROLYN LOGUE,Employer,19148,WA DENTURIST ASSN,20-Jul,8/17/2020,17093.0,WA DENTURIST ASSN,2000.0,0.0,2000.0,0.0,0.0,0.0,0.0,0.0,0.0,0.0,2000.0,19148.0,Direct,,,View report (https://accesshub.pdc.wa.gov/node/70111),Health Care,Dental/Denturist Issues,"House and Senate Health Care, DOH, HCA"
75223,70111-19149,70111,FE,17751,CAROLYN LOGUE,Employer,19149,WA FOOD INDUSTRY,20-Jul,8/17/2020,17117.0,WA FOOD INDUSTRY,4584.0,0.0,4584.0,0.0,0.0,0.0,0.0,0.0,0.0,0.0,4584.0,19149.0,Direct,,,View report (https://accesshub.pdc.wa.gov/node/70111),Business and consumer affairs,General Business Issues,"Labor and Commerce Committees, LNI, DOR"
75225,70111-24891,70111,FE,17751,CAROLYN LOGUE,Employer,24891,Washington Library Association,20-Jul,8/17/2020,17140.0,Washington Library Association,2500.0,0.0,2500.0,0.0,0.0,0.0,0.0,0.0,0.0,0.0,2500.0,24891.0,Direct,,,View report (https://accesshub.pdc.wa.gov/node/70111),Education,School Library Issues,Education and K12 Committees
75226,69980-48559,69980,FE,17342,DAVID C ARBAUGH,Employer,48559,ENERGY NORTHWEST,20-Jul,8/17/2020,17173.0,ENERGY NORTHWEST,6000.0,0.0,6000.0,0.0,0.0,0.0,0.0,0.0,0.0,0.0,6000.0,48559.0,Direct,,,View report (https://accesshub.pdc.wa.gov/node/69980),,,
75227,70108-18460,70108,FE,17453,Bill Clarke,Employer,18460,WA PUBLIC UTILITIES DISTS ASSN,20-Jul,8/17/2020,17176.0,WA PUBLIC UTILITIES DISTS ASSN,5750.0,0.0,5750.0,100.0,0.0,0.0,0.0,0.0,0.0,100.0,5850.0,18460.0,Direct,,,View report (https://accesshub.pdc.wa.gov/node/70108),Energy and utilities,Water rights; energy; telecommunications; infrastructure,S. Ag & Water; H. Ag & Nat. Resources; S. Enviro; H. Cap. Budget; S. Ways & Means
75231,69967-19037,69967,FE,17676,ERIC B JOHNSON,Employer,19037,WA STATE ASSN OF COUNTIES (WSAC),20-Jul,8/17/2020,17215.0,WA STATE ASSN OF COUNTIES (WSAC),327.36,0.0,327.36,0.0,0.0,0.0,0.0,0.0,0.0,0.0,327.36,19037.0,Direct,,,View report (https://accesshub.pdc.wa.gov/node/69967),Local government,Various,Various
75232,70101-39387,70101,FE,39386,Teresa Taylor,Employer,39387,WA ST COUNCIL OF POLICE & SHERIFFS,20-Jul,8/17/2020,17236.0,WA ST COUNCIL OF POLICE & SHERIFFS,2500.0,0.0,2500.0,0.0,0.0,0.0,0.0,0.0,0.0,0.0,2500.0,39387.0,Direct,,,View report (https://accesshub.pdc.wa.gov/node/70101),Law and justice,Law and Justice,Senate Law & Justice Committee; House Public Safety Committee
75233,70111-44979,70111,FE,17751,CAROLYN LOGUE,Employer,44979,WAACCA,20-Jul,8/17/2020,17256.0,WAACCA,2500.0,0.0,2500.0,0.0,0.0,0.0,0.0,0.0,0.0,0.0,2500.0,44979.0,Direct,,,View report (https://accesshub.pdc.wa.gov/node/70111),Labor,HVAC Licensing issues,"L&I, Labor & Workforce Development, Labor & Commerce"
75235,70112-19688,70112,FE,17991,MELANIE STEWART & ASSOC LLC*,Employer,19688,WA ST DIST & MUNICIPAL COURT JUDGES ASSN,20-Jul,8/17/2020,17263.0,WA ST DIST & MUNICIPAL COURT JUDGES ASSN,2000.0,-500.0,1500.0,0.0,0.0,0.0,0.0,0.0,0.0,0.0,1500.0,19688.0,Direct,,,View report (https://accesshub.pdc.wa.gov/node/70112),,,
75236,70112-19689,70112,FE,17991,MELANIE STEWART & ASSOC LLC*,Employer,19689,Washington State Podiatric Medical Association,20-Jul,8/17/2020,17272.0,Washington State Podiatric Medical Association,2500.0,-500.0,2000.0,0.0,0.0,0.0,0.0,0.0,0.0,0.0,2000.0,19689.0,Direct,,,View report (https://accesshub.pdc.wa.gov/node/70112),,,
75237,70077-68870,70077,FE,47356,Streuli Public Affairs,Employer,68870,WA ST POTATO COMMISSION,20-Jul,8/17/2020,17273.0,WA ST POTATO COMMISSION,4150.0,0.0,4150.0,0.0,0.0,0.0,0.0,0.0,0.0,0.0,4150.0,68870.0,Direct,,,View report (https://accesshub.pdc.wa.gov/node/70077),Agriculture,Transportation,Various Legislative Committees and State Agencies
75238,70108-18461,70108,FE,17453,Bill Clarke,Employer,18461,REGIONAL WATER COOPERATIVE OF PIERCE CO,20-Jul,8/17/2020,17293.0,REGIONAL WATER COOPERATIVE OF PIERCE CO,3750.0,0.0,3750.0,100.0,0.0,0.0,0.0,0.0,0.0,100.0,3850.0,18461.0,Direct,,,View report (https://accesshub.pdc.wa.gov/node/70108),Energy and utilities,Water rights; infrastructure,S. Ag & Water; H. Ag & Natural Resources; H. Capital Budget; S. Ways & Means
75239,70108-18462,70108,FE,17453,Bill Clarke,Employer,18462,AG WATER BOARD OF WHATCOM COUNTY,20-Jul,8/17/2020,17306.0,AG WATER BOARD OF WHATCOM COUNTY,3000.0,0.0,3000.0,0.0,0.0,0.0,0.0,0.0,0.0,0.0,3000.0,18462.0,Direct,,,View report (https://accesshub.pdc.wa.gov/node/70108),Environmental Affairs - natural resources - parks,Water and Infrastructure,S. Ag Water; H. Ag Natural Resources
75240,70112-19690,70112,FE,17991,MELANIE STEWART & ASSOC LLC*,Employer,19690,Yakima Valley Memorial Hospital Association,20-Jul,8/17/2020,17321.0,Yakima Valley Memorial Hospital Association,2500.0,0.0,2500.0,0.0,0.0,0.0,0.0,0.0,0.0,0.0,2500.0,19690.0,Direct,,,View report (https://accesshub.pdc.wa.gov/node/70112),,,
75241,70077-68871,70077,FE,47356,Streuli Public Affairs,Employer,68871,WA POTATO & ONION ASSN,20-Jul,8/17/2020,23611.0,WA POTATO & ONION ASSN,850.0,0.0,850.0,0.0,0.0,0.0,0.0,0.0,0.0,0.0,850.0,68871.0,Direct,,,View report (https://accesshub.pdc.wa.gov/node/70077),Agriculture,Onions Soil Health,Various Legislative Committees and State Agencies
75242,70113-25311,70113,FE,25302,Northwest Solutions,Employer,25311,Public Works  Board,20-Jul,8/17/2020,25309.0,Public Works  Board,4000.0,0.0,4000.0,0.0,0.0,0.0,0.0,0.0,0.0,0.0,4000.0,25311.0,Direct,,,View report (https://accesshub.pdc.wa.gov/node/70113),,,
75243,70077-59901,70077,FE,47356,Streuli Public Affairs,Employer,59901,Motorola Solutions Inc (The Arledge Group),20-Jul,8/17/2020,26195.0,Motorola Solutions Inc,2000.0,0.0,2000.0,0.0,0.0,0.0,0.0,0.0,0.0,0.0,2000.0,59901.0,Subcontract,37395.0,The Arledge Group,View report (https://accesshub.pdc.wa.gov/node/70077),,,
75244,70114-27427,70114,FE,27426,Peggen & Mara Political Consulting LLP,Employer,27427,Hoh Tribe,20-Jul,8/17/2020,27425.0,Hoh Tribe,3500.0,0.0,3500.0,0.0,0.0,0.0,0.0,0.0,0.0,0.0,3500.0,27427.0,Direct,,,View report (https://accesshub.pdc.wa.gov/node/70114),Human services,human svcs,Sen Van De Wege
75245,69586-27670,69586,FE,17813,MILLENNIA PUBLIC AFFAIRS INC*,Employer,27670,"Jazz Pharmaceuticals, Inc. and its subsidiaries, including Greenwich Biosciences, Inc.",20-Jul,8/17/2020,27659.0,"Jazz Pharmaceuticals, Inc. and its subsidiaries, including Greenwich Biosciences, Inc.",3500.0,0.0,3500.0,0.0,0.0,0.0,0.0,0.0,0.0,0.0,3500.0,27670.0,Direct,,,View report (https://accesshub.pdc.wa.gov/node/69586),Business and consumer affairs,Business & Consumer Affairs,House Senate All
75246,70108-29417,70108,FE,17453,Bill Clarke,Employer,29417,1-800 CONTACTS,20-Jul,8/17/2020,29415.0,1-800 CONTACTS,5000.0,-2500.0,2500.0,0.0,0.0,0.0,0.0,0.0,0.0,0.0,2500.0,29417.0,Direct,,,View report (https://accesshub.pdc.wa.gov/node/70108),Health Care,Eye Care,Senate Health Care; House Health Care
75247,70108-32049,70108,FE,17453,Bill Clarke,Employer,32049,Renewable Energy Group,20-Jul,8/17/2020,30764.0,Renewable Energy Group,8000.0,0.0,8000.0,0.0,0.0,0.0,0.0,0.0,0.0,0.0,8000.0,32049.0,Direct,,,View report (https://accesshub.pdc.wa.gov/node/70108),Environmental Affairs - natural resources - parks,Environmental,S. Environment Energy & Telecom; H. Environment
75248,69980-36523,69980,FE,17342,DAVID C ARBAUGH,Employer,36523,OCHIN Inc.,20-Jul,8/17/2020,35865.0,OCHIN Inc.,3000.0,0.0,3000.0,0.0,0.0,0.0,0.0,0.0,0.0,0.0,3000.0,36523.0,Direct,,,View report (https://accesshub.pdc.wa.gov/node/69980),Health Care,Health Care Information Technology,Health care information technology.
75249,70077-61599,70077,FE,47356,Streuli Public Affairs,Employer,61599,City of Sedro-Woolley,20-Jul,8/17/2020,37314.0,City of Sedro-Woolley,2000.0,0.0,2000.0,0.0,0.0,0.0,0.0,0.0,0.0,0.0,2000.0,61599.0,Direct,,,View report (https://accesshub.pdc.wa.gov/node/70077),Transportation,Transportation,"House and Senate Transportation Committees, WSDOT"
75250,70118-51921,70118,FE,17769,Cyan Strategies,Employer,51921,Forth,20-Jul,8/17/2020,38847.0,Forth,500.0,0.0,500.0,0.0,0.0,0.0,0.0,0.0,0.0,0.0,500.0,51921.0,Direct,,,View report (https://accesshub.pdc.wa.gov/node/70118),Transportation,EV issues,Transportation Committees
75251,70111-39744,70111,FE,17751,CAROLYN LOGUE,Employer,39744,Northwest HPBA,20-Jul,8/17/2020,39718.0,Northwest HPBA,11000.0,0.0,11000.0,0.0,0.0,0.0,0.0,0.0,0.0,0.0,11000.0,39744.0,Direct,,,View report (https://accesshub.pdc.wa.gov/node/70111),Energy and utilities,Gas Appliance and Energy Issues,"Environment and Energy Committees, Commerce, Ecology, Building Code Council"
75252,70120-53011,70120,FE,50854,Maud Daudon,Employer,53011,Seattle Foundation,20-Jul,8/17/2020,47254.0,Seattle Foundation,1000.0,0.0,1000.0,0.0,0.0,0.0,0.0,0.0,0.0,0.0,1000.0,53011.0,Direct,,,View report (https://accesshub.pdc.wa.gov/node/70120),Education,HB 2158,Rep Stokesbary re: State's Economic Recovery; Representative Slatter re: State's Economic Recovery
75253,70114-48623,70114,FE,27426,Peggen & Mara Political Consulting LLP,Employer,48623,EDELSON PC,20-Jul,8/17/2020,48622.0,EDELSON PC,5833.0,0.0,5833.0,0.0,0.0,0.0,0.0,0.0,0.0,0.0,5833.0,48623.0,Direct,,,View report (https://accesshub.pdc.wa.gov/node/70114),Business and consumer affairs,consumer affairs,"Sens Billig, King, Salomon, Wagoner, Saldana, Das, Stanford, Van de Wege, Pedersen, Hasegawa; Reps Hudgins, Blake, Kloba, Hanson, Jenkin, Kilduff"
75254,70112-50274,70112,FE,17991,MELANIE STEWART & ASSOC LLC*,Employer,50274,Juul Labs Inc.,20-Jul,8/17/2020,49226.0,Juul Labs Inc.,4000.0,0.0,4000.0,0.0,0.0,0.0,0.0,0.0,0.0,0.0,4000.0,50274.0,Direct,,,View report (https://accesshub.pdc.wa.gov/node/70112),,,
75257,70077-52519,70077,FE,47356,Streuli Public Affairs,Employer,52519,Northwest Resources II Inc,20-Jul,8/17/2020,52518.0,Northwest Resources II Inc,500.0,0.0,500.0,0.0,0.0,0.0,0.0,0.0,0.0,0.0,500.0,52519.0,Direct,,,View report (https://accesshub.pdc.wa.gov/node/70077),Health Care,SUD Providers,Various Legislative Committees and State Agencies
75259,70108-54814,70108,FE,17453,Bill Clarke,Employer,54814,Kittitas Reclamation District,20-Jul,8/17/2020,54813.0,Kittitas Reclamation District,4000.0,0.0,4000.0,100.0,0.0,0.0,0.0,0.0,0.0,100.0,4100.0,54814.0,Direct,,,View report (https://accesshub.pdc.wa.gov/node/70108),Environmental Affairs - natural resources - parks,Water Resources,H. Capital Budget; S. Ways & Means; H. Ag & Natural Resources; S. Ag Water & Natural Resources
75260,70106-68183,70106,FE,48411,Ashley Sutton,Employer,68183,Merit International Inc. (Lodestar Strategic LLC),20-Jul,8/17/2020,56993.0,Merit International Inc.,2500.0,0.0,2500.0,0.0,0.0,0.0,0.0,0.0,0.0,0.0,2500.0,68183.0,Subcontract,51590.0,Lodestar Strategic LLC,View report (https://accesshub.pdc.wa.gov/node/70106),,,
75261,70118-62570,70118,FE,17769,Cyan Strategies,Employer,62570,Sustainable Living Innovations,20-Jul,8/17/2020,62512.0,Sustainable Living Innovations,2500.0,0.0,2500.0,0.0,0.0,0.0,0.0,0.0,0.0,0.0,2500.0,62570.0,Direct,,,View report (https://accesshub.pdc.wa.gov/node/70118),Human services,MFTE,"Housing Committees, Finance, Ways and Means"
75262,69586-62583,69586,FE,17813,MILLENNIA PUBLIC AFFAIRS INC*,Employer,62583,Philips North America,20-Jul,8/17/2020,62582.0,Philips North America,6000.0,0.0,6000.0,0.0,0.0,0.0,0.0,0.0,0.0,0.0,6000.0,62583.0,Direct,,,View report (https://accesshub.pdc.wa.gov/node/69586),Business and consumer affairs,Health Care Business Privacy,All House Senate
75263,70106-67802,70106,FE,48411,Ashley Sutton,Employer,67802,Washington Schools Risk Management Pool,20-Jul,8/17/2020,62667.0,Washington Schools Risk Management Pool,3000.0,0.0,3000.0,0.0,0.0,0.0,0.0,0.0,0.0,0.0,3000.0,67802.0,Direct,,,View report (https://accesshub.pdc.wa.gov/node/70106),Financial institutions and insurance,"School safety, insurance risk",Members of the House and Senate
75264,70114-63574,70114,FE,27426,Peggen & Mara Political Consulting LLP,Employer,63574,Nez Perce Tribe,20-Jul,8/17/2020,63272.0,Nez Perce Tribe,3500.0,0.0,3500.0,0.0,0.0,0.0,0.0,0.0,0.0,0.0,3500.0,63574.0,Direct,,,View report (https://accesshub.pdc.wa.gov/node/70114),,,
75265,69463-18251,69463,FE,17393,Bogard & Johnson LLC,Employer,18251,AMERICAN EXPRESS TRAVEL RELATED SERVICES,20-Jul,8/18/2020,16102.0,AMERICAN EXPRESS TRAVEL RELATED SERVICES,2500.0,0.0,2500.0,0.0,0.0,0.0,0.0,0.0,0.0,0.0,2500.0,18251.0,Direct,,,View report (https://accesshub.pdc.wa.gov/node/69463),Financial institutions and insurance,Credit Cards,HFI; SFI
75266,70105-19656,70105,FE,17983,STAUFFACHER COMMUNICATIONS*,Employer,19656,AMERICAN TRAFFIC SOLUTIONS INC,20-Jul,8/18/2020,16124.0,AMERICAN TRAFFIC SOLUTIONS INC,4500.0,-2250.0,2250.0,0.0,0.0,0.0,0.0,0.0,0.0,0.0,2250.0,19656.0,Direct,,,View report (https://accesshub.pdc.wa.gov/node/70105),Transportation,Traffic safety cameras,House & Senate Transportation Cmtes.
75267,70105-52462,70105,FE,17983,STAUFFACHER COMMUNICATIONS*,Employer,52462,APPLE INC,20-Jul,8/18/2020,16131.0,APPLE INC,5000.0,0.0,5000.0,0.0,0.0,0.0,0.0,0.0,0.0,0.0,5000.0,52462.0,Direct,,,View report (https://accesshub.pdc.wa.gov/node/70105),,,
75268,70105-19658,70105,FE,17983,STAUFFACHER COMMUNICATIONS*,Employer,19658,BUILDING INDUSTRY ASSN OF WA,20-Jul,8/18/2020,16215.0,BUILDING INDUSTRY ASSN OF WA,6000.0,0.0,6000.0,0.0,0.0,0.0,0.0,0.0,0.0,0.0,6000.0,19658.0,Direct,,,View report (https://accesshub.pdc.wa.gov/node/70105),Local government,Schools and GMA,House Env and Sen Local Gov Committees.
75269,70105-19659,70105,FE,17983,STAUFFACHER COMMUNICATIONS*,Employer,19659,BURLINGTON NORTHERN SANTA FE RAILROAD,20-Jul,8/18/2020,16217.0,BURLINGTON NORTHERN SANTA FE RAILROAD,6250.0,0.0,6250.0,0.0,0.0,102000.0,0.0,0.0,0.0,102000.0,108250.0,19659.0,Direct,,,View report (https://accesshub.pdc.wa.gov/node/70105),Energy and utilities,Oil and coal export facilities,Senate EET Cmte; House TED Cmte.
75270,69463-18253,69463,FE,17393,Bogard & Johnson LLC,Employer,18253,WILLAMETTE DENTAL MANAGEMENT CORP,20-Jul,8/18/2020,16337.0,WILLAMETTE DENTAL MANAGEMENT CORP,1000.0,0.0,1000.0,0.0,0.0,0.0,0.0,0.0,0.0,0.0,1000.0,18253.0,Direct,,,View report (https://accesshub.pdc.wa.gov/node/69463),Health Care,Health Care,H HC; S HC
75271,70128-19639,70128,FE,17974,MELANIE J SMITH,Employer,19639,COMMITTEE FOR CHILDREN,20-Jul,8/18/2020,16347.0,COMMITTEE FOR CHILDREN,2975.0,0.0,2975.0,0.0,0.0,0.0,0.0,0.0,0.0,0.0,2975.0,19639.0,Direct,,,View report (https://accesshub.pdc.wa.gov/node/70128),Education,social emotional learning,"education, early learning, child abuse prevention"
75272,69463-18254,69463,FE,17393,Bogard & Johnson LLC,Employer,18254,COMMUNITY RESIDENTIAL SERVICES ASSN,20-Jul,8/18/2020,16350.0,COMMUNITY RESIDENTIAL SERVICES ASSN,3400.0,0.0,3400.0,0.0,0.0,0.0,0.0,0.0,0.0,0.0,3400.0,18254.0,Direct,,,View report (https://accesshub.pdc.wa.gov/node/69463),Human services,Developmental Disabilities,H Approps; S W&M; H EL&HS; S HS
75273,69463-18255,69463,FE,17393,Bogard & Johnson LLC,Employer,18255,WA STATE CONVENTION CENTER PUBLIC FACILITIES DIST,20-Jul,8/18/2020,16364.0,WA STATE CONVENTION CENTER PUBLIC FACILITIES DIST,2000.0,0.0,2000.0,0.0,0.0,0.0,0.0,0.0,0.0,0.0,2000.0,18255.0,Direct,,,View report (https://accesshub.pdc.wa.gov/node/69463),Business and consumer affairs,Hotel Taxes,S W&M; H Fin
75274,70105-19661,70105,FE,17983,STAUFFACHER COMMUNICATIONS*,Employer,19661,Centene Corporation on behalf of its affiliates and subsidiaries,20-Jul,8/18/2020,16367.0,Centene Corporation on behalf of its affiliates and subsidiaries,10000.0,0.0,10000.0,0.0,0.0,84000.0,0.0,0.0,0.0,84000.0,94000.0,19661.0,Direct,,,View report (https://accesshub.pdc.wa.gov/node/70105),Health Care,Medicaid rates; health insurer regulations and proposed legislation; HCA budget proposals.,House and Senate Health Care Cmtes; House Appropriations Cmte; Senate Ways & Means Cmte; HCA; OIC; OFM; Office of the Governor.
75275,69463-18257,69463,FE,17393,Bogard & Johnson LLC,Employer,18257,CULTURAL ACCESS WA,20-Jul,8/18/2020,16376.0,CULTURAL ACCESS WA,1000.0,0.0,1000.0,0.0,0.0,0.0,0.0,0.0,0.0,0.0,1000.0,18257.0,Direct,,,View report (https://accesshub.pdc.wa.gov/node/69463),Business and consumer affairs,Arts Funding,H CDH&TA; S WM
75276,70105-19662,70105,FE,17983,STAUFFACHER COMMUNICATIONS*,Employer,19662,DISH Network Corporation,20-Jul,8/18/2020,16390.0,DISH Network Corporation,3000.0,0.0,3000.0,0.0,0.0,0.0,0.0,0.0,0.0,0.0,3000.0,19662.0,Direct,,,View report (https://accesshub.pdc.wa.gov/node/70105),Fiscal,Taxation,House Finance Cmte; Senate Ways & Means Cmte; OFM; DOR.
75278,69463-18258,69463,FE,17393,Bogard & Johnson LLC,Employer,18258,GENERAL MOTORS LLC,20-Jul,8/18/2020,16466.0,GENERAL MOTORS LLC,6000.0,0.0,6000.0,0.0,0.0,0.0,0.0,0.0,0.0,0.0,6000.0,18258.0,Direct,,,View report (https://accesshub.pdc.wa.gov/node/69463),Environmental Affairs - natural resources - parks,"Electric Vehicles, Auto Franchies",H Env; S E&E
75279,69463-18259,69463,FE,17393,Bogard & Johnson LLC,Employer,18259,IGT GLOBAL SOLUTIONS AND ITS AFFILIATES,20-Jul,8/18/2020,16486.0,IGT GLOBAL SOLUTIONS AND ITS AFFILIATES,4000.0,0.0,4000.0,0.0,0.0,0.0,0.0,0.0,0.0,0.0,4000.0,18259.0,Direct,,,View report (https://accesshub.pdc.wa.gov/node/69463),Technology,Lottery,"WA Lottery; H ComGaming, S Com"
75280,69463-18260,69463,FE,17393,Bogard & Johnson LLC,Employer,18260,WA ST ASSN OF HEADSTART ECEAP,20-Jul,8/18/2020,16495.0,WA ST ASSN OF HEADSTART ECEAP,1200.0,0.0,1200.0,0.0,0.0,0.0,0.0,0.0,0.0,0.0,1200.0,18260.0,Direct,,,View report (https://accesshub.pdc.wa.gov/node/69463),Education,Early Learning,H EL&HS; H Approps; S W&M; H Cap B
75281,70105-19664,70105,FE,17983,STAUFFACHER COMMUNICATIONS*,Employer,19664,INDEPENDENT INS AGENTS & BROKERS OF WA,20-Jul,8/18/2020,16525.0,INDEPENDENT INS AGENTS & BROKERS OF WA,3650.0,0.0,3650.0,0.0,0.0,0.0,0.0,0.0,0.0,0.0,3650.0,19664.0,Direct,,,View report (https://accesshub.pdc.wa.gov/node/70105),Financial institutions and insurance,Property/Casualty insurance regulation; rebating and inducement issues,House Business & Financial Services Cmte; Senate Financial Institutions & Insurance Cmte; OIC.
75282,70016-25544,70016,FE,17554,DAVID S FOSTER,Employer,25544,INTERCITY TRANSIT,20-Jul,8/18/2020,16542.0,INTERCITY TRANSIT,1750.0,0.0,1750.0,0.0,0.0,0.0,0.0,0.0,0.0,0.0,1750.0,25544.0,Direct,,,View report (https://accesshub.pdc.wa.gov/node/70016),Transportation,Transit,Transportation
75283,70016-47215,70016,FE,17554,DAVID S FOSTER,Employer,47215,KING CO COUNCIL,20-Jul,8/18/2020,16575.0,KING CO COUNCIL,11000.0,-5500.0,5500.0,0.0,0.0,0.0,0.0,0.0,0.0,0.0,5500.0,47215.0,Direct,,,View report (https://accesshub.pdc.wa.gov/node/70016),Local government,Local Government,"Approps, Ways & Means, Transportation, Local Government"
75284,70133-19321,70133,FE,17825,CAREY L MORRIS,Employer,19321,LEAGUE OF EDUCATION VOTERS,20-Jul,8/18/2020,16589.0,LEAGUE OF EDUCATION VOTERS,4000.0,0.0,4000.0,0.0,0.0,0.0,0.0,0.0,0.0,0.0,4000.0,19321.0,Direct,,,View report (https://accesshub.pdc.wa.gov/node/70133),,,
75285,70105-19665,70105,FE,17983,STAUFFACHER COMMUNICATIONS*,Employer,19665,LEGACY HEALTH SYSTEM,20-Jul,8/18/2020,16592.0,LEGACY HEALTH SYSTEM,5000.0,0.0,5000.0,0.0,0.0,0.0,0.0,0.0,0.0,0.0,5000.0,19665.0,Direct,,,View report (https://accesshub.pdc.wa.gov/node/70105),Health Care,Health care budget proposals; state-federal waiver funding agreement.,House and Senate Health Care Cmtes; House Appropriations Cmte; Senate Ways & Means Cmte; HCA; OIC; OFM; Office of the Governor.
75286,70137-31249,70137,FE,31246,Scott Middleton,Employer,31249,MECHANICAL CONTRACTORS ASSN WESTERN WA,20-Jul,8/18/2020,16629.0,MECHANICAL CONTRACTORS ASSN WESTERN WA,1933.33,0.0,1933.33,0.0,0.0,0.0,0.0,0.0,0.0,0.0,1933.33,31249.0,Direct,,,View report (https://accesshub.pdc.wa.gov/node/70137),State government,Public Works,All members of legislature
75287,70128-39038,70128,FE,17974,MELANIE J SMITH,Employer,39038,NAMI WA,20-Jul,8/18/2020,16654.0,NAMI WA,1666.0,0.0,1666.0,0.0,0.0,0.0,0.0,0.0,0.0,0.0,1666.0,39038.0,Direct,,,View report (https://accesshub.pdc.wa.gov/node/70128),Health Care,Mental healthcare,healthcare
75288,70105-19667,70105,FE,17983,STAUFFACHER COMMUNICATIONS*,Employer,19667,Northwest Pulp & Paper Association,20-Jul,8/18/2020,16717.0,Northwest Pulp & Paper Association,3000.0,0.0,3000.0,0.0,0.0,0.0,0.0,0.0,0.0,0.0,3000.0,19667.0,Direct,,,View report (https://accesshub.pdc.wa.gov/node/70105),Energy and utilities,Carbon reduction proposals,House Environment Cmte; Senate EET Cmte; House TED Cmte; legislators with pulp & paper mills in their districts.
75289,69463-18263,69463,FE,17393,Bogard & Johnson LLC,Employer,18263,PROCTER & GAMBLE CO,20-Jul,8/18/2020,16814.0,PROCTER & GAMBLE CO,3583.33,0.0,3583.33,0.0,0.0,0.0,0.0,0.0,0.0,0.0,3583.33,18263.0,Direct,,,View report (https://accesshub.pdc.wa.gov/node/69463),Health Care,Product Stewardship,H Env; S Enery and Env
75290,70133-19323,70133,FE,17825,CAREY L MORRIS,Employer,19323,PROSPERITY COUNSELING & TREATMENT SERVICES INC,20-Jul,8/18/2020,16819.0,PROSPERITY COUNSELING & TREATMENT SERVICES INC,2000.0,0.0,2000.0,0.0,0.0,0.0,0.0,0.0,0.0,0.0,2000.0,19323.0,Direct,,,View report (https://accesshub.pdc.wa.gov/node/70133),Health Care,BH/SUD Provider Issues,"HCA, DOH, Health Care Committee"
75291,69463-18264,69463,FE,17393,Bogard & Johnson LLC,Employer,18264,REPUBLIC SERVICES,20-Jul,8/18/2020,16839.0,REPUBLIC SERVICES,4200.0,0.0,4200.0,0.0,0.0,0.0,0.0,0.0,0.0,0.0,4200.0,18264.0,Direct,,,View report (https://accesshub.pdc.wa.gov/node/69463),Business and consumer affairs,Solid Waste,H Env; S E and E; DOE
75292,70105-19669,70105,FE,17983,STAUFFACHER COMMUNICATIONS*,Employer,19669,Rayonier,20-Jul,8/18/2020,16841.0,Rayonier,3500.0,0.0,3500.0,0.0,0.0,23000.0,0.0,0.0,0.0,23000.0,26500.0,19669.0,Direct,,,View report (https://accesshub.pdc.wa.gov/node/70105),Fiscal,Taxation,House Finance Committee; Senate Ways & Means Committee
75293,70016-18740,70016,FE,17554,DAVID S FOSTER,Employer,18740,SEATTLE AQUARIUM SOCIETY,20-Jul,8/18/2020,16888.0,SEATTLE AQUARIUM SOCIETY,3000.0,0.0,3000.0,0.0,0.0,0.0,0.0,0.0,0.0,0.0,3000.0,18740.0,Direct,,,View report (https://accesshub.pdc.wa.gov/node/70016),Fiscal,Capital budget,"Capital Budget, Ways & Means"
75294,70128-25635,70128,FE,17974,MELANIE J SMITH,Employer,25635,MULTI-SERVICE CENTER LONG TERM CARE OMBUDSMAN PROGRAM,20-Jul,8/18/2020,16932.0,MULTI-SERVICE CENTER LONG TERM CARE OMBUDSMAN PROGRAM,792.0,0.0,792.0,0.0,0.0,0.0,0.0,0.0,0.0,0.0,792.0,25635.0,Direct,,,View report (https://accesshub.pdc.wa.gov/node/70128),Law and justice,long term care,healthcare and judiciary committees
75295,69463-18267,69463,FE,17393,Bogard & Johnson LLC,Employer,18267,WA TOURISM ALLIANCE,20-Jul,8/18/2020,16987.0,WA TOURISM ALLIANCE,4000.0,0.0,4000.0,0.0,0.0,0.0,0.0,0.0,0.0,0.0,4000.0,18267.0,Direct,,,View report (https://accesshub.pdc.wa.gov/node/69463),Business and consumer affairs,Tourism,S T & ED; H CDH&TA
75296,70134-35141,70134,FE,35140,Dawn Rains,Employer,35141,TREEHOUSE,20-Jul,8/18/2020,16992.0,TREEHOUSE,1674.85,0.0,1674.85,0.0,0.0,0.0,0.0,0.0,0.0,0.0,1674.85,35141.0,Direct,,,View report (https://accesshub.pdc.wa.gov/node/70134),Education,Education support for foster youth,"Governor Inslee; DCYF, OSPI, Sen. King, Hasegawa, Hunt, Robinson, Wellman; Reps. Dent, Senn, Stokesbary, Sullivan, Corry"
75297,70105-19671,70105,FE,17983,STAUFFACHER COMMUNICATIONS*,Employer,19671,TRUE BLUE INC,20-Jul,8/18/2020,16996.0,TRUE BLUE INC,1500.0,0.0,1500.0,0.0,0.0,0.0,0.0,0.0,0.0,0.0,1500.0,19671.0,Direct,,,View report (https://accesshub.pdc.wa.gov/node/70105),Labor,Minimum wage,"House Labor & Workforce Training Cmte; Senate Commerce, Labor and Sports Cmte."
75298,70123-32066,70123,FE,32065,Samantha Grad,Employer,32066,UNITED FOOD & COMM WRKRS # 3000,20-Jul,8/18/2020,17005.0,UNITED FOOD & COMM WRKRS # 3000,2575.2,0.0,2575.2,0.0,0.0,0.0,0.0,0.0,0.0,0.0,2575.2,32066.0,Direct,,,View report (https://accesshub.pdc.wa.gov/node/70123),Labor,labor policies,"Legislature, ESD, LNI, DOH, Gov"
75299,69463-29484,69463,FE,17393,Bogard & Johnson LLC,Employer,29484,Life Science Washington,20-Jul,8/18/2020,17063.0,Life Science Washington,4000.0,0.0,4000.0,0.0,0.0,0.0,0.0,0.0,0.0,0.0,4000.0,29484.0,Direct,,,View report (https://accesshub.pdc.wa.gov/node/69463),Health Care,"workforce, UW Bothell, pharmaceuticals","H EE, S EET, H Aprops S WM"
75300,70105-20020,70105,FE,17983,STAUFFACHER COMMUNICATIONS*,Employer,20020,WA BEER & WINE DISTRIBUTORS ASSN (CIVIC GROUP*),20-Jul,8/18/2020,17067.0,WA BEER & WINE DISTRIBUTORS ASSN,5000.0,0.0,5000.0,0.0,0.0,0.0,0.0,0.0,0.0,0.0,5000.0,20020.0,Subcontract,17450.0,CIVIC GROUP*,View report (https://accesshub.pdc.wa.gov/node/70105),,,
75301,69463-18268,69463,FE,17393,Bogard & Johnson LLC,Employer,18268,WA ASSN OF NURSE ANESTHETISTS,20-Jul,8/18/2020,17152.0,WA ASSN OF NURSE ANESTHETISTS,1400.0,0.0,1400.0,0.0,0.0,0.0,0.0,0.0,0.0,0.0,1400.0,18268.0,Direct,,,View report (https://accesshub.pdc.wa.gov/node/69463),Health Care,Health Care,H HC; S HC
75302,69617-48611,69617,FE,48604,Nicolas Garcia,Employer,48611,WA PUBLIC UTILITIES DISTS ASSN,20-Jul,8/18/2020,17176.0,WA PUBLIC UTILITIES DISTS ASSN,225.0,0.0,225.0,0.0,0.0,0.0,0.0,0.0,0.0,0.0,225.0,48611.0,Direct,,,View report (https://accesshub.pdc.wa.gov/node/69617),Energy and utilities,clean energy transformation act issues,Commerce and Governor staff
75303,69463-18269,69463,FE,17393,Bogard & Johnson LLC,Employer,18269,WSLHA,20-Jul,8/18/2020,17192.0,WSLHA,1500.0,0.0,1500.0,0.0,0.0,0.0,0.0,0.0,0.0,0.0,1500.0,18269.0,Direct,,,View report (https://accesshub.pdc.wa.gov/node/69463),Health Care,Health Care,H HC; S HC
75304,70142-19253,70142,FE,17796,JAMES MCMAHAN,Employer,19253,WA ASSN OF SHERIFFS & POLICE CHIEFS,20-Jul,8/18/2020,17196.0,WA ASSN OF SHERIFFS & POLICE CHIEFS,2786.67,0.0,2786.67,0.0,0.0,0.0,0.0,0.0,0.0,0.0,2786.67,19253.0,Direct,,,View report (https://accesshub.pdc.wa.gov/node/70142),Law and justice,"Mental Health, Mandatory Arrests,",State Legislature
75305,70143-40142,70143,FE,40141,STEVEN STRACHAN,Employer,40142,WA ASSN OF SHERIFFS & POLICE CHIEFS,20-Jul,8/18/2020,17196.0,WA ASSN OF SHERIFFS & POLICE CHIEFS,344.8,0.0,344.8,0.0,0.0,0.0,0.0,0.0,0.0,0.0,344.8,40142.0,Direct,,,View report (https://accesshub.pdc.wa.gov/node/70143),Law and justice,Mandatory Arrests,State Legislature
75306,70133-19324,70133,FE,17825,CAREY L MORRIS,Employer,19324,WA ST COALITION  AGAINST DOMESTIC VIOLENCE,20-Jul,8/18/2020,17227.0,WA ST COALITION  AGAINST DOMESTIC VIOLENCE,2309.0,0.0,2309.0,0.0,0.0,0.0,0.0,0.0,0.0,0.0,2309.0,19324.0,Direct,,,View report (https://accesshub.pdc.wa.gov/node/70133),,,
75307,69463-18270,69463,FE,17393,Bogard & Johnson LLC,Employer,18270,WA ST DESTINATION MARKETING ORGANIZATIONS ASSN,20-Jul,8/18/2020,17237.0,WA ST DESTINATION MARKETING ORGANIZATIONS ASSN,1600.0,0.0,1600.0,0.0,0.0,0.0,0.0,0.0,0.0,0.0,1600.0,18270.0,Direct,,,View report (https://accesshub.pdc.wa.gov/node/69463),Business and consumer affairs,Tourism,S T & ED; H CDH&TA
75308,69463-18271,69463,FE,17393,Bogard & Johnson LLC,Employer,18271,WA ST DENTAL HYGIENISTS ASSN,20-Jul,8/18/2020,17241.0,WA ST DENTAL HYGIENISTS ASSN,2675.0,0.0,2675.0,0.0,0.0,0.0,0.0,0.0,0.0,0.0,2675.0,18271.0,Direct,,,View report (https://accesshub.pdc.wa.gov/node/69463),Health Care,Health Care,H HC; S HC
75309,69463-18272,69463,FE,17393,Bogard & Johnson LLC,Employer,18272,WA ST NURSES ASSN,20-Jul,8/18/2020,17265.0,WA ST NURSES ASSN,3200.0,0.0,3200.0,0.0,0.0,0.0,0.0,0.0,0.0,0.0,3200.0,18272.0,Direct,,,View report (https://accesshub.pdc.wa.gov/node/69463),,,
75310,70128-60575,70128,FE,17974,MELANIE J SMITH,Employer,60575,WA ST PSYCHOLOGICAL ASSN,20-Jul,8/18/2020,17269.0,WA ST PSYCHOLOGICAL ASSN,1000.0,0.0,1000.0,0.0,0.0,0.0,0.0,0.0,0.0,0.0,1000.0,60575.0,Direct,,,View report (https://accesshub.pdc.wa.gov/node/70128),Health Care,mental health,healthcare committees
75311,69463-18273,69463,FE,17393,Bogard & Johnson LLC,Employer,18273,PHYSICAL THERAPY ASSN OF WA,20-Jul,8/18/2020,17279.0,PHYSICAL THERAPY ASSN OF WA,5222.29,0.0,5222.29,0.0,0.0,0.0,0.0,0.0,0.0,0.0,5222.29,18273.0,Direct,,,View report (https://accesshub.pdc.wa.gov/node/69463),Health Care,Health Care,H HC; S HC; H Ed; S Ed
75312,70128-24482,70128,FE,17974,MELANIE J SMITH,Employer,24482,WA ST SOCIETY FOR CLINICAL SOCIAL WORK,20-Jul,8/18/2020,17284.0,WA ST SOCIETY FOR CLINICAL SOCIAL WORK,900.0,0.0,900.0,0.0,0.0,0.0,0.0,0.0,0.0,0.0,900.0,24482.0,Direct,,,View report (https://accesshub.pdc.wa.gov/node/70128),,,
75313,70128-19644,70128,FE,17974,MELANIE J SMITH,Employer,19644,WELLSPRING FAMILY SERVICES,20-Jul,8/18/2020,17297.0,WELLSPRING FAMILY SERVICES,1150.0,0.0,1150.0,0.0,0.0,0.0,0.0,0.0,0.0,0.0,1150.0,19644.0,Direct,,,View report (https://accesshub.pdc.wa.gov/node/70128),Human services,early learning and human services,"human services, early learning"
