,id,report_number,origin,filer_id,filer_name,type,funding_source_id,funding_source_name,filing_period,receipt_date,employer_id,employer_name,compensation,sub_lobbyist_compensation,net_compensation,personal_expenses,entertainment,contributions,advertising,political_ads,other,total_expenses,net_total,employment_registration_id,employment_type,contractor_id,contractor_name,url,legislation_subject_matter,issue_bill_number,committee_lobbied
65000,59086-18865,59086,FE,17581,GORDON THOMAS HONEYWELL GOV AFFAIRS*,Employer,18865,WA ASSN OF WHEAT GROWERS,19-Sep,2/21/2020,17209.0,WA ASSN OF WHEAT GROWERS,4250.0,0.0,4250.0,0.0,0.0,0.0,0.0,0.0,0.0,0.0,4250.0,18865.0,Direct,,,View report (https://accesshub.pdc.wa.gov/node/59086),Agriculture,,legislature
65001,60056-18865,60056,FE,17581,GORDON THOMAS HONEYWELL GOV AFFAIRS*,Employer,18865,WA ASSN OF WHEAT GROWERS,19-Oct,2/21/2020,17209.0,WA ASSN OF WHEAT GROWERS,4250.0,0.0,4250.0,993.38,0.0,0.0,0.0,0.0,0.0,993.38,5243.38,18865.0,Direct,,,View report (https://accesshub.pdc.wa.gov/node/60056),Agriculture,,legislature
65002,64013-18865,64013,FE,17581,GORDON THOMAS HONEYWELL GOV AFFAIRS*,Employer,18865,WA ASSN OF WHEAT GROWERS,20-Jan,2/21/2020,17209.0,WA ASSN OF WHEAT GROWERS,4250.0,0.0,4250.0,0.0,3335.66,0.0,0.0,0.0,0.0,3335.66,7585.66,18865.0,Direct,,,View report (https://accesshub.pdc.wa.gov/node/64013),Agriculture,,legislature
65003,58922-19815,58922,FE,18043,THE TSB GROUP*,Employer,19815,WA ST POTATO COMMISSION,19-Sep,2/21/2020,17273.0,WA ST POTATO COMMISSION,5416.66,0.0,5416.66,87.32,0.0,0.0,0.0,0.0,0.0,87.32,5503.98,19815.0,Direct,,,View report (https://accesshub.pdc.wa.gov/node/58922),Agriculture,Climate & Water Policy,"Senate Ag, Water, Natural Resources & Parks; House Rural Development, Agriculture, & Natural Resources; Office of the Governor; Agriculture; Natural Resources; Ecology"
65004,61749-19815,61749,FE,18043,THE TSB GROUP*,Employer,19815,WA ST POTATO COMMISSION,19-Dec,2/21/2020,17273.0,WA ST POTATO COMMISSION,5416.66,0.0,5416.66,12.18,0.0,0.0,0.0,0.0,0.0,12.18,5428.84,19815.0,Direct,,,View report (https://accesshub.pdc.wa.gov/node/61749),Agriculture,Climate & Water Policy,"Senate Ag, Water, Natural Resources & Parks; House Rural Development, Agriculture, & Natural Resources; Office of the Governor; Agriculture; Natural Resources; Ecology"
65005,64892-19815,64892,FE,18043,THE TSB GROUP*,Employer,19815,WA ST POTATO COMMISSION,20-Jan,2/21/2020,17273.0,WA ST POTATO COMMISSION,5416.66,0.0,5416.66,89.43,0.0,0.0,0.0,0.0,0.0,89.43,5506.09,19815.0,Direct,,,View report (https://accesshub.pdc.wa.gov/node/64892),Agriculture,Climate & Water Policy,"Senate Ag, Water, Natural Resources & Parks; House Rural Development, Agriculture, & Natural Resources; Office of the Governor; Agriculture; Natural Resources; Ecology"
65007,60056-47229,60056,FE,17581,GORDON THOMAS HONEYWELL GOV AFFAIRS*,Employer,47229,Western Governors University,19-Oct,2/21/2020,17299.0,Western Governors University,4000.0,0.0,4000.0,0.0,0.0,0.0,0.0,0.0,0.0,0.0,4000.0,47229.0,Direct,,,View report (https://accesshub.pdc.wa.gov/node/60056),,,
65008,64013-47229,64013,FE,17581,GORDON THOMAS HONEYWELL GOV AFFAIRS*,Employer,47229,Western Governors University,20-Jan,2/21/2020,17299.0,Western Governors University,4000.0,0.0,4000.0,0.0,0.0,0.0,0.0,0.0,0.0,0.0,4000.0,47229.0,Direct,,,View report (https://accesshub.pdc.wa.gov/node/64013),Education,"operating budget, higher education, education",legislature
65009,59086-18866,59086,FE,17581,GORDON THOMAS HONEYWELL GOV AFFAIRS*,Employer,18866,YAKIMA CO,19-Sep,2/21/2020,17320.0,YAKIMA CO,4500.0,0.0,4500.0,0.0,0.0,0.0,0.0,0.0,0.0,0.0,4500.0,18866.0,Direct,,,View report (https://accesshub.pdc.wa.gov/node/59086),Local government,"local law enforcement, budget requests, land use, tribal, human services, fiscal",legislature
65010,60056-18866,60056,FE,17581,GORDON THOMAS HONEYWELL GOV AFFAIRS*,Employer,18866,YAKIMA CO,19-Oct,2/21/2020,17320.0,YAKIMA CO,4500.0,0.0,4500.0,0.0,0.0,0.0,0.0,0.0,0.0,0.0,4500.0,18866.0,Direct,,,View report (https://accesshub.pdc.wa.gov/node/60056),Local government,"local law enforcement, budget requests, land use, tribal, human services, fiscal",legislature
65011,64013-18866,64013,FE,17581,GORDON THOMAS HONEYWELL GOV AFFAIRS*,Employer,18866,YAKIMA CO,20-Jan,2/21/2020,17320.0,YAKIMA CO,4500.0,0.0,4500.0,0.0,0.0,0.0,0.0,0.0,0.0,0.0,4500.0,18866.0,Direct,,,View report (https://accesshub.pdc.wa.gov/node/64013),Local government,"local law enforcement, budget requests, land use, tribal, human services, fiscal",legislature
65012,59086-25018,59086,FE,17581,GORDON THOMAS HONEYWELL GOV AFFAIRS*,Employer,25018,SSMCP,19-Sep,2/21/2020,24910.0,SSMCP,2916.67,0.0,2916.67,0.0,0.0,0.0,0.0,0.0,0.0,0.0,2916.67,25018.0,Direct,,,View report (https://accesshub.pdc.wa.gov/node/59086),Local government,,Legislature
65013,60056-25018,60056,FE,17581,GORDON THOMAS HONEYWELL GOV AFFAIRS*,Employer,25018,SSMCP,19-Oct,2/21/2020,24910.0,SSMCP,2916.67,0.0,2916.67,0.0,0.0,0.0,0.0,0.0,0.0,0.0,2916.67,25018.0,Direct,,,View report (https://accesshub.pdc.wa.gov/node/60056),Local government,,Legislature
65014,64013-25018,64013,FE,17581,GORDON THOMAS HONEYWELL GOV AFFAIRS*,Employer,25018,SSMCP,20-Jan,2/21/2020,24910.0,SSMCP,2916.67,0.0,2916.67,0.0,0.0,0.0,0.0,0.0,0.0,0.0,2916.67,25018.0,Direct,,,View report (https://accesshub.pdc.wa.gov/node/64013),Local government,,Legislature
65015,59086-26833,59086,FE,17581,GORDON THOMAS HONEYWELL GOV AFFAIRS*,Employer,26833,STACS DNA Inc,19-Sep,2/21/2020,26832.0,STACS DNA Inc,500.0,0.0,500.0,0.0,0.0,0.0,0.0,0.0,0.0,0.0,500.0,26833.0,Direct,,,View report (https://accesshub.pdc.wa.gov/node/59086),State government,DNA rape kit tracking,legislature
65016,60056-26833,60056,FE,17581,GORDON THOMAS HONEYWELL GOV AFFAIRS*,Employer,26833,STACS DNA Inc,19-Oct,2/21/2020,26832.0,STACS DNA Inc,500.0,0.0,500.0,0.0,0.0,0.0,0.0,0.0,0.0,0.0,500.0,26833.0,Direct,,,View report (https://accesshub.pdc.wa.gov/node/60056),State government,DNA rape kit tracking,legislature
65017,64013-26833,64013,FE,17581,GORDON THOMAS HONEYWELL GOV AFFAIRS*,Employer,26833,STACS DNA Inc,20-Jan,2/21/2020,26832.0,STACS DNA Inc,500.0,0.0,500.0,0.0,0.0,0.0,0.0,0.0,0.0,0.0,500.0,26833.0,Direct,,,View report (https://accesshub.pdc.wa.gov/node/64013),State government,DNA rape kit tracking,legislature
65019,59086-28692,59086,FE,17581,GORDON THOMAS HONEYWELL GOV AFFAIRS*,Employer,28692,Benton County Commissioners,19-Sep,2/21/2020,28679.0,Benton County Commissioners,3000.0,0.0,3000.0,0.0,0.0,0.0,0.0,0.0,0.0,0.0,3000.0,28692.0,Direct,,,View report (https://accesshub.pdc.wa.gov/node/59086),Local government,"local law enforcement, budget requests, land use, tribal, human services, fiscal",legislature
65020,60056-28692,60056,FE,17581,GORDON THOMAS HONEYWELL GOV AFFAIRS*,Employer,28692,Benton County Commissioners,19-Oct,2/21/2020,28679.0,Benton County Commissioners,3000.0,0.0,3000.0,0.0,0.0,0.0,0.0,0.0,0.0,0.0,3000.0,28692.0,Direct,,,View report (https://accesshub.pdc.wa.gov/node/60056),Local government,"local law enforcement, budget requests, land use, tribal, human services, fiscal",legislature
65021,64013-28692,64013,FE,17581,GORDON THOMAS HONEYWELL GOV AFFAIRS*,Employer,28692,Benton County Commissioners,20-Jan,2/21/2020,28679.0,Benton County Commissioners,3000.0,0.0,3000.0,0.0,0.0,0.0,0.0,0.0,0.0,0.0,3000.0,28692.0,Direct,,,View report (https://accesshub.pdc.wa.gov/node/64013),Local government,"local law enforcement, budget requests, land use, tribal, human services, fiscal",legislature
65022,59086-29154,59086,FE,17581,GORDON THOMAS HONEYWELL GOV AFFAIRS*,Employer,29154,Cerner Corporation,19-Sep,2/21/2020,29139.0,Cerner Corporation,5000.0,0.0,5000.0,0.0,0.0,0.0,0.0,0.0,0.0,0.0,5000.0,29154.0,Direct,,,View report (https://accesshub.pdc.wa.gov/node/59086),Technology,technology,legislature
65023,60056-29154,60056,FE,17581,GORDON THOMAS HONEYWELL GOV AFFAIRS*,Employer,29154,Cerner Corporation,19-Oct,2/21/2020,29139.0,Cerner Corporation,5000.0,0.0,5000.0,0.0,0.0,0.0,0.0,0.0,0.0,0.0,5000.0,29154.0,Direct,,,View report (https://accesshub.pdc.wa.gov/node/60056),Technology,technology,legislature
65024,64013-29154,64013,FE,17581,GORDON THOMAS HONEYWELL GOV AFFAIRS*,Employer,29154,Cerner Corporation,20-Jan,2/21/2020,29139.0,Cerner Corporation,5000.0,0.0,5000.0,0.0,0.0,0.0,0.0,0.0,0.0,0.0,5000.0,29154.0,Direct,,,View report (https://accesshub.pdc.wa.gov/node/64013),Technology,technology,legislature
65026,59086-34690,59086,FE,17581,GORDON THOMAS HONEYWELL GOV AFFAIRS*,Employer,34690,City of Blaine,19-Sep,2/21/2020,34689.0,City of Blaine,2500.0,0.0,2500.0,0.0,0.0,0.0,0.0,0.0,0.0,0.0,2500.0,34690.0,Direct,,,View report (https://accesshub.pdc.wa.gov/node/59086),Local government,,legislature
65027,60056-34690,60056,FE,17581,GORDON THOMAS HONEYWELL GOV AFFAIRS*,Employer,34690,City of Blaine,19-Oct,2/21/2020,34689.0,City of Blaine,2500.0,0.0,2500.0,0.0,0.0,0.0,0.0,0.0,0.0,0.0,2500.0,34690.0,Direct,,,View report (https://accesshub.pdc.wa.gov/node/60056),Local government,,legislature
65028,64013-34690,64013,FE,17581,GORDON THOMAS HONEYWELL GOV AFFAIRS*,Employer,34690,City of Blaine,20-Jan,2/21/2020,34689.0,City of Blaine,2000.0,0.0,2000.0,0.0,0.0,0.0,0.0,0.0,0.0,0.0,2000.0,34690.0,Direct,,,View report (https://accesshub.pdc.wa.gov/node/64013),Local government,,legislature
65029,59086-36753,59086,FE,17581,GORDON THOMAS HONEYWELL GOV AFFAIRS*,Employer,36753,City of Chelan,19-Sep,2/21/2020,36666.0,City of Chelan,3000.0,0.0,3000.0,0.0,0.0,0.0,0.0,0.0,0.0,0.0,3000.0,36753.0,Direct,,,View report (https://accesshub.pdc.wa.gov/node/59086),Local government,"fiscal, local, energy, utility,other",legislature
65030,60056-36753,60056,FE,17581,GORDON THOMAS HONEYWELL GOV AFFAIRS*,Employer,36753,City of Chelan,19-Oct,2/21/2020,36666.0,City of Chelan,3000.0,0.0,3000.0,0.0,0.0,0.0,0.0,0.0,0.0,0.0,3000.0,36753.0,Direct,,,View report (https://accesshub.pdc.wa.gov/node/60056),Local government,"fiscal, local, energy, utility,other",legislature
65031,59086-37814,59086,FE,17581,GORDON THOMAS HONEYWELL GOV AFFAIRS*,Employer,37814,City Of Othello,19-Sep,2/21/2020,37808.0,City Of Othello,6600.0,0.0,6600.0,0.0,0.0,0.0,0.0,0.0,0.0,0.0,6600.0,37814.0,Direct,,,View report (https://accesshub.pdc.wa.gov/node/59086),Local government,,legislature
65032,60056-37814,60056,FE,17581,GORDON THOMAS HONEYWELL GOV AFFAIRS*,Employer,37814,City Of Othello,19-Oct,2/21/2020,37808.0,City Of Othello,6600.0,0.0,6600.0,0.0,0.0,0.0,0.0,0.0,0.0,0.0,6600.0,37814.0,Direct,,,View report (https://accesshub.pdc.wa.gov/node/60056),Local government,,legislature
65033,64013-37814,64013,FE,17581,GORDON THOMAS HONEYWELL GOV AFFAIRS*,Employer,37814,City Of Othello,20-Jan,2/21/2020,37808.0,City Of Othello,3630.0,0.0,3630.0,0.0,0.0,0.0,0.0,0.0,0.0,0.0,3630.0,37814.0,Direct,,,View report (https://accesshub.pdc.wa.gov/node/64013),Local government,,legislature
65034,54912-50020,54912,FE,17521,EMILY MURPHY STRATEGIES LLC*,Employer,50020,Conservation NW (The Arledge Group),19-Apr,2/21/2020,38071.0,Conservation NW,1500.0,0.0,1500.0,0.0,0.0,0.0,0.0,0.0,0.0,0.0,1500.0,50020.0,Subcontract,37395.0,The Arledge Group,View report (https://accesshub.pdc.wa.gov/node/54912),,,
65035,59086-39866,59086,FE,17581,GORDON THOMAS HONEYWELL GOV AFFAIRS*,Employer,39866,FIRST Washington,19-Sep,2/21/2020,39865.0,FIRST Washington,2900.0,0.0,2900.0,0.0,0.0,0.0,0.0,0.0,0.0,0.0,2900.0,39866.0,Direct,,,View report (https://accesshub.pdc.wa.gov/node/59086),Technology,miscell,Legislature
65036,60056-39866,60056,FE,17581,GORDON THOMAS HONEYWELL GOV AFFAIRS*,Employer,39866,FIRST Washington,19-Oct,2/21/2020,39865.0,FIRST Washington,2900.0,0.0,2900.0,0.0,0.0,0.0,0.0,0.0,0.0,0.0,2900.0,39866.0,Direct,,,View report (https://accesshub.pdc.wa.gov/node/60056),Technology,miscell,Legislature
65037,64013-39866,64013,FE,17581,GORDON THOMAS HONEYWELL GOV AFFAIRS*,Employer,39866,FIRST Washington,20-Jan,2/21/2020,39865.0,FIRST Washington,2900.0,0.0,2900.0,0.0,0.0,0.0,0.0,0.0,0.0,0.0,2900.0,39866.0,Direct,,,View report (https://accesshub.pdc.wa.gov/node/64013),Technology,miscell,Legislature
65038,51123-39990,51123,FE,17407,Martin Flynn Public Affairs Inc,Employer,39990,Washington State Investment Board,19-Jan,2/21/2020,39985.0,Washington State Investment Board,4000.0,0.0,4000.0,0.0,0.0,0.0,0.0,0.0,0.0,0.0,4000.0,39990.0,Direct,,,View report (https://accesshub.pdc.wa.gov/node/51123),Fiscal,Fiscal,Fiscal Committees
65039,64013-46229,64013,FE,17581,GORDON THOMAS HONEYWELL GOV AFFAIRS*,Employer,46229,"Dun & Bradstreet, Inc.",20-Jan,2/21/2020,46228.0,"Dun & Bradstreet, Inc.",2500.0,0.0,2500.0,0.0,0.0,0.0,0.0,0.0,0.0,0.0,2500.0,46229.0,Direct,,,View report (https://accesshub.pdc.wa.gov/node/64013),State government,"workforce, tax, econ devel, software, operating budget",legislature
65040,59086-46254,59086,FE,17581,GORDON THOMAS HONEYWELL GOV AFFAIRS*,Employer,46254,City of Bothell,19-Sep,2/21/2020,46253.0,City of Bothell,4500.0,0.0,4500.0,0.0,0.0,0.0,0.0,0.0,0.0,0.0,4500.0,46254.0,Direct,,,View report (https://accesshub.pdc.wa.gov/node/59086),Local government,"Transportation; Econ Dev, Local Law enforcment, Streamlined sales tax mitigation, other local gov issues",Legislature
65041,60056-46254,60056,FE,17581,GORDON THOMAS HONEYWELL GOV AFFAIRS*,Employer,46254,City of Bothell,19-Oct,2/21/2020,46253.0,City of Bothell,4500.0,0.0,4500.0,0.0,0.0,0.0,0.0,0.0,0.0,0.0,4500.0,46254.0,Direct,,,View report (https://accesshub.pdc.wa.gov/node/60056),Local government,"Transportation; Econ Dev, Local Law enforcment, Streamlined sales tax mitigation, other local gov issues",Legislature
65042,64013-46254,64013,FE,17581,GORDON THOMAS HONEYWELL GOV AFFAIRS*,Employer,46254,City of Bothell,20-Jan,2/21/2020,46253.0,City of Bothell,4635.0,0.0,4635.0,0.0,0.0,0.0,0.0,0.0,0.0,0.0,4635.0,46254.0,Direct,,,View report (https://accesshub.pdc.wa.gov/node/64013),Local government,"Transportation; Econ Dev, Local Law enforcment, Streamlined sales tax mitigation, other local gov issues",Legislature
65043,51123-46392,51123,FE,17407,Martin Flynn Public Affairs Inc,Employer,46392,Detente Management,19-Jan,2/21/2020,46391.0,Detente Management,1000.0,-2000.0,-1000.0,0.0,0.0,0.0,0.0,0.0,0.0,0.0,-1000.0,46392.0,Direct,,,View report (https://accesshub.pdc.wa.gov/node/51123),Business and consumer affairs,Real Estate,"Senate Commerce and Labor, House Commerce"
65044,59086-48523,59086,FE,17581,GORDON THOMAS HONEYWELL GOV AFFAIRS*,Employer,48523,Port of Allyn,19-Sep,2/21/2020,48241.0,Port of Allyn,2378.0,0.0,2378.0,0.0,0.0,0.0,0.0,0.0,0.0,0.0,2378.0,48523.0,Direct,,,View report (https://accesshub.pdc.wa.gov/node/59086),State government,,legislature
65045,60056-48523,60056,FE,17581,GORDON THOMAS HONEYWELL GOV AFFAIRS*,Employer,48523,Port of Allyn,19-Oct,2/21/2020,48241.0,Port of Allyn,2378.0,0.0,2378.0,0.0,0.0,0.0,0.0,0.0,0.0,0.0,2378.0,48523.0,Direct,,,View report (https://accesshub.pdc.wa.gov/node/60056),State government,,legislature
65046,64013-48523,64013,FE,17581,GORDON THOMAS HONEYWELL GOV AFFAIRS*,Employer,48523,Port of Allyn,20-Jan,2/21/2020,48241.0,Port of Allyn,2378.0,0.0,2378.0,0.0,0.0,0.0,0.0,0.0,0.0,0.0,2378.0,48523.0,Direct,,,View report (https://accesshub.pdc.wa.gov/node/64013),State government,,legislature
65047,59086-50448,59086,FE,17581,GORDON THOMAS HONEYWELL GOV AFFAIRS*,Employer,50448,City of Battle Ground,19-Sep,2/21/2020,50162.0,City of Battle Ground,3000.0,0.0,3000.0,0.0,0.0,0.0,0.0,0.0,0.0,0.0,3000.0,50448.0,Direct,,,View report (https://accesshub.pdc.wa.gov/node/59086),Local government,Local government,Legislature
65048,60056-50448,60056,FE,17581,GORDON THOMAS HONEYWELL GOV AFFAIRS*,Employer,50448,City of Battle Ground,19-Oct,2/21/2020,50162.0,City of Battle Ground,3000.0,0.0,3000.0,0.0,0.0,0.0,0.0,0.0,0.0,0.0,3000.0,50448.0,Direct,,,View report (https://accesshub.pdc.wa.gov/node/60056),Local government,Local government,Legislature
65049,64013-50448,64013,FE,17581,GORDON THOMAS HONEYWELL GOV AFFAIRS*,Employer,50448,City of Battle Ground,20-Jan,2/21/2020,50162.0,City of Battle Ground,6000.0,0.0,6000.0,0.0,0.0,0.0,0.0,0.0,0.0,0.0,6000.0,50448.0,Direct,,,View report (https://accesshub.pdc.wa.gov/node/64013),Local government,Local government,Legislature
65050,59086-50392,59086,FE,17581,GORDON THOMAS HONEYWELL GOV AFFAIRS*,Employer,50392,Port of Longview,19-Sep,2/21/2020,50347.0,Port of Longview,4000.0,0.0,4000.0,0.0,0.0,9.28,0.0,0.0,0.0,9.28,4009.28,50392.0,Direct,,,View report (https://accesshub.pdc.wa.gov/node/59086),Transportation,transportation,Legislature
65051,60056-50392,60056,FE,17581,GORDON THOMAS HONEYWELL GOV AFFAIRS*,Employer,50392,Port of Longview,19-Oct,2/21/2020,50347.0,Port of Longview,4000.0,0.0,4000.0,63.22,0.0,0.0,0.0,0.0,0.0,63.22,4063.22,50392.0,Direct,,,View report (https://accesshub.pdc.wa.gov/node/60056),Transportation,transportation,Legislature
65052,64013-50392,64013,FE,17581,GORDON THOMAS HONEYWELL GOV AFFAIRS*,Employer,50392,Port of Longview,20-Jan,2/21/2020,50347.0,Port of Longview,4000.0,0.0,4000.0,0.0,0.0,0.0,0.0,0.0,0.0,0.0,4000.0,50392.0,Direct,,,View report (https://accesshub.pdc.wa.gov/node/64013),Transportation,transportation,Legislature
65053,60904-50629,60904,FE,17659,HOLLY CHISA,Employer,50629,MALLINCKRODT PHARMACEUTICALS,19-Nov,2/21/2020,50628.0,MALLINCKRODT PHARMACEUTICALS,5000.0,0.0,5000.0,0.0,0.0,0.0,0.0,0.0,0.0,0.0,5000.0,50629.0,Direct,,,View report (https://accesshub.pdc.wa.gov/node/60904),Fiscal,All issues,Legislature
65054,59086-50710,59086,FE,17581,GORDON THOMAS HONEYWELL GOV AFFAIRS*,Employer,50710,"Interise, Inc.",19-Sep,2/21/2020,50706.0,"Interise, Inc.",3000.0,0.0,3000.0,0.0,0.0,0.0,0.0,0.0,0.0,0.0,3000.0,50710.0,Direct,,,View report (https://accesshub.pdc.wa.gov/node/59086),State government,Miscell,Legislature
65055,60056-50710,60056,FE,17581,GORDON THOMAS HONEYWELL GOV AFFAIRS*,Employer,50710,"Interise, Inc.",19-Oct,2/21/2020,50706.0,"Interise, Inc.",3000.0,0.0,3000.0,0.0,0.0,0.0,0.0,0.0,0.0,0.0,3000.0,50710.0,Direct,,,View report (https://accesshub.pdc.wa.gov/node/60056),State government,Miscell,Legislature
65056,59086-50968,59086,FE,17581,GORDON THOMAS HONEYWELL GOV AFFAIRS*,Employer,50968,Skagit County,19-Sep,2/21/2020,50955.0,Skagit County,3333.33,0.0,3333.33,0.0,0.0,0.0,0.0,0.0,0.0,0.0,3333.33,50968.0,Direct,,,View report (https://accesshub.pdc.wa.gov/node/59086),Agriculture,"Capital budget request, Public safety, water, timber, agriculture, transportation, housing",Legislature
65057,60056-50968,60056,FE,17581,GORDON THOMAS HONEYWELL GOV AFFAIRS*,Employer,50968,Skagit County,19-Oct,2/21/2020,50955.0,Skagit County,3333.33,0.0,3333.33,0.0,0.0,0.0,0.0,0.0,0.0,0.0,3333.33,50968.0,Direct,,,View report (https://accesshub.pdc.wa.gov/node/60056),Agriculture,"Capital budget request, Public safety, water, timber, agriculture, transportation, housing",Legislature
65058,64013-50968,64013,FE,17581,GORDON THOMAS HONEYWELL GOV AFFAIRS*,Employer,50968,Skagit County,20-Jan,2/21/2020,50955.0,Skagit County,3333.33,0.0,3333.33,0.0,0.0,0.0,0.0,0.0,0.0,0.0,3333.33,50968.0,Direct,,,View report (https://accesshub.pdc.wa.gov/node/64013),Agriculture,"Capital budget request, Public safety, water, timber, agriculture, transportation, housing",Legislature
65059,64013-61475,64013,FE,17581,GORDON THOMAS HONEYWELL GOV AFFAIRS*,Employer,61475,"PRA Group, Inc.",20-Jan,2/21/2020,53359.0,"PRA Group, Inc.",4000.0,0.0,4000.0,0.0,0.0,0.0,0.0,0.0,0.0,0.0,4000.0,61475.0,Direct,,,View report (https://accesshub.pdc.wa.gov/node/64013),State government,multiple,legislature
65060,60904-61443,60904,FE,17659,HOLLY CHISA,Employer,61443,Receivables Management Association International,19-Nov,2/21/2020,53812.0,Receivables Management Association International,2500.0,0.0,2500.0,0.0,0.0,0.0,0.0,0.0,0.0,0.0,2500.0,61443.0,Direct,,,View report (https://accesshub.pdc.wa.gov/node/60904),,,
65061,60056-60145,60056,FE,17581,GORDON THOMAS HONEYWELL GOV AFFAIRS*,Employer,60145,"Presidio Networked Solutions Group, LLC",19-Oct,2/21/2020,60130.0,"Presidio Networked Solutions Group, LLC",3548.0,0.0,3548.0,0.0,0.0,0.0,0.0,0.0,0.0,0.0,3548.0,60145.0,Direct,,,View report (https://accesshub.pdc.wa.gov/node/60056),Business and consumer affairs,Education/Fiscal/Healthcare,Legislature
65062,64013-60145,64013,FE,17581,GORDON THOMAS HONEYWELL GOV AFFAIRS*,Employer,60145,"Presidio Networked Solutions Group, LLC",20-Jan,2/21/2020,60130.0,"Presidio Networked Solutions Group, LLC",5000.0,0.0,5000.0,0.0,0.0,0.0,0.0,0.0,0.0,0.0,5000.0,60145.0,Direct,,,View report (https://accesshub.pdc.wa.gov/node/64013),Business and consumer affairs,Education/Fiscal/Healthcare,Legislature
65063,64013-60233,64013,FE,17581,GORDON THOMAS HONEYWELL GOV AFFAIRS*,Employer,60233,Port of Pasco,20-Jan,2/21/2020,60232.0,Port of Pasco,4000.0,0.0,4000.0,0.0,0.0,0.0,0.0,0.0,0.0,0.0,4000.0,60233.0,Direct,,,View report (https://accesshub.pdc.wa.gov/node/64013),Transportation,Port issues,legislature
65064,60056-60295,60056,FE,17581,GORDON THOMAS HONEYWELL GOV AFFAIRS*,Employer,60295,"Brinderson, LLC",19-Oct,2/21/2020,60290.0,"Brinderson, LLC",1375.0,0.0,1375.0,0.0,0.0,0.0,0.0,0.0,0.0,0.0,1375.0,60295.0,Direct,,,View report (https://accesshub.pdc.wa.gov/node/60056),Labor,Labor Issues,Legislature
65065,64013-60295,64013,FE,17581,GORDON THOMAS HONEYWELL GOV AFFAIRS*,Employer,60295,"Brinderson, LLC",20-Jan,2/21/2020,60290.0,"Brinderson, LLC",5500.0,0.0,5500.0,0.0,0.0,0.0,0.0,0.0,0.0,0.0,5500.0,60295.0,Direct,,,View report (https://accesshub.pdc.wa.gov/node/64013),Labor,Labor Issues,Legislature
65066,64013-61490,64013,FE,17581,GORDON THOMAS HONEYWELL GOV AFFAIRS*,Employer,61490,North Olympic Legislative Alliance,20-Jan,2/21/2020,61477.0,North Olympic Legislative Alliance,4000.0,0.0,4000.0,0.0,0.0,0.0,0.0,0.0,0.0,0.0,4000.0,61490.0,Direct,,,View report (https://accesshub.pdc.wa.gov/node/64013),State government,?,legislature
65067,64013-62661,64013,FE,17581,GORDON THOMAS HONEYWELL GOV AFFAIRS*,Employer,62661,Island County,20-Jan,2/21/2020,62659.0,Island County,1500.0,0.0,1500.0,0.0,0.0,0.0,0.0,0.0,0.0,0.0,1500.0,62661.0,Direct,,,View report (https://accesshub.pdc.wa.gov/node/64013),Local government,local,Legislature
65068,64013-62771,64013,FE,17581,GORDON THOMAS HONEYWELL GOV AFFAIRS*,Employer,62771,"Cultural Care, Inc.",20-Jan,2/21/2020,62769.0,"Cultural Care, Inc.",4000.0,0.0,4000.0,0.0,0.0,0.0,0.0,0.0,0.0,0.0,4000.0,62771.0,Direct,,,View report (https://accesshub.pdc.wa.gov/node/64013),Labor,HB 2511 and SB 6247,Legislation providing labor protection for domestic workers (HB 2511 and SB 6247)
65069,64870-62868,64870,FE,62867,Sunrise Consulting Group,Employer,62868,Producers NW,20-Jan,2/21/2020,62865.0,Producers NW,5000.0,0.0,5000.0,0.0,0.0,0.0,0.0,0.0,0.0,0.0,5000.0,62868.0,Direct,,,View report (https://accesshub.pdc.wa.gov/node/64870),Business and consumer affairs,6632,"Commerce & Gaming, Commerce & Labor"
65070,51385-27384,51385,FE,27377,Ludeman Public Affairs,Employer,27384,Chubb (GANO & ASSOC*),19-Jan,2/22/2020,16063.0,Chubb,462.25,0.0,462.25,0.0,0.0,0.0,0.0,0.0,0.0,0.0,462.25,27384.0,Subcontract,17565.0,GANO & ASSOC*,View report (https://accesshub.pdc.wa.gov/node/51385),,,
65071,53403-27384,53403,FE,27377,Ludeman Public Affairs,Employer,27384,Chubb (GANO & ASSOC*),19-Feb,2/22/2020,16063.0,Chubb,462.25,0.0,462.25,0.0,0.0,0.0,0.0,0.0,0.0,0.0,462.25,27384.0,Subcontract,17565.0,GANO & ASSOC*,View report (https://accesshub.pdc.wa.gov/node/53403),,,
65072,54427-27384,54427,FE,27377,Ludeman Public Affairs,Employer,27384,Chubb (GANO & ASSOC*),19-Mar,2/22/2020,16063.0,Chubb,462.25,0.0,462.25,0.0,0.0,0.0,0.0,0.0,0.0,0.0,462.25,27384.0,Subcontract,17565.0,GANO & ASSOC*,View report (https://accesshub.pdc.wa.gov/node/54427),,,
65073,50377-19207,50377,FE,17779,MCBRIDE PUBLIC AFFAIRS LLC*,Employer,19207,"Elevance Health, and its Affiliates",19-Jan,2/22/2020,16107.0,"Elevance Health, and its Affiliates",5000.0,0.0,5000.0,0.0,0.0,0.0,0.0,0.0,0.0,0.0,5000.0,19207.0,Direct,,,View report (https://accesshub.pdc.wa.gov/node/50377),Human services,Medicaid,HEALTH CARE BUDGET HUMAN SERVICES
65074,52925-19207,52925,FE,17779,MCBRIDE PUBLIC AFFAIRS LLC*,Employer,19207,"Elevance Health, and its Affiliates",19-Feb,2/22/2020,16107.0,"Elevance Health, and its Affiliates",5000.0,0.0,5000.0,0.0,0.0,0.0,0.0,0.0,0.0,0.0,5000.0,19207.0,Direct,,,View report (https://accesshub.pdc.wa.gov/node/52925),Human services,Medicaid,HEALTH CARE BUDGET HUMAN SERVICES
65075,54158-19207,54158,FE,17779,MCBRIDE PUBLIC AFFAIRS LLC*,Employer,19207,"Elevance Health, and its Affiliates",19-Mar,2/22/2020,16107.0,"Elevance Health, and its Affiliates",5000.0,0.0,5000.0,0.0,0.0,0.0,0.0,0.0,0.0,0.0,5000.0,19207.0,Direct,,,View report (https://accesshub.pdc.wa.gov/node/54158),Human services,Medicaid,HEALTH CARE BUDGET HUMAN SERVICES
65076,55054-19207,55054,FE,17779,MCBRIDE PUBLIC AFFAIRS LLC*,Employer,19207,"Elevance Health, and its Affiliates",19-Apr,2/22/2020,16107.0,"Elevance Health, and its Affiliates",5000.0,0.0,5000.0,0.0,0.0,0.0,0.0,0.0,0.0,0.0,5000.0,19207.0,Direct,,,View report (https://accesshub.pdc.wa.gov/node/55054),Human services,Medicaid,HEALTH CARE BUDGET HUMAN SERVICES
65077,55898-19207,55898,FE,17779,MCBRIDE PUBLIC AFFAIRS LLC*,Employer,19207,"Elevance Health, and its Affiliates",19-May,2/22/2020,16107.0,"Elevance Health, and its Affiliates",5000.0,0.0,5000.0,0.0,0.0,0.0,0.0,0.0,0.0,0.0,5000.0,19207.0,Direct,,,View report (https://accesshub.pdc.wa.gov/node/55898),Human services,Medicaid,HEALTH CARE BUDGET HUMAN SERVICES
65078,56077-19207,56077,FE,17779,MCBRIDE PUBLIC AFFAIRS LLC*,Employer,19207,"Elevance Health, and its Affiliates",19-Jun,2/22/2020,16107.0,"Elevance Health, and its Affiliates",5000.0,0.0,5000.0,0.0,0.0,0.0,0.0,0.0,0.0,0.0,5000.0,19207.0,Direct,,,View report (https://accesshub.pdc.wa.gov/node/56077),Human services,Medicaid,HEALTH CARE BUDGET HUMAN SERVICES
65079,57547-19207,57547,FE,17779,MCBRIDE PUBLIC AFFAIRS LLC*,Employer,19207,"Elevance Health, and its Affiliates",19-Jul,2/22/2020,16107.0,"Elevance Health, and its Affiliates",5000.0,0.0,5000.0,0.0,0.0,0.0,0.0,0.0,0.0,0.0,5000.0,19207.0,Direct,,,View report (https://accesshub.pdc.wa.gov/node/57547),Human services,Medicaid,HEALTH CARE BUDGET HUMAN SERVICES
65080,58390-19207,58390,FE,17779,MCBRIDE PUBLIC AFFAIRS LLC*,Employer,19207,"Elevance Health, and its Affiliates",19-Aug,2/22/2020,16107.0,"Elevance Health, and its Affiliates",5000.0,0.0,5000.0,0.0,0.0,0.0,0.0,0.0,0.0,0.0,5000.0,19207.0,Direct,,,View report (https://accesshub.pdc.wa.gov/node/58390),Human services,Medicaid,HEALTH CARE BUDGET HUMAN SERVICES
65081,58943-19207,58943,FE,17779,MCBRIDE PUBLIC AFFAIRS LLC*,Employer,19207,"Elevance Health, and its Affiliates",19-Sep,2/22/2020,16107.0,"Elevance Health, and its Affiliates",5000.0,0.0,5000.0,0.0,0.0,0.0,0.0,0.0,0.0,0.0,5000.0,19207.0,Direct,,,View report (https://accesshub.pdc.wa.gov/node/58943),Human services,Medicaid,HEALTH CARE BUDGET HUMAN SERVICES
65082,59789-19207,59789,FE,17779,MCBRIDE PUBLIC AFFAIRS LLC*,Employer,19207,"Elevance Health, and its Affiliates",19-Oct,2/22/2020,16107.0,"Elevance Health, and its Affiliates",5000.0,0.0,5000.0,0.0,0.0,0.0,0.0,0.0,0.0,0.0,5000.0,19207.0,Direct,,,View report (https://accesshub.pdc.wa.gov/node/59789),Human services,Medicaid,HEALTH CARE BUDGET HUMAN SERVICES
65083,60735-19207,60735,FE,17779,MCBRIDE PUBLIC AFFAIRS LLC*,Employer,19207,"Elevance Health, and its Affiliates",19-Nov,2/22/2020,16107.0,"Elevance Health, and its Affiliates",5000.0,0.0,5000.0,0.0,0.0,0.0,0.0,0.0,0.0,0.0,5000.0,19207.0,Direct,,,View report (https://accesshub.pdc.wa.gov/node/60735),Human services,Medicaid,HEALTH CARE BUDGET HUMAN SERVICES
65084,61642-19207,61642,FE,17779,MCBRIDE PUBLIC AFFAIRS LLC*,Employer,19207,"Elevance Health, and its Affiliates",19-Dec,2/22/2020,16107.0,"Elevance Health, and its Affiliates",5000.0,0.0,5000.0,0.0,0.0,0.0,0.0,0.0,0.0,0.0,5000.0,19207.0,Direct,,,View report (https://accesshub.pdc.wa.gov/node/61642),Human services,Medicaid,HEALTH CARE BUDGET HUMAN SERVICES
65085,50377-19208,50377,FE,17779,MCBRIDE PUBLIC AFFAIRS LLC*,Employer,19208,AMGEN INC,19-Jan,2/22/2020,16127.0,AMGEN INC,4500.0,0.0,4500.0,0.0,0.0,0.0,0.0,0.0,0.0,0.0,4500.0,19208.0,Direct,,,View report (https://accesshub.pdc.wa.gov/node/50377),Health Care,Health Care,HEALTH CARE TECH WAYS & MEANS
65086,52925-19208,52925,FE,17779,MCBRIDE PUBLIC AFFAIRS LLC*,Employer,19208,AMGEN INC,19-Feb,2/22/2020,16127.0,AMGEN INC,4500.0,0.0,4500.0,0.0,0.0,0.0,0.0,0.0,0.0,0.0,4500.0,19208.0,Direct,,,View report (https://accesshub.pdc.wa.gov/node/52925),Health Care,Health Care,HEALTH CARE TECH WAYS & MEANS
65087,54158-19208,54158,FE,17779,MCBRIDE PUBLIC AFFAIRS LLC*,Employer,19208,AMGEN INC,19-Mar,2/22/2020,16127.0,AMGEN INC,4500.0,0.0,4500.0,0.0,0.0,0.0,0.0,0.0,0.0,0.0,4500.0,19208.0,Direct,,,View report (https://accesshub.pdc.wa.gov/node/54158),Health Care,Health Care,HEALTH CARE TECH WAYS & MEANS
65088,55054-19208,55054,FE,17779,MCBRIDE PUBLIC AFFAIRS LLC*,Employer,19208,AMGEN INC,19-Apr,2/22/2020,16127.0,AMGEN INC,4500.0,0.0,4500.0,0.0,0.0,0.0,0.0,0.0,0.0,0.0,4500.0,19208.0,Direct,,,View report (https://accesshub.pdc.wa.gov/node/55054),Health Care,Health Care,HEALTH CARE TECH WAYS & MEANS
65089,55898-19208,55898,FE,17779,MCBRIDE PUBLIC AFFAIRS LLC*,Employer,19208,AMGEN INC,19-May,2/22/2020,16127.0,AMGEN INC,4500.0,0.0,4500.0,0.0,0.0,0.0,0.0,0.0,0.0,0.0,4500.0,19208.0,Direct,,,View report (https://accesshub.pdc.wa.gov/node/55898),Health Care,Health Care,HEALTH CARE TECH WAYS & MEANS
65090,56077-19208,56077,FE,17779,MCBRIDE PUBLIC AFFAIRS LLC*,Employer,19208,AMGEN INC,19-Jun,2/22/2020,16127.0,AMGEN INC,4500.0,0.0,4500.0,0.0,0.0,0.0,0.0,0.0,0.0,0.0,4500.0,19208.0,Direct,,,View report (https://accesshub.pdc.wa.gov/node/56077),Health Care,Health Care,HEALTH CARE TECH WAYS & MEANS
65091,57547-19208,57547,FE,17779,MCBRIDE PUBLIC AFFAIRS LLC*,Employer,19208,AMGEN INC,19-Jul,2/22/2020,16127.0,AMGEN INC,4500.0,0.0,4500.0,0.0,0.0,0.0,0.0,0.0,0.0,0.0,4500.0,19208.0,Direct,,,View report (https://accesshub.pdc.wa.gov/node/57547),Health Care,Health Care,HEALTH CARE TECH WAYS & MEANS
65092,58390-19208,58390,FE,17779,MCBRIDE PUBLIC AFFAIRS LLC*,Employer,19208,AMGEN INC,19-Aug,2/22/2020,16127.0,AMGEN INC,4500.0,0.0,4500.0,0.0,0.0,0.0,0.0,0.0,0.0,0.0,4500.0,19208.0,Direct,,,View report (https://accesshub.pdc.wa.gov/node/58390),Health Care,Health Care,HEALTH CARE TECH WAYS & MEANS
65093,58943-19208,58943,FE,17779,MCBRIDE PUBLIC AFFAIRS LLC*,Employer,19208,AMGEN INC,19-Sep,2/22/2020,16127.0,AMGEN INC,4500.0,0.0,4500.0,0.0,0.0,0.0,0.0,0.0,0.0,0.0,4500.0,19208.0,Direct,,,View report (https://accesshub.pdc.wa.gov/node/58943),Health Care,Health Care,HEALTH CARE TECH WAYS & MEANS
65094,59789-19208,59789,FE,17779,MCBRIDE PUBLIC AFFAIRS LLC*,Employer,19208,AMGEN INC,19-Oct,2/22/2020,16127.0,AMGEN INC,4500.0,0.0,4500.0,0.0,0.0,2500.0,0.0,0.0,0.0,2500.0,7000.0,19208.0,Direct,,,View report (https://accesshub.pdc.wa.gov/node/59789),Health Care,Health Care,HEALTH CARE TECH WAYS & MEANS
65095,60735-19208,60735,FE,17779,MCBRIDE PUBLIC AFFAIRS LLC*,Employer,19208,AMGEN INC,19-Nov,2/22/2020,16127.0,AMGEN INC,4500.0,0.0,4500.0,0.0,0.0,0.0,0.0,0.0,0.0,0.0,4500.0,19208.0,Direct,,,View report (https://accesshub.pdc.wa.gov/node/60735),Health Care,Health Care,HEALTH CARE TECH WAYS & MEANS
65096,61642-19208,61642,FE,17779,MCBRIDE PUBLIC AFFAIRS LLC*,Employer,19208,AMGEN INC,19-Dec,2/22/2020,16127.0,AMGEN INC,4500.0,0.0,4500.0,0.0,0.0,0.0,0.0,0.0,0.0,0.0,4500.0,19208.0,Direct,,,View report (https://accesshub.pdc.wa.gov/node/61642),Health Care,Health Care,HEALTH CARE TECH WAYS & MEANS
65097,59671-19236,59671,FE,17786,Leonard A Mc Comb,Employer,19236,ASSN OF WA PUBLIC HOSPITAL DISTRICTS,19-Sep,2/22/2020,16170.0,ASSN OF WA PUBLIC HOSPITAL DISTRICTS,4500.0,0.0,4500.0,193.05,0.0,0.0,0.0,0.0,0.0,193.05,4693.05,19236.0,Direct,,,View report (https://accesshub.pdc.wa.gov/node/59671),Health Care,OPERATING BUDGET HB 2024,APPROPRIATIONS WAYS AND MEANS FINANCE
65098,61352-19236,61352,FE,17786,Leonard A Mc Comb,Employer,19236,ASSN OF WA PUBLIC HOSPITAL DISTRICTS,19-Oct,2/22/2020,16170.0,ASSN OF WA PUBLIC HOSPITAL DISTRICTS,4500.0,0.0,4500.0,461.92,0.0,0.0,0.0,0.0,0.0,461.92,4961.92,19236.0,Direct,,,View report (https://accesshub.pdc.wa.gov/node/61352),Health Care,OPERATING BUDGET,APPROPRIATIONS WAYS AND MEANS
65099,51385-27380,51385,FE,27377,Ludeman Public Affairs,Employer,27380,AT&T SERVICES INC (GANO & ASSOC*),19-Jan,2/22/2020,16175.0,AT&T SERVICES INC,792.43,0.0,792.43,0.0,0.0,0.0,0.0,0.0,0.0,0.0,792.43,27380.0,Subcontract,17565.0,GANO & ASSOC*,View report (https://accesshub.pdc.wa.gov/node/51385),,,
65100,53403-27380,53403,FE,27377,Ludeman Public Affairs,Employer,27380,AT&T SERVICES INC (GANO & ASSOC*),19-Feb,2/22/2020,16175.0,AT&T SERVICES INC,792.43,0.0,792.43,0.0,0.0,0.0,0.0,0.0,0.0,0.0,792.43,27380.0,Subcontract,17565.0,GANO & ASSOC*,View report (https://accesshub.pdc.wa.gov/node/53403),,,
65101,54427-27380,54427,FE,27377,Ludeman Public Affairs,Employer,27380,AT&T SERVICES INC (GANO & ASSOC*),19-Mar,2/22/2020,16175.0,AT&T SERVICES INC,792.43,0.0,792.43,0.0,0.0,0.0,0.0,0.0,0.0,0.0,792.43,27380.0,Subcontract,17565.0,GANO & ASSOC*,View report (https://accesshub.pdc.wa.gov/node/54427),,,
65102,51385-27381,51385,FE,27377,Ludeman Public Affairs,Employer,27381,AVIATION TECHNICAL SERVICES INC (GANO & ASSOC*),19-Jan,2/22/2020,16179.0,AVIATION TECHNICAL SERVICES INC,529.29,0.0,529.29,0.0,0.0,0.0,0.0,0.0,0.0,0.0,529.29,27381.0,Subcontract,17565.0,GANO & ASSOC*,View report (https://accesshub.pdc.wa.gov/node/51385),,,
65103,53403-27381,53403,FE,27377,Ludeman Public Affairs,Employer,27381,AVIATION TECHNICAL SERVICES INC (GANO & ASSOC*),19-Feb,2/22/2020,16179.0,AVIATION TECHNICAL SERVICES INC,529.29,0.0,529.29,0.0,0.0,0.0,0.0,0.0,0.0,0.0,529.29,27381.0,Subcontract,17565.0,GANO & ASSOC*,View report (https://accesshub.pdc.wa.gov/node/53403),,,
65104,54427-27381,54427,FE,27377,Ludeman Public Affairs,Employer,27381,AVIATION TECHNICAL SERVICES INC (GANO & ASSOC*),19-Mar,2/22/2020,16179.0,AVIATION TECHNICAL SERVICES INC,529.29,0.0,529.29,0.0,0.0,0.0,0.0,0.0,0.0,0.0,529.29,27381.0,Subcontract,17565.0,GANO & ASSOC*,View report (https://accesshub.pdc.wa.gov/node/54427),,,
65105,54427-53307,54427,FE,27377,Ludeman Public Affairs,Employer,53307,AVISTA CORP (GANO & ASSOC*),19-Mar,2/22/2020,16180.0,AVISTA CORP,5000.0,0.0,5000.0,0.0,0.0,0.0,0.0,0.0,0.0,0.0,5000.0,53307.0,Subcontract,17565.0,GANO & ASSOC*,View report (https://accesshub.pdc.wa.gov/node/54427),,,
65106,50377-19210,50377,FE,17779,MCBRIDE PUBLIC AFFAIRS LLC*,Employer,19210,BOEING,19-Jan,2/22/2020,16201.0,BOEING,10000.0,0.0,10000.0,0.0,0.0,0.0,0.0,0.0,0.0,0.0,10000.0,19210.0,Direct,,,View report (https://accesshub.pdc.wa.gov/node/50377),Transportation,TRANSPORTATION,TRANSPORTATION LABOR EDUCATION DOR
65107,52925-19210,52925,FE,17779,MCBRIDE PUBLIC AFFAIRS LLC*,Employer,19210,BOEING,19-Feb,2/22/2020,16201.0,BOEING,10000.0,0.0,10000.0,0.0,0.0,0.0,0.0,0.0,0.0,0.0,10000.0,19210.0,Direct,,,View report (https://accesshub.pdc.wa.gov/node/52925),Transportation,TRANSPORTATION,TRANSPORTATION LABOR EDUCATION DOR
65108,54158-19210,54158,FE,17779,MCBRIDE PUBLIC AFFAIRS LLC*,Employer,19210,BOEING,19-Mar,2/22/2020,16201.0,BOEING,10000.0,0.0,10000.0,0.0,0.0,0.0,0.0,0.0,0.0,0.0,10000.0,19210.0,Direct,,,View report (https://accesshub.pdc.wa.gov/node/54158),Transportation,TRANSPORTATION,TRANSPORTATION LABOR EDUCATION DOR
65109,55054-19210,55054,FE,17779,MCBRIDE PUBLIC AFFAIRS LLC*,Employer,19210,BOEING,19-Apr,2/22/2020,16201.0,BOEING,10000.0,0.0,10000.0,0.0,0.0,0.0,0.0,0.0,0.0,0.0,10000.0,19210.0,Direct,,,View report (https://accesshub.pdc.wa.gov/node/55054),Transportation,TRANSPORTATION,TRANSPORTATION LABOR EDUCATION DOR
65110,55898-19210,55898,FE,17779,MCBRIDE PUBLIC AFFAIRS LLC*,Employer,19210,BOEING,19-May,2/22/2020,16201.0,BOEING,10000.0,0.0,10000.0,0.0,0.0,0.0,0.0,0.0,0.0,0.0,10000.0,19210.0,Direct,,,View report (https://accesshub.pdc.wa.gov/node/55898),Transportation,TRANSPORTATION,TRANSPORTATION LABOR EDUCATION DOR
65111,56077-19210,56077,FE,17779,MCBRIDE PUBLIC AFFAIRS LLC*,Employer,19210,BOEING,19-Jun,2/22/2020,16201.0,BOEING,10000.0,0.0,10000.0,0.0,0.0,0.0,0.0,0.0,0.0,0.0,10000.0,19210.0,Direct,,,View report (https://accesshub.pdc.wa.gov/node/56077),Transportation,TRANSPORTATION,TRANSPORTATION LABOR EDUCATION DOR
65112,57547-19210,57547,FE,17779,MCBRIDE PUBLIC AFFAIRS LLC*,Employer,19210,BOEING,19-Jul,2/22/2020,16201.0,BOEING,10000.0,0.0,10000.0,0.0,0.0,0.0,0.0,0.0,0.0,0.0,10000.0,19210.0,Direct,,,View report (https://accesshub.pdc.wa.gov/node/57547),Transportation,TRANSPORTATION,TRANSPORTATION LABOR EDUCATION DOR
65113,58390-19210,58390,FE,17779,MCBRIDE PUBLIC AFFAIRS LLC*,Employer,19210,BOEING,19-Aug,2/22/2020,16201.0,BOEING,10000.0,0.0,10000.0,0.0,0.0,0.0,0.0,0.0,0.0,0.0,10000.0,19210.0,Direct,,,View report (https://accesshub.pdc.wa.gov/node/58390),Transportation,TRANSPORTATION,TRANSPORTATION LABOR EDUCATION DOR
65114,58943-19210,58943,FE,17779,MCBRIDE PUBLIC AFFAIRS LLC*,Employer,19210,BOEING,19-Sep,2/22/2020,16201.0,BOEING,10000.0,0.0,10000.0,0.0,0.0,0.0,0.0,0.0,0.0,0.0,10000.0,19210.0,Direct,,,View report (https://accesshub.pdc.wa.gov/node/58943),Transportation,TRANSPORTATION,TRANSPORTATION LABOR EDUCATION DOR
65115,59789-19210,59789,FE,17779,MCBRIDE PUBLIC AFFAIRS LLC*,Employer,19210,BOEING,19-Oct,2/22/2020,16201.0,BOEING,10000.0,0.0,10000.0,0.0,0.0,0.0,0.0,0.0,0.0,0.0,10000.0,19210.0,Direct,,,View report (https://accesshub.pdc.wa.gov/node/59789),Transportation,TRANSPORTATION,TRANSPORTATION LABOR EDUCATION DOR
65116,60735-19210,60735,FE,17779,MCBRIDE PUBLIC AFFAIRS LLC*,Employer,19210,BOEING,19-Nov,2/22/2020,16201.0,BOEING,10000.0,0.0,10000.0,0.0,0.0,0.0,0.0,0.0,0.0,0.0,10000.0,19210.0,Direct,,,View report (https://accesshub.pdc.wa.gov/node/60735),Transportation,TRANSPORTATION,TRANSPORTATION LABOR EDUCATION DOR
65117,61642-19210,61642,FE,17779,MCBRIDE PUBLIC AFFAIRS LLC*,Employer,19210,BOEING,19-Dec,2/22/2020,16201.0,BOEING,10000.0,0.0,10000.0,0.0,0.0,0.0,0.0,0.0,0.0,0.0,10000.0,19210.0,Direct,,,View report (https://accesshub.pdc.wa.gov/node/61642),Transportation,TRANSPORTATION,TRANSPORTATION LABOR EDUCATION DOR
65118,51385-27378,51385,FE,27377,Ludeman Public Affairs,Employer,27378,BUILDING INDUSTRY ASSN OF WA (GANO & ASSOC*),19-Jan,2/22/2020,16215.0,BUILDING INDUSTRY ASSN OF WA,729.43,0.0,729.43,0.0,0.0,0.0,0.0,0.0,0.0,0.0,729.43,27378.0,Subcontract,17565.0,GANO & ASSOC*,View report (https://accesshub.pdc.wa.gov/node/51385),,,
65119,53403-27378,53403,FE,27377,Ludeman Public Affairs,Employer,27378,BUILDING INDUSTRY ASSN OF WA (GANO & ASSOC*),19-Feb,2/22/2020,16215.0,BUILDING INDUSTRY ASSN OF WA,729.43,0.0,729.43,0.0,0.0,0.0,0.0,0.0,0.0,0.0,729.43,27378.0,Subcontract,17565.0,GANO & ASSOC*,View report (https://accesshub.pdc.wa.gov/node/53403),,,
65120,54427-27378,54427,FE,27377,Ludeman Public Affairs,Employer,27378,BUILDING INDUSTRY ASSN OF WA (GANO & ASSOC*),19-Mar,2/22/2020,16215.0,BUILDING INDUSTRY ASSN OF WA,729.43,0.0,729.43,0.0,0.0,0.0,0.0,0.0,0.0,0.0,729.43,27378.0,Subcontract,17565.0,GANO & ASSOC*,View report (https://accesshub.pdc.wa.gov/node/54427),,,
65121,50377-19211,50377,FE,17779,MCBRIDE PUBLIC AFFAIRS LLC*,Employer,19211,CITY OF BELLINGHAM,19-Jan,2/22/2020,16276.0,CITY OF BELLINGHAM,2500.0,-1250.0,1250.0,0.0,0.0,0.0,0.0,0.0,0.0,0.0,1250.0,19211.0,Direct,,,View report (https://accesshub.pdc.wa.gov/node/50377),Local government,Economic Development,MTCA BUDGET LOCAL GOVERNMENT TRANSPORTATION
65122,52925-19211,52925,FE,17779,MCBRIDE PUBLIC AFFAIRS LLC*,Employer,19211,CITY OF BELLINGHAM,19-Feb,2/22/2020,16276.0,CITY OF BELLINGHAM,2500.0,-1250.0,1250.0,0.0,0.0,0.0,0.0,0.0,0.0,0.0,1250.0,19211.0,Direct,,,View report (https://accesshub.pdc.wa.gov/node/52925),Local government,Economic Development,MTCA BUDGET LOCAL GOVERNMENT TRANSPORTATION
65123,54158-19211,54158,FE,17779,MCBRIDE PUBLIC AFFAIRS LLC*,Employer,19211,CITY OF BELLINGHAM,19-Mar,2/22/2020,16276.0,CITY OF BELLINGHAM,2500.0,-1250.0,1250.0,0.0,0.0,0.0,0.0,0.0,0.0,0.0,1250.0,19211.0,Direct,,,View report (https://accesshub.pdc.wa.gov/node/54158),Local government,Economic Development,MTCA BUDGET LOCAL GOVERNMENT TRANSPORTATION
65124,55054-19211,55054,FE,17779,MCBRIDE PUBLIC AFFAIRS LLC*,Employer,19211,CITY OF BELLINGHAM,19-Apr,2/22/2020,16276.0,CITY OF BELLINGHAM,2500.0,-1250.0,1250.0,0.0,0.0,0.0,0.0,0.0,0.0,0.0,1250.0,19211.0,Direct,,,View report (https://accesshub.pdc.wa.gov/node/55054),Local government,Economic Development,MTCA BUDGET LOCAL GOVERNMENT TRANSPORTATION
65125,55898-19211,55898,FE,17779,MCBRIDE PUBLIC AFFAIRS LLC*,Employer,19211,CITY OF BELLINGHAM,19-May,2/22/2020,16276.0,CITY OF BELLINGHAM,2500.0,-1250.0,1250.0,0.0,0.0,0.0,0.0,0.0,0.0,0.0,1250.0,19211.0,Direct,,,View report (https://accesshub.pdc.wa.gov/node/55898),Local government,Economic Development,MTCA BUDGET LOCAL GOVERNMENT TRANSPORTATION
65126,56077-19211,56077,FE,17779,MCBRIDE PUBLIC AFFAIRS LLC*,Employer,19211,CITY OF BELLINGHAM,19-Jun,2/22/2020,16276.0,CITY OF BELLINGHAM,2500.0,-1250.0,1250.0,0.0,0.0,0.0,0.0,0.0,0.0,0.0,1250.0,19211.0,Direct,,,View report (https://accesshub.pdc.wa.gov/node/56077),Local government,Economic Development,MTCA BUDGET LOCAL GOVERNMENT TRANSPORTATION
65127,57547-19211,57547,FE,17779,MCBRIDE PUBLIC AFFAIRS LLC*,Employer,19211,CITY OF BELLINGHAM,19-Jul,2/22/2020,16276.0,CITY OF BELLINGHAM,2500.0,-1250.0,1250.0,0.0,0.0,0.0,0.0,0.0,0.0,0.0,1250.0,19211.0,Direct,,,View report (https://accesshub.pdc.wa.gov/node/57547),Local government,Economic Development,MTCA BUDGET LOCAL GOVERNMENT TRANSPORTATION
65128,58390-19211,58390,FE,17779,MCBRIDE PUBLIC AFFAIRS LLC*,Employer,19211,CITY OF BELLINGHAM,19-Aug,2/22/2020,16276.0,CITY OF BELLINGHAM,2500.0,-1250.0,1250.0,0.0,0.0,0.0,0.0,0.0,0.0,0.0,1250.0,19211.0,Direct,,,View report (https://accesshub.pdc.wa.gov/node/58390),Local government,Economic Development,MTCA BUDGET LOCAL GOVERNMENT TRANSPORTATION
65129,58943-19211,58943,FE,17779,MCBRIDE PUBLIC AFFAIRS LLC*,Employer,19211,CITY OF BELLINGHAM,19-Sep,2/22/2020,16276.0,CITY OF BELLINGHAM,2500.0,-1250.0,1250.0,0.0,0.0,0.0,0.0,0.0,0.0,0.0,1250.0,19211.0,Direct,,,View report (https://accesshub.pdc.wa.gov/node/58943),Local government,Economic Development,MTCA BUDGET LOCAL GOVERNMENT TRANSPORTATION
65130,59789-19211,59789,FE,17779,MCBRIDE PUBLIC AFFAIRS LLC*,Employer,19211,CITY OF BELLINGHAM,19-Oct,2/22/2020,16276.0,CITY OF BELLINGHAM,2500.0,-1250.0,1250.0,0.0,0.0,0.0,0.0,0.0,0.0,0.0,1250.0,19211.0,Direct,,,View report (https://accesshub.pdc.wa.gov/node/59789),Local government,Economic Development,MTCA BUDGET LOCAL GOVERNMENT TRANSPORTATION
65131,60735-19211,60735,FE,17779,MCBRIDE PUBLIC AFFAIRS LLC*,Employer,19211,CITY OF BELLINGHAM,19-Nov,2/22/2020,16276.0,CITY OF BELLINGHAM,2500.0,-1250.0,1250.0,0.0,0.0,0.0,0.0,0.0,0.0,0.0,1250.0,19211.0,Direct,,,View report (https://accesshub.pdc.wa.gov/node/60735),Local government,Economic Development,MTCA BUDGET LOCAL GOVERNMENT TRANSPORTATION
65132,61642-19211,61642,FE,17779,MCBRIDE PUBLIC AFFAIRS LLC*,Employer,19211,CITY OF BELLINGHAM,19-Dec,2/22/2020,16276.0,CITY OF BELLINGHAM,2500.0,-1250.0,1250.0,0.0,0.0,0.0,0.0,0.0,0.0,0.0,1250.0,19211.0,Direct,,,View report (https://accesshub.pdc.wa.gov/node/61642),Local government,Economic Development,MTCA BUDGET LOCAL GOVERNMENT TRANSPORTATION
65133,50377-19212,50377,FE,17779,MCBRIDE PUBLIC AFFAIRS LLC*,Employer,19212,CITY OF KENNEWICK,19-Jan,2/22/2020,16290.0,CITY OF KENNEWICK,4120.0,-2746.66,1373.34,0.0,0.0,0.0,0.0,0.0,0.0,0.0,1373.34,19212.0,Direct,,,View report (https://accesshub.pdc.wa.gov/node/50377),,,
65134,52925-19212,52925,FE,17779,MCBRIDE PUBLIC AFFAIRS LLC*,Employer,19212,CITY OF KENNEWICK,19-Feb,2/22/2020,16290.0,CITY OF KENNEWICK,4120.0,-2746.66,1373.34,0.0,0.0,0.0,0.0,0.0,0.0,0.0,1373.34,19212.0,Direct,,,View report (https://accesshub.pdc.wa.gov/node/52925),,,
65135,54158-19212,54158,FE,17779,MCBRIDE PUBLIC AFFAIRS LLC*,Employer,19212,CITY OF KENNEWICK,19-Mar,2/22/2020,16290.0,CITY OF KENNEWICK,4120.0,-2746.66,1373.34,0.0,0.0,0.0,0.0,0.0,0.0,0.0,1373.34,19212.0,Direct,,,View report (https://accesshub.pdc.wa.gov/node/54158),,,
65136,55054-19212,55054,FE,17779,MCBRIDE PUBLIC AFFAIRS LLC*,Employer,19212,CITY OF KENNEWICK,19-Apr,2/22/2020,16290.0,CITY OF KENNEWICK,4120.0,-2746.66,1373.34,0.0,0.0,0.0,0.0,0.0,0.0,0.0,1373.34,19212.0,Direct,,,View report (https://accesshub.pdc.wa.gov/node/55054),,,
65137,55898-19212,55898,FE,17779,MCBRIDE PUBLIC AFFAIRS LLC*,Employer,19212,CITY OF KENNEWICK,19-May,2/22/2020,16290.0,CITY OF KENNEWICK,4120.0,-2746.66,1373.34,0.0,0.0,0.0,0.0,0.0,0.0,0.0,1373.34,19212.0,Direct,,,View report (https://accesshub.pdc.wa.gov/node/55898),,,
65138,56077-19212,56077,FE,17779,MCBRIDE PUBLIC AFFAIRS LLC*,Employer,19212,CITY OF KENNEWICK,19-Jun,2/22/2020,16290.0,CITY OF KENNEWICK,4120.0,-2746.66,1373.34,0.0,0.0,0.0,0.0,0.0,0.0,0.0,1373.34,19212.0,Direct,,,View report (https://accesshub.pdc.wa.gov/node/56077),,,
65139,57547-19212,57547,FE,17779,MCBRIDE PUBLIC AFFAIRS LLC*,Employer,19212,CITY OF KENNEWICK,19-Jul,2/22/2020,16290.0,CITY OF KENNEWICK,4120.0,-2746.66,1373.34,0.0,0.0,0.0,0.0,0.0,0.0,0.0,1373.34,19212.0,Direct,,,View report (https://accesshub.pdc.wa.gov/node/57547),,,
65140,58390-19212,58390,FE,17779,MCBRIDE PUBLIC AFFAIRS LLC*,Employer,19212,CITY OF KENNEWICK,19-Aug,2/22/2020,16290.0,CITY OF KENNEWICK,4120.0,-2746.66,1373.34,0.0,0.0,0.0,0.0,0.0,0.0,0.0,1373.34,19212.0,Direct,,,View report (https://accesshub.pdc.wa.gov/node/58390),,,
65141,58943-19212,58943,FE,17779,MCBRIDE PUBLIC AFFAIRS LLC*,Employer,19212,CITY OF KENNEWICK,19-Sep,2/22/2020,16290.0,CITY OF KENNEWICK,4120.0,-2746.66,1373.34,0.0,0.0,0.0,0.0,0.0,0.0,0.0,1373.34,19212.0,Direct,,,View report (https://accesshub.pdc.wa.gov/node/58943),,,
65142,59789-19212,59789,FE,17779,MCBRIDE PUBLIC AFFAIRS LLC*,Employer,19212,CITY OF KENNEWICK,19-Oct,2/22/2020,16290.0,CITY OF KENNEWICK,4120.0,-2746.66,1373.34,0.0,0.0,0.0,0.0,0.0,0.0,0.0,1373.34,19212.0,Direct,,,View report (https://accesshub.pdc.wa.gov/node/59789),,,
65143,60735-19212,60735,FE,17779,MCBRIDE PUBLIC AFFAIRS LLC*,Employer,19212,CITY OF KENNEWICK,19-Nov,2/22/2020,16290.0,CITY OF KENNEWICK,4120.0,-2746.66,1373.34,0.0,0.0,0.0,0.0,0.0,0.0,0.0,1373.34,19212.0,Direct,,,View report (https://accesshub.pdc.wa.gov/node/60735),,,
65144,61642-19212,61642,FE,17779,MCBRIDE PUBLIC AFFAIRS LLC*,Employer,19212,CITY OF KENNEWICK,19-Dec,2/22/2020,16290.0,CITY OF KENNEWICK,4120.0,-2746.66,1373.34,0.0,0.0,0.0,0.0,0.0,0.0,0.0,1373.34,19212.0,Direct,,,View report (https://accesshub.pdc.wa.gov/node/61642),,,
65145,59671-19238,59671,FE,17786,Leonard A Mc Comb,Employer,19238,COMMUNITY HEALTH NETWORK OF WA,19-Sep,2/22/2020,16348.0,COMMUNITY HEALTH NETWORK OF WA,15000.0,0.0,15000.0,596.7,0.0,0.0,0.0,0.0,0.0,596.7,15596.7,19238.0,Direct,,,View report (https://accesshub.pdc.wa.gov/node/59671),Health Care,OPERATING BUDGET,APPROPRIATIONS WAYS AND MEANS
65146,61352-19238,61352,FE,17786,Leonard A Mc Comb,Employer,19238,COMMUNITY HEALTH NETWORK OF WA,19-Oct,2/22/2020,16348.0,COMMUNITY HEALTH NETWORK OF WA,15000.0,0.0,15000.0,1323.27,0.0,0.0,0.0,0.0,0.0,1323.27,16323.27,19238.0,Direct,,,View report (https://accesshub.pdc.wa.gov/node/61352),Health Care,OPERATING BUDGET,APPROPRIATIONS WAYS AND MEANS
65147,50377-19213,50377,FE,17779,MCBRIDE PUBLIC AFFAIRS LLC*,Employer,19213,COMP TIA,19-Jan,2/22/2020,16355.0,COMP TIA,3150.0,0.0,3150.0,81.34,0.0,0.0,50.0,0.0,0.0,131.34,3281.34,19213.0,Direct,,,View report (https://accesshub.pdc.wa.gov/node/50377),Technology,Technology,CYBERCRIME TECH CONSUMER PROTECTION
65148,52925-19213,52925,FE,17779,MCBRIDE PUBLIC AFFAIRS LLC*,Employer,19213,COMP TIA,19-Feb,2/22/2020,16355.0,COMP TIA,3150.0,0.0,3150.0,0.0,0.0,0.0,0.0,0.0,0.0,0.0,3150.0,19213.0,Direct,,,View report (https://accesshub.pdc.wa.gov/node/52925),Technology,Technology 1342 1854 5376,CYBERCRIME TECH CONSUMER PROTECTION
65149,54158-19213,54158,FE,17779,MCBRIDE PUBLIC AFFAIRS LLC*,Employer,19213,COMP TIA,19-Mar,2/22/2020,16355.0,COMP TIA,3150.0,0.0,3150.0,0.0,0.0,0.0,20.4,0.0,0.0,20.4,3170.4,19213.0,Direct,,,View report (https://accesshub.pdc.wa.gov/node/54158),Technology,Technology 1342 1854 5376,CYBERCRIME TECH CONSUMER PROTECTION
65150,55054-19213,55054,FE,17779,MCBRIDE PUBLIC AFFAIRS LLC*,Employer,19213,COMP TIA,19-Apr,2/22/2020,16355.0,COMP TIA,3150.0,0.0,3150.0,0.0,0.0,0.0,63.43,0.0,0.0,63.43,3213.43,19213.0,Direct,,,View report (https://accesshub.pdc.wa.gov/node/55054),Technology,Technology 1342 1854 5376,CYBERCRIME TECH CONSUMER PROTECTION
65151,55898-19213,55898,FE,17779,MCBRIDE PUBLIC AFFAIRS LLC*,Employer,19213,COMP TIA,19-May,2/22/2020,16355.0,COMP TIA,3150.0,0.0,3150.0,0.0,0.0,0.0,0.0,0.0,0.0,0.0,3150.0,19213.0,Direct,,,View report (https://accesshub.pdc.wa.gov/node/55898),Technology,Technology,CYBERCRIME TECH CONSUMER PROTECTION
65152,56077-19213,56077,FE,17779,MCBRIDE PUBLIC AFFAIRS LLC*,Employer,19213,COMP TIA,19-Jun,2/22/2020,16355.0,COMP TIA,3150.0,0.0,3150.0,0.0,0.0,0.0,0.0,0.0,0.0,0.0,3150.0,19213.0,Direct,,,View report (https://accesshub.pdc.wa.gov/node/56077),Technology,Technology,CYBERCRIME TECH CONSUMER PROTECTION
65153,57547-19213,57547,FE,17779,MCBRIDE PUBLIC AFFAIRS LLC*,Employer,19213,COMP TIA,19-Jul,2/22/2020,16355.0,COMP TIA,3150.0,0.0,3150.0,0.0,0.0,0.0,0.0,0.0,0.0,0.0,3150.0,19213.0,Direct,,,View report (https://accesshub.pdc.wa.gov/node/57547),Technology,Technology,CYBERCRIME TECH CONSUMER PROTECTION
65154,58390-19213,58390,FE,17779,MCBRIDE PUBLIC AFFAIRS LLC*,Employer,19213,COMP TIA,19-Aug,2/22/2020,16355.0,COMP TIA,3150.0,0.0,3150.0,0.0,0.0,0.0,0.0,0.0,0.0,0.0,3150.0,19213.0,Direct,,,View report (https://accesshub.pdc.wa.gov/node/58390),Technology,Technology,CYBERCRIME TECH CONSUMER PROTECTION
65155,58943-19213,58943,FE,17779,MCBRIDE PUBLIC AFFAIRS LLC*,Employer,19213,COMP TIA,19-Sep,2/22/2020,16355.0,COMP TIA,3150.0,0.0,3150.0,0.0,0.0,0.0,0.0,0.0,0.0,0.0,3150.0,19213.0,Direct,,,View report (https://accesshub.pdc.wa.gov/node/58943),Technology,Technology,CYBERCRIME TECH CONSUMER PROTECTION
65156,59789-19213,59789,FE,17779,MCBRIDE PUBLIC AFFAIRS LLC*,Employer,19213,COMP TIA,19-Oct,2/22/2020,16355.0,COMP TIA,3150.0,0.0,3150.0,0.0,0.0,0.0,0.0,0.0,0.0,0.0,3150.0,19213.0,Direct,,,View report (https://accesshub.pdc.wa.gov/node/59789),Technology,Technology,CYBERCRIME TECH CONSUMER PROTECTION
65157,60735-19213,60735,FE,17779,MCBRIDE PUBLIC AFFAIRS LLC*,Employer,19213,COMP TIA,19-Nov,2/22/2020,16355.0,COMP TIA,3150.0,0.0,3150.0,0.0,0.0,0.0,0.0,0.0,0.0,0.0,3150.0,19213.0,Direct,,,View report (https://accesshub.pdc.wa.gov/node/60735),Technology,Technology,CYBERCRIME TECH CONSUMER PROTECTION
65158,61642-19213,61642,FE,17779,MCBRIDE PUBLIC AFFAIRS LLC*,Employer,19213,COMP TIA,19-Dec,2/22/2020,16355.0,COMP TIA,3150.0,0.0,3150.0,0.0,0.0,0.0,0.0,0.0,0.0,0.0,3150.0,19213.0,Direct,,,View report (https://accesshub.pdc.wa.gov/node/61642),Technology,Technology,CYBERCRIME TECH CONSUMER PROTECTION
65159,51385-27385,51385,FE,27377,Ludeman Public Affairs,Employer,27385,CONTINENTAL CASUALTY COMPANY (CNA Insurance Companies) (GANO & ASSOC*),19-Jan,2/22/2020,16363.0,CONTINENTAL CASUALTY COMPANY (CNA Insurance Companies),462.25,0.0,462.25,0.0,0.0,0.0,0.0,0.0,0.0,0.0,462.25,27385.0,Subcontract,17565.0,GANO & ASSOC*,View report (https://accesshub.pdc.wa.gov/node/51385),,,
65160,53403-27385,53403,FE,27377,Ludeman Public Affairs,Employer,27385,CONTINENTAL CASUALTY COMPANY (CNA Insurance Companies) (GANO & ASSOC*),19-Feb,2/22/2020,16363.0,CONTINENTAL CASUALTY COMPANY (CNA Insurance Companies),462.25,0.0,462.25,0.0,0.0,0.0,0.0,0.0,0.0,0.0,462.25,27385.0,Subcontract,17565.0,GANO & ASSOC*,View report (https://accesshub.pdc.wa.gov/node/53403),,,
65161,54427-27385,54427,FE,27377,Ludeman Public Affairs,Employer,27385,CONTINENTAL CASUALTY COMPANY (CNA Insurance Companies) (GANO & ASSOC*),19-Mar,2/22/2020,16363.0,CONTINENTAL CASUALTY COMPANY (CNA Insurance Companies),462.25,0.0,462.25,0.0,0.0,0.0,0.0,0.0,0.0,0.0,462.25,27385.0,Subcontract,17565.0,GANO & ASSOC*,View report (https://accesshub.pdc.wa.gov/node/54427),,,
65162,50377-49669,50377,FE,17779,MCBRIDE PUBLIC AFFAIRS LLC*,Employer,49669,Molson Coors Beverage Company USA LLC,19-Jan,2/22/2020,16366.0,Molson Coors Beverage Company USA LLC,4333.0,0.0,4333.0,0.0,0.0,0.0,0.0,0.0,0.0,0.0,4333.0,49669.0,Direct,,,View report (https://accesshub.pdc.wa.gov/node/50377),Labor,Labor,House Commerce & Gaming AND Senate Labor & Commerce
65163,52925-49669,52925,FE,17779,MCBRIDE PUBLIC AFFAIRS LLC*,Employer,49669,Molson Coors Beverage Company USA LLC,19-Feb,2/22/2020,16366.0,Molson Coors Beverage Company USA LLC,4333.0,0.0,4333.0,0.0,0.0,0.0,0.0,0.0,0.0,0.0,4333.0,49669.0,Direct,,,View report (https://accesshub.pdc.wa.gov/node/52925),Labor,Labor,House Commerce & Gaming AND Senate Labor & Commerce
65164,54158-49669,54158,FE,17779,MCBRIDE PUBLIC AFFAIRS LLC*,Employer,49669,Molson Coors Beverage Company USA LLC,19-Mar,2/22/2020,16366.0,Molson Coors Beverage Company USA LLC,4333.0,0.0,4333.0,0.0,0.0,0.0,0.0,0.0,0.0,0.0,4333.0,49669.0,Direct,,,View report (https://accesshub.pdc.wa.gov/node/54158),Labor,Labor,House Commerce & Gaming AND Senate Labor & Commerce
65165,55054-49669,55054,FE,17779,MCBRIDE PUBLIC AFFAIRS LLC*,Employer,49669,Molson Coors Beverage Company USA LLC,19-Apr,2/22/2020,16366.0,Molson Coors Beverage Company USA LLC,4333.0,0.0,4333.0,0.0,0.0,0.0,0.0,0.0,0.0,0.0,4333.0,49669.0,Direct,,,View report (https://accesshub.pdc.wa.gov/node/55054),Labor,Labor,House Commerce & Gaming AND Senate Labor & Commerce
65166,55898-49669,55898,FE,17779,MCBRIDE PUBLIC AFFAIRS LLC*,Employer,49669,Molson Coors Beverage Company USA LLC,19-May,2/22/2020,16366.0,Molson Coors Beverage Company USA LLC,4333.0,0.0,4333.0,0.0,0.0,0.0,0.0,0.0,0.0,0.0,4333.0,49669.0,Direct,,,View report (https://accesshub.pdc.wa.gov/node/55898),Labor,Labor,House Commerce & Gaming AND Senate Labor & Commerce
65167,56077-49669,56077,FE,17779,MCBRIDE PUBLIC AFFAIRS LLC*,Employer,49669,Molson Coors Beverage Company USA LLC,19-Jun,2/22/2020,16366.0,Molson Coors Beverage Company USA LLC,4333.0,0.0,4333.0,0.0,0.0,0.0,0.0,0.0,0.0,0.0,4333.0,49669.0,Direct,,,View report (https://accesshub.pdc.wa.gov/node/56077),Labor,Labor,House Commerce & Gaming AND Senate Labor & Commerce
65168,57547-49669,57547,FE,17779,MCBRIDE PUBLIC AFFAIRS LLC*,Employer,49669,Molson Coors Beverage Company USA LLC,19-Jul,2/22/2020,16366.0,Molson Coors Beverage Company USA LLC,4333.0,0.0,4333.0,0.0,0.0,0.0,0.0,0.0,0.0,0.0,4333.0,49669.0,Direct,,,View report (https://accesshub.pdc.wa.gov/node/57547),Labor,Labor,House Commerce & Gaming AND Senate Labor & Commerce
65169,58390-49669,58390,FE,17779,MCBRIDE PUBLIC AFFAIRS LLC*,Employer,49669,Molson Coors Beverage Company USA LLC,19-Aug,2/22/2020,16366.0,Molson Coors Beverage Company USA LLC,4333.0,0.0,4333.0,0.0,0.0,500.0,0.0,0.0,0.0,500.0,4833.0,49669.0,Direct,,,View report (https://accesshub.pdc.wa.gov/node/58390),Labor,Labor,House Commerce & Gaming AND Senate Labor & Commerce
65170,58943-49669,58943,FE,17779,MCBRIDE PUBLIC AFFAIRS LLC*,Employer,49669,Molson Coors Beverage Company USA LLC,19-Sep,2/22/2020,16366.0,Molson Coors Beverage Company USA LLC,4333.0,0.0,4333.0,0.0,0.0,2500.0,0.0,0.0,0.0,2500.0,6833.0,49669.0,Direct,,,View report (https://accesshub.pdc.wa.gov/node/58943),Labor,Labor,House Commerce & Gaming AND Senate Labor & Commerce
65171,59789-49669,59789,FE,17779,MCBRIDE PUBLIC AFFAIRS LLC*,Employer,49669,Molson Coors Beverage Company USA LLC,19-Oct,2/22/2020,16366.0,Molson Coors Beverage Company USA LLC,4333.0,0.0,4333.0,0.0,0.0,0.0,0.0,0.0,0.0,0.0,4333.0,49669.0,Direct,,,View report (https://accesshub.pdc.wa.gov/node/59789),Labor,Labor,House Commerce & Gaming AND Senate Labor & Commerce
65172,60735-49669,60735,FE,17779,MCBRIDE PUBLIC AFFAIRS LLC*,Employer,49669,Molson Coors Beverage Company USA LLC,19-Nov,2/22/2020,16366.0,Molson Coors Beverage Company USA LLC,4333.0,0.0,4333.0,0.0,0.0,0.0,0.0,0.0,0.0,0.0,4333.0,49669.0,Direct,,,View report (https://accesshub.pdc.wa.gov/node/60735),Labor,Labor,House Commerce & Gaming AND Senate Labor & Commerce
65173,61642-49669,61642,FE,17779,MCBRIDE PUBLIC AFFAIRS LLC*,Employer,49669,Molson Coors Beverage Company USA LLC,19-Dec,2/22/2020,16366.0,Molson Coors Beverage Company USA LLC,4333.0,0.0,4333.0,0.0,0.0,0.0,0.0,0.0,0.0,0.0,4333.0,49669.0,Direct,,,View report (https://accesshub.pdc.wa.gov/node/61642),Labor,Labor,House Commerce & Gaming AND Senate Labor & Commerce
65174,50377-19214,50377,FE,17779,MCBRIDE PUBLIC AFFAIRS LLC*,Employer,19214,DART CONTAINER CORP (THROUGH MULTISTATE ASSOCIATES LLC),19-Jan,2/22/2020,16379.0,DART CONTAINER CORP (THROUGH MULTISTATE ASSOCIATES LLC),3500.0,0.0,3500.0,0.0,0.0,0.0,0.0,0.0,0.0,0.0,3500.0,19214.0,Direct,,,View report (https://accesshub.pdc.wa.gov/node/50377),Environmental Affairs - natural resources - parks,ENVIRONMENT,ENVIRONMENT LABOR
65175,52925-19214,52925,FE,17779,MCBRIDE PUBLIC AFFAIRS LLC*,Employer,19214,DART CONTAINER CORP (THROUGH MULTISTATE ASSOCIATES LLC),19-Feb,2/22/2020,16379.0,DART CONTAINER CORP (THROUGH MULTISTATE ASSOCIATES LLC),3500.0,0.0,3500.0,0.0,0.0,0.0,0.0,0.0,0.0,0.0,3500.0,19214.0,Direct,,,View report (https://accesshub.pdc.wa.gov/node/52925),Environmental Affairs - natural resources - parks,ENVIRONMENT,ENVIRONMENT LABOR
65176,54158-19214,54158,FE,17779,MCBRIDE PUBLIC AFFAIRS LLC*,Employer,19214,DART CONTAINER CORP (THROUGH MULTISTATE ASSOCIATES LLC),19-Mar,2/22/2020,16379.0,DART CONTAINER CORP (THROUGH MULTISTATE ASSOCIATES LLC),3500.0,0.0,3500.0,0.0,0.0,0.0,0.0,0.0,0.0,0.0,3500.0,19214.0,Direct,,,View report (https://accesshub.pdc.wa.gov/node/54158),Environmental Affairs - natural resources - parks,ENVIRONMENT,ENVIRONMENT LABOR
65177,55054-19214,55054,FE,17779,MCBRIDE PUBLIC AFFAIRS LLC*,Employer,19214,DART CONTAINER CORP (THROUGH MULTISTATE ASSOCIATES LLC),19-Apr,2/22/2020,16379.0,DART CONTAINER CORP (THROUGH MULTISTATE ASSOCIATES LLC),3500.0,0.0,3500.0,0.0,0.0,0.0,0.0,0.0,0.0,0.0,3500.0,19214.0,Direct,,,View report (https://accesshub.pdc.wa.gov/node/55054),Environmental Affairs - natural resources - parks,ENVIRONMENT,ENVIRONMENT LABOR
65178,55898-19214,55898,FE,17779,MCBRIDE PUBLIC AFFAIRS LLC*,Employer,19214,DART CONTAINER CORP (THROUGH MULTISTATE ASSOCIATES LLC),19-May,2/22/2020,16379.0,DART CONTAINER CORP (THROUGH MULTISTATE ASSOCIATES LLC),3500.0,0.0,3500.0,0.0,0.0,0.0,0.0,0.0,0.0,0.0,3500.0,19214.0,Direct,,,View report (https://accesshub.pdc.wa.gov/node/55898),Environmental Affairs - natural resources - parks,ENVIRONMENT,ENVIRONMENT LABOR
65179,56077-19214,56077,FE,17779,MCBRIDE PUBLIC AFFAIRS LLC*,Employer,19214,DART CONTAINER CORP (THROUGH MULTISTATE ASSOCIATES LLC),19-Jun,2/22/2020,16379.0,DART CONTAINER CORP (THROUGH MULTISTATE ASSOCIATES LLC),3500.0,0.0,3500.0,0.0,0.0,0.0,0.0,0.0,0.0,0.0,3500.0,19214.0,Direct,,,View report (https://accesshub.pdc.wa.gov/node/56077),Environmental Affairs - natural resources - parks,ENVIRONMENT,ENVIRONMENT LABOR
65180,57547-19214,57547,FE,17779,MCBRIDE PUBLIC AFFAIRS LLC*,Employer,19214,DART CONTAINER CORP (THROUGH MULTISTATE ASSOCIATES LLC),19-Jul,2/22/2020,16379.0,DART CONTAINER CORP (THROUGH MULTISTATE ASSOCIATES LLC),3500.0,0.0,3500.0,0.0,0.0,0.0,0.0,0.0,0.0,0.0,3500.0,19214.0,Direct,,,View report (https://accesshub.pdc.wa.gov/node/57547),Environmental Affairs - natural resources - parks,ENVIRONMENT,ENVIRONMENT LABOR
65181,58390-19214,58390,FE,17779,MCBRIDE PUBLIC AFFAIRS LLC*,Employer,19214,DART CONTAINER CORP (THROUGH MULTISTATE ASSOCIATES LLC),19-Aug,2/22/2020,16379.0,DART CONTAINER CORP (THROUGH MULTISTATE ASSOCIATES LLC),3500.0,0.0,3500.0,0.0,0.0,0.0,0.0,0.0,0.0,0.0,3500.0,19214.0,Direct,,,View report (https://accesshub.pdc.wa.gov/node/58390),Environmental Affairs - natural resources - parks,ENVIRONMENT,ENVIRONMENT LABOR
65182,58943-19214,58943,FE,17779,MCBRIDE PUBLIC AFFAIRS LLC*,Employer,19214,DART CONTAINER CORP (THROUGH MULTISTATE ASSOCIATES LLC),19-Sep,2/22/2020,16379.0,DART CONTAINER CORP (THROUGH MULTISTATE ASSOCIATES LLC),3500.0,0.0,3500.0,0.0,0.0,0.0,0.0,0.0,0.0,0.0,3500.0,19214.0,Direct,,,View report (https://accesshub.pdc.wa.gov/node/58943),Environmental Affairs - natural resources - parks,ENVIRONMENT,ENVIRONMENT LABOR
65183,59789-19214,59789,FE,17779,MCBRIDE PUBLIC AFFAIRS LLC*,Employer,19214,DART CONTAINER CORP (THROUGH MULTISTATE ASSOCIATES LLC),19-Oct,2/22/2020,16379.0,DART CONTAINER CORP (THROUGH MULTISTATE ASSOCIATES LLC),3500.0,0.0,3500.0,0.0,0.0,0.0,0.0,0.0,0.0,0.0,3500.0,19214.0,Direct,,,View report (https://accesshub.pdc.wa.gov/node/59789),Environmental Affairs - natural resources - parks,ENVIRONMENT,ENVIRONMENT LABOR
65184,60735-19214,60735,FE,17779,MCBRIDE PUBLIC AFFAIRS LLC*,Employer,19214,DART CONTAINER CORP (THROUGH MULTISTATE ASSOCIATES LLC),19-Nov,2/22/2020,16379.0,DART CONTAINER CORP (THROUGH MULTISTATE ASSOCIATES LLC),3500.0,0.0,3500.0,0.0,0.0,0.0,0.0,0.0,0.0,0.0,3500.0,19214.0,Direct,,,View report (https://accesshub.pdc.wa.gov/node/60735),Environmental Affairs - natural resources - parks,ENVIRONMENT,ENVIRONMENT LABOR
65185,61642-19214,61642,FE,17779,MCBRIDE PUBLIC AFFAIRS LLC*,Employer,19214,DART CONTAINER CORP (THROUGH MULTISTATE ASSOCIATES LLC),19-Dec,2/22/2020,16379.0,DART CONTAINER CORP (THROUGH MULTISTATE ASSOCIATES LLC),3500.0,0.0,3500.0,53.94,0.0,16500.0,0.0,0.0,0.0,16553.94,20053.94,19214.0,Direct,,,View report (https://accesshub.pdc.wa.gov/node/61642),Environmental Affairs - natural resources - parks,ENVIRONMENT,ENVIRONMENT LABOR
65186,51385-28366,51385,FE,27377,Ludeman Public Affairs,Employer,28366,Expedia Group (GANO & ASSOC*),19-Jan,2/22/2020,16427.0,Expedia Group,400.0,0.0,400.0,0.0,0.0,0.0,0.0,0.0,0.0,0.0,400.0,28366.0,Subcontract,17565.0,GANO & ASSOC*,View report (https://accesshub.pdc.wa.gov/node/51385),,,
65187,53403-28366,53403,FE,27377,Ludeman Public Affairs,Employer,28366,Expedia Group (GANO & ASSOC*),19-Feb,2/22/2020,16427.0,Expedia Group,400.0,0.0,400.0,0.0,0.0,0.0,0.0,0.0,0.0,0.0,400.0,28366.0,Subcontract,17565.0,GANO & ASSOC*,View report (https://accesshub.pdc.wa.gov/node/53403),,,
65188,54427-28366,54427,FE,27377,Ludeman Public Affairs,Employer,28366,Expedia Group (GANO & ASSOC*),19-Mar,2/22/2020,16427.0,Expedia Group,400.0,0.0,400.0,0.0,0.0,0.0,0.0,0.0,0.0,0.0,400.0,28366.0,Subcontract,17565.0,GANO & ASSOC*,View report (https://accesshub.pdc.wa.gov/node/54427),,,
65189,51385-27382,51385,FE,27377,Ludeman Public Affairs,Employer,27382,CAL PORTLAND COMPANY (GANO & ASSOC*),19-Jan,2/22/2020,16472.0,CAL PORTLAND COMPANY,528.29,0.0,528.29,0.0,0.0,0.0,0.0,0.0,0.0,0.0,528.29,27382.0,Subcontract,17565.0,GANO & ASSOC*,View report (https://accesshub.pdc.wa.gov/node/51385),,,
65190,53403-27382,53403,FE,27377,Ludeman Public Affairs,Employer,27382,CAL PORTLAND COMPANY (GANO & ASSOC*),19-Feb,2/22/2020,16472.0,CAL PORTLAND COMPANY,528.29,0.0,528.29,0.0,0.0,0.0,0.0,0.0,0.0,0.0,528.29,27382.0,Subcontract,17565.0,GANO & ASSOC*,View report (https://accesshub.pdc.wa.gov/node/53403),,,
65191,54427-27382,54427,FE,27377,Ludeman Public Affairs,Employer,27382,CAL PORTLAND COMPANY (GANO & ASSOC*),19-Mar,2/22/2020,16472.0,CAL PORTLAND COMPANY,528.29,0.0,528.29,0.0,0.0,0.0,0.0,0.0,0.0,0.0,528.29,27382.0,Subcontract,17565.0,GANO & ASSOC*,View report (https://accesshub.pdc.wa.gov/node/54427),,,
65192,50377-19216,50377,FE,17779,MCBRIDE PUBLIC AFFAIRS LLC*,Employer,19216,Google LLC and its Affiliates,19-Jan,2/22/2020,16475.0,Google LLC and its Affiliates,5000.0,0.0,5000.0,0.0,0.0,0.0,0.0,0.0,0.0,0.0,5000.0,19216.0,Direct,,,View report (https://accesshub.pdc.wa.gov/node/50377),Technology,TECHNOLOGY,TECHNOLOGY BUDGET EDUCATION
65193,52925-19216,52925,FE,17779,MCBRIDE PUBLIC AFFAIRS LLC*,Employer,19216,Google LLC and its Affiliates,19-Feb,2/22/2020,16475.0,Google LLC and its Affiliates,5000.0,0.0,5000.0,0.0,0.0,0.0,0.0,0.0,0.0,0.0,5000.0,19216.0,Direct,,,View report (https://accesshub.pdc.wa.gov/node/52925),Technology,TECHNOLOGY 5376 5662,TECHNOLOGY BUDGET EDUCATION
65194,54158-19216,54158,FE,17779,MCBRIDE PUBLIC AFFAIRS LLC*,Employer,19216,Google LLC and its Affiliates,19-Mar,2/22/2020,16475.0,Google LLC and its Affiliates,5000.0,0.0,5000.0,0.0,0.0,0.0,21.76,0.0,0.0,21.76,5021.76,19216.0,Direct,,,View report (https://accesshub.pdc.wa.gov/node/54158),Technology,TECHNOLOGY 5376 5662,TECHNOLOGY BUDGET EDUCATION
65195,55054-19216,55054,FE,17779,MCBRIDE PUBLIC AFFAIRS LLC*,Employer,19216,Google LLC and its Affiliates,19-Apr,2/22/2020,16475.0,Google LLC and its Affiliates,5000.0,0.0,5000.0,0.0,0.0,0.0,0.0,0.0,0.0,0.0,5000.0,19216.0,Direct,,,View report (https://accesshub.pdc.wa.gov/node/55054),Technology,TECHNOLOGY 5376 5662,TECHNOLOGY BUDGET EDUCATION
65196,55898-19216,55898,FE,17779,MCBRIDE PUBLIC AFFAIRS LLC*,Employer,19216,Google LLC and its Affiliates,19-May,2/22/2020,16475.0,Google LLC and its Affiliates,5000.0,0.0,5000.0,0.0,0.0,0.0,0.0,0.0,0.0,0.0,5000.0,19216.0,Direct,,,View report (https://accesshub.pdc.wa.gov/node/55898),Technology,TECHNOLOGY,TECHNOLOGY BUDGET EDUCATION
65197,56077-19216,56077,FE,17779,MCBRIDE PUBLIC AFFAIRS LLC*,Employer,19216,Google LLC and its Affiliates,19-Jun,2/22/2020,16475.0,Google LLC and its Affiliates,5000.0,0.0,5000.0,0.0,0.0,0.0,0.0,0.0,0.0,0.0,5000.0,19216.0,Direct,,,View report (https://accesshub.pdc.wa.gov/node/56077),Technology,TECHNOLOGY,TECHNOLOGY BUDGET EDUCATION
65198,57547-19216,57547,FE,17779,MCBRIDE PUBLIC AFFAIRS LLC*,Employer,19216,Google LLC and its Affiliates,19-Jul,2/22/2020,16475.0,Google LLC and its Affiliates,5000.0,0.0,5000.0,0.0,0.0,0.0,0.0,0.0,0.0,0.0,5000.0,19216.0,Direct,,,View report (https://accesshub.pdc.wa.gov/node/57547),Technology,TECHNOLOGY,TECHNOLOGY BUDGET EDUCATION
65199,58390-19216,58390,FE,17779,MCBRIDE PUBLIC AFFAIRS LLC*,Employer,19216,Google LLC and its Affiliates,19-Aug,2/22/2020,16475.0,Google LLC and its Affiliates,5000.0,0.0,5000.0,0.0,0.0,0.0,0.0,0.0,0.0,0.0,5000.0,19216.0,Direct,,,View report (https://accesshub.pdc.wa.gov/node/58390),Technology,TECHNOLOGY,TECHNOLOGY BUDGET EDUCATION
65200,58943-19216,58943,FE,17779,MCBRIDE PUBLIC AFFAIRS LLC*,Employer,19216,Google LLC and its Affiliates,19-Sep,2/22/2020,16475.0,Google LLC and its Affiliates,5000.0,0.0,5000.0,0.0,0.0,0.0,0.0,0.0,0.0,0.0,5000.0,19216.0,Direct,,,View report (https://accesshub.pdc.wa.gov/node/58943),Technology,TECHNOLOGY,TECHNOLOGY BUDGET EDUCATION
65201,59789-19216,59789,FE,17779,MCBRIDE PUBLIC AFFAIRS LLC*,Employer,19216,Google LLC and its Affiliates,19-Oct,2/22/2020,16475.0,Google LLC and its Affiliates,5000.0,0.0,5000.0,0.0,0.0,0.0,0.0,0.0,0.0,0.0,5000.0,19216.0,Direct,,,View report (https://accesshub.pdc.wa.gov/node/59789),Technology,TECHNOLOGY,TECHNOLOGY BUDGET EDUCATION
65202,60735-19216,60735,FE,17779,MCBRIDE PUBLIC AFFAIRS LLC*,Employer,19216,Google LLC and its Affiliates,19-Nov,2/22/2020,16475.0,Google LLC and its Affiliates,5000.0,0.0,5000.0,0.0,0.0,0.0,0.0,0.0,0.0,0.0,5000.0,19216.0,Direct,,,View report (https://accesshub.pdc.wa.gov/node/60735),Technology,TECHNOLOGY,TECHNOLOGY BUDGET EDUCATION
65203,61642-19216,61642,FE,17779,MCBRIDE PUBLIC AFFAIRS LLC*,Employer,19216,Google LLC and its Affiliates,19-Dec,2/22/2020,16475.0,Google LLC and its Affiliates,5000.0,0.0,5000.0,0.0,0.0,0.0,0.0,0.0,0.0,0.0,5000.0,19216.0,Direct,,,View report (https://accesshub.pdc.wa.gov/node/61642),Technology,TECHNOLOGY,TECHNOLOGY BUDGET EDUCATION
65204,50377-19217,50377,FE,17779,MCBRIDE PUBLIC AFFAIRS LLC*,Employer,19217,HONDA NORTH AMERICA (THRU MULTISTATE ASSOCIATES LLC),19-Jan,2/22/2020,16510.0,HONDA NORTH AMERICA (THRU MULTISTATE ASSOCIATES LLC),3500.0,-1750.0,1750.0,0.0,0.0,0.0,0.0,0.0,0.0,0.0,1750.0,19217.0,Direct,,,View report (https://accesshub.pdc.wa.gov/node/50377),Environmental Affairs - natural resources - parks,Environmental Affairs,TRANSPORTATION PUBLIC SAFETY
65205,52925-19217,52925,FE,17779,MCBRIDE PUBLIC AFFAIRS LLC*,Employer,19217,HONDA NORTH AMERICA (THRU MULTISTATE ASSOCIATES LLC),19-Feb,2/22/2020,16510.0,HONDA NORTH AMERICA (THRU MULTISTATE ASSOCIATES LLC),3500.0,-1750.0,1750.0,0.0,0.0,0.0,0.0,0.0,0.0,0.0,1750.0,19217.0,Direct,,,View report (https://accesshub.pdc.wa.gov/node/52925),Environmental Affairs - natural resources - parks,Environmental Affairs,TRANSPORTATION PUBLIC SAFETY
65206,54158-19217,54158,FE,17779,MCBRIDE PUBLIC AFFAIRS LLC*,Employer,19217,HONDA NORTH AMERICA (THRU MULTISTATE ASSOCIATES LLC),19-Mar,2/22/2020,16510.0,HONDA NORTH AMERICA (THRU MULTISTATE ASSOCIATES LLC),3500.0,-1750.0,1750.0,0.0,0.0,0.0,0.0,0.0,0.0,0.0,1750.0,19217.0,Direct,,,View report (https://accesshub.pdc.wa.gov/node/54158),Environmental Affairs - natural resources - parks,Environmental Affairs,TRANSPORTATION PUBLIC SAFETY
65207,55054-19217,55054,FE,17779,MCBRIDE PUBLIC AFFAIRS LLC*,Employer,19217,HONDA NORTH AMERICA (THRU MULTISTATE ASSOCIATES LLC),19-Apr,2/22/2020,16510.0,HONDA NORTH AMERICA (THRU MULTISTATE ASSOCIATES LLC),3500.0,-1750.0,1750.0,0.0,0.0,0.0,0.0,0.0,0.0,0.0,1750.0,19217.0,Direct,,,View report (https://accesshub.pdc.wa.gov/node/55054),Environmental Affairs - natural resources - parks,Environmental Affairs,TRANSPORTATION PUBLIC SAFETY
65208,55898-19217,55898,FE,17779,MCBRIDE PUBLIC AFFAIRS LLC*,Employer,19217,HONDA NORTH AMERICA (THRU MULTISTATE ASSOCIATES LLC),19-May,2/22/2020,16510.0,HONDA NORTH AMERICA (THRU MULTISTATE ASSOCIATES LLC),3500.0,-1750.0,1750.0,0.0,0.0,0.0,0.0,0.0,0.0,0.0,1750.0,19217.0,Direct,,,View report (https://accesshub.pdc.wa.gov/node/55898),Environmental Affairs - natural resources - parks,Environmental Affairs,TRANSPORTATION PUBLIC SAFETY
65209,56077-19217,56077,FE,17779,MCBRIDE PUBLIC AFFAIRS LLC*,Employer,19217,HONDA NORTH AMERICA (THRU MULTISTATE ASSOCIATES LLC),19-Jun,2/22/2020,16510.0,HONDA NORTH AMERICA (THRU MULTISTATE ASSOCIATES LLC),3500.0,-1750.0,1750.0,0.0,0.0,0.0,0.0,0.0,0.0,0.0,1750.0,19217.0,Direct,,,View report (https://accesshub.pdc.wa.gov/node/56077),Environmental Affairs - natural resources - parks,Environmental Affairs,TRANSPORTATION PUBLIC SAFETY
65210,57547-19217,57547,FE,17779,MCBRIDE PUBLIC AFFAIRS LLC*,Employer,19217,HONDA NORTH AMERICA (THRU MULTISTATE ASSOCIATES LLC),19-Jul,2/22/2020,16510.0,HONDA NORTH AMERICA (THRU MULTISTATE ASSOCIATES LLC),3500.0,-1750.0,1750.0,0.0,0.0,0.0,0.0,0.0,0.0,0.0,1750.0,19217.0,Direct,,,View report (https://accesshub.pdc.wa.gov/node/57547),Environmental Affairs - natural resources - parks,Environmental Affairs,TRANSPORTATION PUBLIC SAFETY
65211,58390-19217,58390,FE,17779,MCBRIDE PUBLIC AFFAIRS LLC*,Employer,19217,HONDA NORTH AMERICA (THRU MULTISTATE ASSOCIATES LLC),19-Aug,2/22/2020,16510.0,HONDA NORTH AMERICA (THRU MULTISTATE ASSOCIATES LLC),3500.0,-1750.0,1750.0,0.0,0.0,0.0,0.0,0.0,0.0,0.0,1750.0,19217.0,Direct,,,View report (https://accesshub.pdc.wa.gov/node/58390),Environmental Affairs - natural resources - parks,Environmental Affairs,TRANSPORTATION PUBLIC SAFETY
65212,58943-19217,58943,FE,17779,MCBRIDE PUBLIC AFFAIRS LLC*,Employer,19217,HONDA NORTH AMERICA (THRU MULTISTATE ASSOCIATES LLC),19-Sep,2/22/2020,16510.0,HONDA NORTH AMERICA (THRU MULTISTATE ASSOCIATES LLC),3500.0,-1750.0,1750.0,0.0,0.0,0.0,0.0,0.0,0.0,0.0,1750.0,19217.0,Direct,,,View report (https://accesshub.pdc.wa.gov/node/58943),Environmental Affairs - natural resources - parks,Environmental Affairs,TRANSPORTATION PUBLIC SAFETY
65213,59789-19217,59789,FE,17779,MCBRIDE PUBLIC AFFAIRS LLC*,Employer,19217,HONDA NORTH AMERICA (THRU MULTISTATE ASSOCIATES LLC),19-Oct,2/22/2020,16510.0,HONDA NORTH AMERICA (THRU MULTISTATE ASSOCIATES LLC),3500.0,-1750.0,1750.0,0.0,0.0,0.0,0.0,0.0,0.0,0.0,1750.0,19217.0,Direct,,,View report (https://accesshub.pdc.wa.gov/node/59789),Environmental Affairs - natural resources - parks,Environmental Affairs,TRANSPORTATION PUBLIC SAFETY
65214,60735-19217,60735,FE,17779,MCBRIDE PUBLIC AFFAIRS LLC*,Employer,19217,HONDA NORTH AMERICA (THRU MULTISTATE ASSOCIATES LLC),19-Nov,2/22/2020,16510.0,HONDA NORTH AMERICA (THRU MULTISTATE ASSOCIATES LLC),3500.0,-1750.0,1750.0,0.0,0.0,0.0,0.0,0.0,0.0,0.0,1750.0,19217.0,Direct,,,View report (https://accesshub.pdc.wa.gov/node/60735),Environmental Affairs - natural resources - parks,Environmental Affairs,TRANSPORTATION PUBLIC SAFETY
65215,61642-19217,61642,FE,17779,MCBRIDE PUBLIC AFFAIRS LLC*,Employer,19217,HONDA NORTH AMERICA (THRU MULTISTATE ASSOCIATES LLC),19-Dec,2/22/2020,16510.0,HONDA NORTH AMERICA (THRU MULTISTATE ASSOCIATES LLC),3500.0,-1750.0,1750.0,0.0,0.0,0.0,0.0,0.0,0.0,0.0,1750.0,19217.0,Direct,,,View report (https://accesshub.pdc.wa.gov/node/61642),Environmental Affairs - natural resources - parks,Environmental Affairs,TRANSPORTATION PUBLIC SAFETY
65216,51385-27388,51385,FE,27377,Ludeman Public Affairs,Employer,27388,KEYBANK (GANO & ASSOC*),19-Jan,2/22/2020,16574.0,KEYBANK,237.73,0.0,237.73,0.0,0.0,0.0,0.0,0.0,0.0,0.0,237.73,27388.0,Subcontract,17565.0,GANO & ASSOC*,View report (https://accesshub.pdc.wa.gov/node/51385),,,
65217,53403-27388,53403,FE,27377,Ludeman Public Affairs,Employer,27388,KEYBANK (GANO & ASSOC*),19-Feb,2/22/2020,16574.0,KEYBANK,237.73,0.0,237.73,0.0,0.0,0.0,0.0,0.0,0.0,0.0,237.73,27388.0,Subcontract,17565.0,GANO & ASSOC*,View report (https://accesshub.pdc.wa.gov/node/53403),,,
65218,54427-27388,54427,FE,27377,Ludeman Public Affairs,Employer,27388,KEYBANK (GANO & ASSOC*),19-Mar,2/22/2020,16574.0,KEYBANK,237.73,0.0,237.73,0.0,0.0,0.0,0.0,0.0,0.0,0.0,237.73,27388.0,Subcontract,17565.0,GANO & ASSOC*,View report (https://accesshub.pdc.wa.gov/node/54427),,,
65219,50377-19218,50377,FE,17779,MCBRIDE PUBLIC AFFAIRS LLC*,Employer,19218,KITSAP CO,19-Jan,2/22/2020,16580.0,KITSAP CO,5500.0,0.0,5500.0,0.0,0.0,0.0,0.0,0.0,0.0,0.0,5500.0,19218.0,Direct,,,View report (https://accesshub.pdc.wa.gov/node/50377),Local government,Local Government,REVENUE LOCAL GOV TRANSPORTATION
65220,52925-19218,52925,FE,17779,MCBRIDE PUBLIC AFFAIRS LLC*,Employer,19218,KITSAP CO,19-Feb,2/22/2020,16580.0,KITSAP CO,5500.0,0.0,5500.0,0.0,0.0,0.0,0.0,0.0,0.0,0.0,5500.0,19218.0,Direct,,,View report (https://accesshub.pdc.wa.gov/node/52925),Local government,Local Government 5366,REVENUE LOCAL GOV TRANSPORTATION
65221,54158-19218,54158,FE,17779,MCBRIDE PUBLIC AFFAIRS LLC*,Employer,19218,KITSAP CO,19-Mar,2/22/2020,16580.0,KITSAP CO,5500.0,0.0,5500.0,0.0,154.39,0.0,25.97,0.0,0.0,180.36,5680.36,19218.0,Direct,,,View report (https://accesshub.pdc.wa.gov/node/54158),Local government,Local Government 5366,REVENUE LOCAL GOV TRANSPORTATION
65222,55054-19218,55054,FE,17779,MCBRIDE PUBLIC AFFAIRS LLC*,Employer,19218,KITSAP CO,19-Apr,2/22/2020,16580.0,KITSAP CO,5500.0,0.0,5500.0,0.0,0.0,0.0,0.0,0.0,0.0,0.0,5500.0,19218.0,Direct,,,View report (https://accesshub.pdc.wa.gov/node/55054),Local government,Local Government 5366,REVENUE LOCAL GOV TRANSPORTATION
65223,55898-19218,55898,FE,17779,MCBRIDE PUBLIC AFFAIRS LLC*,Employer,19218,KITSAP CO,19-May,2/22/2020,16580.0,KITSAP CO,5500.0,0.0,5500.0,0.0,0.0,0.0,0.0,0.0,0.0,0.0,5500.0,19218.0,Direct,,,View report (https://accesshub.pdc.wa.gov/node/55898),Local government,Local Government,REVENUE LOCAL GOV TRANSPORTATION
65224,56077-19218,56077,FE,17779,MCBRIDE PUBLIC AFFAIRS LLC*,Employer,19218,KITSAP CO,19-Jun,2/22/2020,16580.0,KITSAP CO,5500.0,0.0,5500.0,0.0,0.0,0.0,0.0,0.0,0.0,0.0,5500.0,19218.0,Direct,,,View report (https://accesshub.pdc.wa.gov/node/56077),Local government,Local Government,REVENUE LOCAL GOV TRANSPORTATION
65225,57547-19218,57547,FE,17779,MCBRIDE PUBLIC AFFAIRS LLC*,Employer,19218,KITSAP CO,19-Jul,2/22/2020,16580.0,KITSAP CO,5500.0,0.0,5500.0,0.0,0.0,0.0,0.0,0.0,0.0,0.0,5500.0,19218.0,Direct,,,View report (https://accesshub.pdc.wa.gov/node/57547),Local government,Local Government,REVENUE LOCAL GOV TRANSPORTATION
65226,58390-19218,58390,FE,17779,MCBRIDE PUBLIC AFFAIRS LLC*,Employer,19218,KITSAP CO,19-Aug,2/22/2020,16580.0,KITSAP CO,5500.0,0.0,5500.0,0.0,0.0,0.0,0.0,0.0,0.0,0.0,5500.0,19218.0,Direct,,,View report (https://accesshub.pdc.wa.gov/node/58390),Local government,Local Government,REVENUE LOCAL GOV TRANSPORTATION
65227,58943-19218,58943,FE,17779,MCBRIDE PUBLIC AFFAIRS LLC*,Employer,19218,KITSAP CO,19-Sep,2/22/2020,16580.0,KITSAP CO,5500.0,0.0,5500.0,0.0,0.0,0.0,0.0,0.0,0.0,0.0,5500.0,19218.0,Direct,,,View report (https://accesshub.pdc.wa.gov/node/58943),Local government,Local Government,REVENUE LOCAL GOV TRANSPORTATION
65228,59789-19218,59789,FE,17779,MCBRIDE PUBLIC AFFAIRS LLC*,Employer,19218,KITSAP CO,19-Oct,2/22/2020,16580.0,KITSAP CO,5500.0,0.0,5500.0,0.0,0.0,0.0,0.0,0.0,0.0,0.0,5500.0,19218.0,Direct,,,View report (https://accesshub.pdc.wa.gov/node/59789),Local government,Local Government,REVENUE LOCAL GOV TRANSPORTATION
65229,60735-19218,60735,FE,17779,MCBRIDE PUBLIC AFFAIRS LLC*,Employer,19218,KITSAP CO,19-Nov,2/22/2020,16580.0,KITSAP CO,5500.0,0.0,5500.0,0.0,0.0,0.0,0.0,0.0,0.0,0.0,5500.0,19218.0,Direct,,,View report (https://accesshub.pdc.wa.gov/node/60735),Local government,Local Government,REVENUE LOCAL GOV TRANSPORTATION
65230,61642-19218,61642,FE,17779,MCBRIDE PUBLIC AFFAIRS LLC*,Employer,19218,KITSAP CO,19-Dec,2/22/2020,16580.0,KITSAP CO,5500.0,0.0,5500.0,0.0,0.0,0.0,0.0,0.0,0.0,0.0,5500.0,19218.0,Direct,,,View report (https://accesshub.pdc.wa.gov/node/61642),Local government,Local Government,REVENUE LOCAL GOV TRANSPORTATION
65231,50377-19219,50377,FE,17779,MCBRIDE PUBLIC AFFAIRS LLC*,Employer,19219,McDonalds Corporation,19-Jan,2/22/2020,16625.0,McDonalds Corporation,3333.33,-1750.0,1583.33,0.0,0.0,0.0,0.0,0.0,0.0,0.0,1583.33,19219.0,Direct,,,View report (https://accesshub.pdc.wa.gov/node/50377),Business and consumer affairs,COMMERCE,LABOR COMMERCE AND LABOR
65232,52925-19219,52925,FE,17779,MCBRIDE PUBLIC AFFAIRS LLC*,Employer,19219,McDonalds Corporation,19-Feb,2/22/2020,16625.0,McDonalds Corporation,3333.33,-1750.0,1583.33,0.0,0.0,0.0,0.0,0.0,0.0,0.0,1583.33,19219.0,Direct,,,View report (https://accesshub.pdc.wa.gov/node/52925),Business and consumer affairs,COMMERCE,LABOR COMMERCE AND LABOR
65233,54158-19219,54158,FE,17779,MCBRIDE PUBLIC AFFAIRS LLC*,Employer,19219,McDonalds Corporation,19-Mar,2/22/2020,16625.0,McDonalds Corporation,3333.33,-1750.0,1583.33,0.0,0.0,0.0,0.0,0.0,0.0,0.0,1583.33,19219.0,Direct,,,View report (https://accesshub.pdc.wa.gov/node/54158),Business and consumer affairs,COMMERCE,LABOR COMMERCE AND LABOR
65234,55054-19219,55054,FE,17779,MCBRIDE PUBLIC AFFAIRS LLC*,Employer,19219,McDonalds Corporation,19-Apr,2/22/2020,16625.0,McDonalds Corporation,3333.33,-1750.0,1583.33,0.0,0.0,0.0,0.0,0.0,0.0,0.0,1583.33,19219.0,Direct,,,View report (https://accesshub.pdc.wa.gov/node/55054),Business and consumer affairs,COMMERCE,LABOR COMMERCE AND LABOR
65235,55898-19219,55898,FE,17779,MCBRIDE PUBLIC AFFAIRS LLC*,Employer,19219,McDonalds Corporation,19-May,2/22/2020,16625.0,McDonalds Corporation,3333.33,-1750.0,1583.33,0.0,0.0,0.0,0.0,0.0,0.0,0.0,1583.33,19219.0,Direct,,,View report (https://accesshub.pdc.wa.gov/node/55898),Business and consumer affairs,COMMERCE,LABOR COMMERCE AND LABOR
65236,56077-19219,56077,FE,17779,MCBRIDE PUBLIC AFFAIRS LLC*,Employer,19219,McDonalds Corporation,19-Jun,2/22/2020,16625.0,McDonalds Corporation,3333.33,-1750.0,1583.33,0.0,0.0,0.0,0.0,0.0,0.0,0.0,1583.33,19219.0,Direct,,,View report (https://accesshub.pdc.wa.gov/node/56077),Business and consumer affairs,COMMERCE,LABOR COMMERCE AND LABOR
65237,57547-19219,57547,FE,17779,MCBRIDE PUBLIC AFFAIRS LLC*,Employer,19219,McDonalds Corporation,19-Jul,2/22/2020,16625.0,McDonalds Corporation,3333.33,-1750.0,1583.33,0.0,0.0,0.0,0.0,0.0,0.0,0.0,1583.33,19219.0,Direct,,,View report (https://accesshub.pdc.wa.gov/node/57547),Business and consumer affairs,COMMERCE,LABOR COMMERCE AND LABOR
65238,58390-19219,58390,FE,17779,MCBRIDE PUBLIC AFFAIRS LLC*,Employer,19219,McDonalds Corporation,19-Aug,2/22/2020,16625.0,McDonalds Corporation,3333.33,-1750.0,1583.33,0.0,0.0,0.0,0.0,0.0,0.0,0.0,1583.33,19219.0,Direct,,,View report (https://accesshub.pdc.wa.gov/node/58390),Business and consumer affairs,COMMERCE,LABOR COMMERCE AND LABOR
65239,58943-19219,58943,FE,17779,MCBRIDE PUBLIC AFFAIRS LLC*,Employer,19219,McDonalds Corporation,19-Sep,2/22/2020,16625.0,McDonalds Corporation,3333.33,-1750.0,1583.33,0.0,0.0,0.0,0.0,0.0,0.0,0.0,1583.33,19219.0,Direct,,,View report (https://accesshub.pdc.wa.gov/node/58943),Business and consumer affairs,COMMERCE,LABOR COMMERCE AND LABOR
65240,59789-19219,59789,FE,17779,MCBRIDE PUBLIC AFFAIRS LLC*,Employer,19219,McDonalds Corporation,19-Oct,2/22/2020,16625.0,McDonalds Corporation,3333.33,-1750.0,1583.33,0.0,0.0,0.0,0.0,0.0,0.0,0.0,1583.33,19219.0,Direct,,,View report (https://accesshub.pdc.wa.gov/node/59789),Business and consumer affairs,COMMERCE,LABOR COMMERCE AND LABOR
65241,60735-19219,60735,FE,17779,MCBRIDE PUBLIC AFFAIRS LLC*,Employer,19219,McDonalds Corporation,19-Nov,2/22/2020,16625.0,McDonalds Corporation,3333.33,-1750.0,1583.33,0.0,0.0,0.0,0.0,0.0,0.0,0.0,1583.33,19219.0,Direct,,,View report (https://accesshub.pdc.wa.gov/node/60735),Business and consumer affairs,COMMERCE,LABOR COMMERCE AND LABOR
65242,61642-19219,61642,FE,17779,MCBRIDE PUBLIC AFFAIRS LLC*,Employer,19219,McDonalds Corporation,19-Dec,2/22/2020,16625.0,McDonalds Corporation,3333.33,-1750.0,1583.33,0.0,0.0,0.0,0.0,0.0,0.0,0.0,1583.33,19219.0,Direct,,,View report (https://accesshub.pdc.wa.gov/node/61642),Business and consumer affairs,COMMERCE,LABOR COMMERCE AND LABOR
65243,51385-48831,51385,FE,27377,Ludeman Public Affairs,Employer,48831,MCNA HEALTH CARE HOLDINGS (GANO & ASSOC*),19-Jan,2/22/2020,16627.0,MCNA HEALTH CARE HOLDINGS,529.29,0.0,529.29,0.0,0.0,0.0,0.0,0.0,0.0,0.0,529.29,48831.0,Subcontract,17565.0,GANO & ASSOC*,View report (https://accesshub.pdc.wa.gov/node/51385),,,
65244,53403-48831,53403,FE,27377,Ludeman Public Affairs,Employer,48831,MCNA HEALTH CARE HOLDINGS (GANO & ASSOC*),19-Feb,2/22/2020,16627.0,MCNA HEALTH CARE HOLDINGS,529.29,0.0,529.29,0.0,0.0,0.0,0.0,0.0,0.0,0.0,529.29,48831.0,Subcontract,17565.0,GANO & ASSOC*,View report (https://accesshub.pdc.wa.gov/node/53403),,,
65245,54427-48831,54427,FE,27377,Ludeman Public Affairs,Employer,48831,MCNA HEALTH CARE HOLDINGS (GANO & ASSOC*),19-Mar,2/22/2020,16627.0,MCNA HEALTH CARE HOLDINGS,529.29,0.0,529.29,0.0,0.0,0.0,0.0,0.0,0.0,0.0,529.29,48831.0,Subcontract,17565.0,GANO & ASSOC*,View report (https://accesshub.pdc.wa.gov/node/54427),,,
65246,50377-19220,50377,FE,17779,MCBRIDE PUBLIC AFFAIRS LLC*,Employer,19220,MERSCORP INC (THRU MULTISTATE ASSOCIATES LLC),19-Jan,2/22/2020,16633.0,MERSCORP INC (THRU MULTISTATE ASSOCIATES LLC),4750.0,0.0,4750.0,0.0,0.0,0.0,0.0,0.0,0.0,0.0,4750.0,19220.0,Direct,,,View report (https://accesshub.pdc.wa.gov/node/50377),,,
65247,52925-19220,52925,FE,17779,MCBRIDE PUBLIC AFFAIRS LLC*,Employer,19220,MERSCORP INC (THRU MULTISTATE ASSOCIATES LLC),19-Feb,2/22/2020,16633.0,MERSCORP INC (THRU MULTISTATE ASSOCIATES LLC),4750.0,0.0,4750.0,0.0,0.0,0.0,0.0,0.0,0.0,0.0,4750.0,19220.0,Direct,,,View report (https://accesshub.pdc.wa.gov/node/52925),State government,State Government,House Senate All
65248,54158-19220,54158,FE,17779,MCBRIDE PUBLIC AFFAIRS LLC*,Employer,19220,MERSCORP INC (THRU MULTISTATE ASSOCIATES LLC),19-Mar,2/22/2020,16633.0,MERSCORP INC (THRU MULTISTATE ASSOCIATES LLC),4750.0,0.0,4750.0,0.0,0.0,0.0,0.0,0.0,0.0,0.0,4750.0,19220.0,Direct,,,View report (https://accesshub.pdc.wa.gov/node/54158),State government,State Government,House Senate All
65249,55054-19220,55054,FE,17779,MCBRIDE PUBLIC AFFAIRS LLC*,Employer,19220,MERSCORP INC (THRU MULTISTATE ASSOCIATES LLC),19-Apr,2/22/2020,16633.0,MERSCORP INC (THRU MULTISTATE ASSOCIATES LLC),4750.0,0.0,4750.0,0.0,0.0,0.0,0.0,0.0,0.0,0.0,4750.0,19220.0,Direct,,,View report (https://accesshub.pdc.wa.gov/node/55054),State government,State Government,House Senate All
65250,51385-29324,51385,FE,27377,Ludeman Public Affairs,Employer,29324,Viatris Inc.,19-Jan,2/22/2020,16653.0,Viatris Inc.,3500.0,0.0,3500.0,0.0,0.0,0.0,0.0,0.0,0.0,0.0,3500.0,29324.0,Direct,,,View report (https://accesshub.pdc.wa.gov/node/51385),Health Care,pharmacueticals,H and S Health Care Committees
65251,53403-29324,53403,FE,27377,Ludeman Public Affairs,Employer,29324,Viatris Inc.,19-Feb,2/22/2020,16653.0,Viatris Inc.,3500.0,0.0,3500.0,0.0,0.0,0.0,0.0,0.0,0.0,0.0,3500.0,29324.0,Direct,,,View report (https://accesshub.pdc.wa.gov/node/53403),Health Care,pharmacueticals,H and S Health Care Committees
65252,54427-29324,54427,FE,27377,Ludeman Public Affairs,Employer,29324,Viatris Inc.,19-Mar,2/22/2020,16653.0,Viatris Inc.,3500.0,0.0,3500.0,0.0,0.0,0.0,0.0,0.0,0.0,0.0,3500.0,29324.0,Direct,,,View report (https://accesshub.pdc.wa.gov/node/54427),Health Care,pharmacueticals,H and S Health Care Committees
65253,51385-28328,51385,FE,27377,Ludeman Public Affairs,Employer,28328,NATL ELECTRICAL CONTRACTORS ASSN,19-Jan,2/22/2020,16662.0,NATL ELECTRICAL CONTRACTORS ASSN,5000.0,0.0,5000.0,0.0,0.0,0.0,0.0,0.0,0.0,0.0,5000.0,28328.0,Direct,,,View report (https://accesshub.pdc.wa.gov/node/51385),Business and consumer affairs,Construction,"H & S Commerce & Labor Committees, House & Senate"
65254,53403-28328,53403,FE,27377,Ludeman Public Affairs,Employer,28328,NATL ELECTRICAL CONTRACTORS ASSN,19-Feb,2/22/2020,16662.0,NATL ELECTRICAL CONTRACTORS ASSN,5000.0,0.0,5000.0,0.0,0.0,0.0,0.0,0.0,0.0,0.0,5000.0,28328.0,Direct,,,View report (https://accesshub.pdc.wa.gov/node/53403),Business and consumer affairs,Construction,"H & S Commerce & Labor Committees, House & Senate"
65255,54427-28328,54427,FE,27377,Ludeman Public Affairs,Employer,28328,NATL ELECTRICAL CONTRACTORS ASSN,19-Mar,2/22/2020,16662.0,NATL ELECTRICAL CONTRACTORS ASSN,5000.0,0.0,5000.0,0.0,0.0,0.0,0.0,0.0,0.0,0.0,5000.0,28328.0,Direct,,,View report (https://accesshub.pdc.wa.gov/node/54427),Business and consumer affairs,Construction,"H & S Commerce & Labor Committees, House & Senate"
65256,50377-19221,50377,FE,17779,MCBRIDE PUBLIC AFFAIRS LLC*,Employer,19221,NATIONAL ELEVATOR INDUSTRY INC,19-Jan,2/22/2020,16663.0,NATIONAL ELEVATOR INDUSTRY INC,3000.0,0.0,3000.0,0.0,0.0,0.0,0.0,0.0,0.0,0.0,3000.0,19221.0,Direct,,,View report (https://accesshub.pdc.wa.gov/node/50377),Business and consumer affairs,COMMERCE,ELEVATOR REGS L&I LABOR COMMERCE
65257,52925-19221,52925,FE,17779,MCBRIDE PUBLIC AFFAIRS LLC*,Employer,19221,NATIONAL ELEVATOR INDUSTRY INC,19-Feb,2/22/2020,16663.0,NATIONAL ELEVATOR INDUSTRY INC,3000.0,0.0,3000.0,0.0,0.0,0.0,0.0,0.0,0.0,0.0,3000.0,19221.0,Direct,,,View report (https://accesshub.pdc.wa.gov/node/52925),Business and consumer affairs,COMMERCE,ELEVATOR REGS L&I LABOR COMMERCE
65258,54158-19221,54158,FE,17779,MCBRIDE PUBLIC AFFAIRS LLC*,Employer,19221,NATIONAL ELEVATOR INDUSTRY INC,19-Mar,2/22/2020,16663.0,NATIONAL ELEVATOR INDUSTRY INC,3000.0,0.0,3000.0,0.0,0.0,0.0,0.0,0.0,0.0,0.0,3000.0,19221.0,Direct,,,View report (https://accesshub.pdc.wa.gov/node/54158),Business and consumer affairs,COMMERCE,ELEVATOR REGS L&I LABOR COMMERCE
65259,55054-19221,55054,FE,17779,MCBRIDE PUBLIC AFFAIRS LLC*,Employer,19221,NATIONAL ELEVATOR INDUSTRY INC,19-Apr,2/22/2020,16663.0,NATIONAL ELEVATOR INDUSTRY INC,3000.0,0.0,3000.0,0.0,0.0,0.0,0.0,0.0,0.0,0.0,3000.0,19221.0,Direct,,,View report (https://accesshub.pdc.wa.gov/node/55054),Business and consumer affairs,COMMERCE,ELEVATOR REGS L&I LABOR COMMERCE
65260,55898-19221,55898,FE,17779,MCBRIDE PUBLIC AFFAIRS LLC*,Employer,19221,NATIONAL ELEVATOR INDUSTRY INC,19-May,2/22/2020,16663.0,NATIONAL ELEVATOR INDUSTRY INC,3000.0,0.0,3000.0,0.0,0.0,0.0,0.0,0.0,0.0,0.0,3000.0,19221.0,Direct,,,View report (https://accesshub.pdc.wa.gov/node/55898),Business and consumer affairs,COMMERCE,ELEVATOR REGS L&I LABOR COMMERCE
65261,56077-19221,56077,FE,17779,MCBRIDE PUBLIC AFFAIRS LLC*,Employer,19221,NATIONAL ELEVATOR INDUSTRY INC,19-Jun,2/22/2020,16663.0,NATIONAL ELEVATOR INDUSTRY INC,3000.0,0.0,3000.0,0.0,0.0,0.0,0.0,0.0,0.0,0.0,3000.0,19221.0,Direct,,,View report (https://accesshub.pdc.wa.gov/node/56077),Business and consumer affairs,COMMERCE,ELEVATOR REGS L&I LABOR COMMERCE
65262,57547-19221,57547,FE,17779,MCBRIDE PUBLIC AFFAIRS LLC*,Employer,19221,NATIONAL ELEVATOR INDUSTRY INC,19-Jul,2/22/2020,16663.0,NATIONAL ELEVATOR INDUSTRY INC,3000.0,0.0,3000.0,0.0,0.0,0.0,0.0,0.0,0.0,0.0,3000.0,19221.0,Direct,,,View report (https://accesshub.pdc.wa.gov/node/57547),Business and consumer affairs,COMMERCE,ELEVATOR REGS L&I LABOR COMMERCE
65263,58390-19221,58390,FE,17779,MCBRIDE PUBLIC AFFAIRS LLC*,Employer,19221,NATIONAL ELEVATOR INDUSTRY INC,19-Aug,2/22/2020,16663.0,NATIONAL ELEVATOR INDUSTRY INC,3000.0,0.0,3000.0,0.0,0.0,0.0,0.0,0.0,0.0,0.0,3000.0,19221.0,Direct,,,View report (https://accesshub.pdc.wa.gov/node/58390),Business and consumer affairs,COMMERCE,ELEVATOR REGS L&I LABOR COMMERCE
65264,58943-19221,58943,FE,17779,MCBRIDE PUBLIC AFFAIRS LLC*,Employer,19221,NATIONAL ELEVATOR INDUSTRY INC,19-Sep,2/22/2020,16663.0,NATIONAL ELEVATOR INDUSTRY INC,3000.0,0.0,3000.0,0.0,0.0,0.0,0.0,0.0,0.0,0.0,3000.0,19221.0,Direct,,,View report (https://accesshub.pdc.wa.gov/node/58943),Business and consumer affairs,COMMERCE,ELEVATOR REGS L&I LABOR COMMERCE
65265,59789-19221,59789,FE,17779,MCBRIDE PUBLIC AFFAIRS LLC*,Employer,19221,NATIONAL ELEVATOR INDUSTRY INC,19-Oct,2/22/2020,16663.0,NATIONAL ELEVATOR INDUSTRY INC,3000.0,0.0,3000.0,0.0,0.0,0.0,0.0,0.0,0.0,0.0,3000.0,19221.0,Direct,,,View report (https://accesshub.pdc.wa.gov/node/59789),Business and consumer affairs,COMMERCE,ELEVATOR REGS L&I LABOR COMMERCE
65266,60735-19221,60735,FE,17779,MCBRIDE PUBLIC AFFAIRS LLC*,Employer,19221,NATIONAL ELEVATOR INDUSTRY INC,19-Nov,2/22/2020,16663.0,NATIONAL ELEVATOR INDUSTRY INC,3000.0,0.0,3000.0,60.32,0.0,0.0,0.0,0.0,0.0,60.32,3060.32,19221.0,Direct,,,View report (https://accesshub.pdc.wa.gov/node/60735),Business and consumer affairs,COMMERCE,ELEVATOR REGS L&I LABOR COMMERCE
65267,61642-19221,61642,FE,17779,MCBRIDE PUBLIC AFFAIRS LLC*,Employer,19221,NATIONAL ELEVATOR INDUSTRY INC,19-Dec,2/22/2020,16663.0,NATIONAL ELEVATOR INDUSTRY INC,3000.0,0.0,3000.0,0.0,0.0,0.0,0.0,0.0,0.0,0.0,3000.0,19221.0,Direct,,,View report (https://accesshub.pdc.wa.gov/node/61642),Business and consumer affairs,COMMERCE,ELEVATOR REGS L&I LABOR COMMERCE
65268,51385-27379,51385,FE,27377,Ludeman Public Affairs,Employer,27379,ALTRIA CLIENT SERVICES LLC & ITS AFFILIATES (GANO & ASSOC*),19-Jan,2/22/2020,16778.0,ALTRIA CLIENT SERVICES LLC & ITS AFFILIATES,971.11,0.0,971.11,0.0,0.0,0.0,0.0,0.0,0.0,0.0,971.11,27379.0,Subcontract,17565.0,GANO & ASSOC*,View report (https://accesshub.pdc.wa.gov/node/51385),,,
65269,53403-27379,53403,FE,27377,Ludeman Public Affairs,Employer,27379,ALTRIA CLIENT SERVICES LLC & ITS AFFILIATES (GANO & ASSOC*),19-Feb,2/22/2020,16778.0,ALTRIA CLIENT SERVICES LLC & ITS AFFILIATES,971.11,0.0,971.11,0.0,0.0,0.0,0.0,0.0,0.0,0.0,971.11,27379.0,Subcontract,17565.0,GANO & ASSOC*,View report (https://accesshub.pdc.wa.gov/node/53403),,,
65270,54427-27379,54427,FE,27377,Ludeman Public Affairs,Employer,27379,ALTRIA CLIENT SERVICES LLC & ITS AFFILIATES (GANO & ASSOC*),19-Mar,2/22/2020,16778.0,ALTRIA CLIENT SERVICES LLC & ITS AFFILIATES,971.11,0.0,971.11,0.0,0.0,0.0,0.0,0.0,0.0,0.0,971.11,27379.0,Subcontract,17565.0,GANO & ASSOC*,View report (https://accesshub.pdc.wa.gov/node/54427),,,
65271,50377-19222,50377,FE,17779,MCBRIDE PUBLIC AFFAIRS LLC*,Employer,19222,PORT OF BELLINGHAM,19-Jan,2/22/2020,16792.0,PORT OF BELLINGHAM,2500.0,-1250.0,1250.0,0.0,0.0,0.0,0.0,0.0,0.0,0.0,1250.0,19222.0,Direct,,,View report (https://accesshub.pdc.wa.gov/node/50377),Local government,MTCA,BUDGET LOCAL GOVT TRANSPORTATION
65272,52925-19222,52925,FE,17779,MCBRIDE PUBLIC AFFAIRS LLC*,Employer,19222,PORT OF BELLINGHAM,19-Feb,2/22/2020,16792.0,PORT OF BELLINGHAM,2500.0,-1250.0,1250.0,0.0,0.0,0.0,0.0,0.0,0.0,0.0,1250.0,19222.0,Direct,,,View report (https://accesshub.pdc.wa.gov/node/52925),Local government,MTCA,BUDGET LOCAL GOVT TRANSPORTATION
65273,54158-19222,54158,FE,17779,MCBRIDE PUBLIC AFFAIRS LLC*,Employer,19222,PORT OF BELLINGHAM,19-Mar,2/22/2020,16792.0,PORT OF BELLINGHAM,2500.0,-1250.0,1250.0,0.0,0.0,0.0,0.0,0.0,0.0,0.0,1250.0,19222.0,Direct,,,View report (https://accesshub.pdc.wa.gov/node/54158),Local government,MTCA,BUDGET LOCAL GOVT TRANSPORTATION
65274,55054-19222,55054,FE,17779,MCBRIDE PUBLIC AFFAIRS LLC*,Employer,19222,PORT OF BELLINGHAM,19-Apr,2/22/2020,16792.0,PORT OF BELLINGHAM,2500.0,-1250.0,1250.0,0.0,0.0,0.0,0.0,0.0,0.0,0.0,1250.0,19222.0,Direct,,,View report (https://accesshub.pdc.wa.gov/node/55054),Local government,MTCA,BUDGET LOCAL GOVT TRANSPORTATION
65275,55898-19222,55898,FE,17779,MCBRIDE PUBLIC AFFAIRS LLC*,Employer,19222,PORT OF BELLINGHAM,19-May,2/22/2020,16792.0,PORT OF BELLINGHAM,2500.0,-1250.0,1250.0,0.0,0.0,0.0,0.0,0.0,0.0,0.0,1250.0,19222.0,Direct,,,View report (https://accesshub.pdc.wa.gov/node/55898),Local government,MTCA,BUDGET LOCAL GOVT TRANSPORTATION
65276,56077-19222,56077,FE,17779,MCBRIDE PUBLIC AFFAIRS LLC*,Employer,19222,PORT OF BELLINGHAM,19-Jun,2/22/2020,16792.0,PORT OF BELLINGHAM,2500.0,-1250.0,1250.0,0.0,0.0,0.0,0.0,0.0,0.0,0.0,1250.0,19222.0,Direct,,,View report (https://accesshub.pdc.wa.gov/node/56077),Local government,MTCA,BUDGET LOCAL GOVT TRANSPORTATION
65277,57547-19222,57547,FE,17779,MCBRIDE PUBLIC AFFAIRS LLC*,Employer,19222,PORT OF BELLINGHAM,19-Jul,2/22/2020,16792.0,PORT OF BELLINGHAM,2500.0,-1250.0,1250.0,0.0,0.0,0.0,0.0,0.0,0.0,0.0,1250.0,19222.0,Direct,,,View report (https://accesshub.pdc.wa.gov/node/57547),Local government,MTCA,BUDGET LOCAL GOVT TRANSPORTATION
65278,58390-19222,58390,FE,17779,MCBRIDE PUBLIC AFFAIRS LLC*,Employer,19222,PORT OF BELLINGHAM,19-Aug,2/22/2020,16792.0,PORT OF BELLINGHAM,2500.0,-1250.0,1250.0,0.0,0.0,0.0,0.0,0.0,0.0,0.0,1250.0,19222.0,Direct,,,View report (https://accesshub.pdc.wa.gov/node/58390),Local government,MTCA,BUDGET LOCAL GOVT TRANSPORTATION
65279,58943-19222,58943,FE,17779,MCBRIDE PUBLIC AFFAIRS LLC*,Employer,19222,PORT OF BELLINGHAM,19-Sep,2/22/2020,16792.0,PORT OF BELLINGHAM,2500.0,-1250.0,1250.0,0.0,0.0,0.0,0.0,0.0,0.0,0.0,1250.0,19222.0,Direct,,,View report (https://accesshub.pdc.wa.gov/node/58943),Local government,MTCA,BUDGET LOCAL GOVT TRANSPORTATION
65280,59789-19222,59789,FE,17779,MCBRIDE PUBLIC AFFAIRS LLC*,Employer,19222,PORT OF BELLINGHAM,19-Oct,2/22/2020,16792.0,PORT OF BELLINGHAM,2500.0,-1250.0,1250.0,0.0,0.0,0.0,0.0,0.0,0.0,0.0,1250.0,19222.0,Direct,,,View report (https://accesshub.pdc.wa.gov/node/59789),Local government,MTCA,BUDGET LOCAL GOVT TRANSPORTATION
65281,60735-19222,60735,FE,17779,MCBRIDE PUBLIC AFFAIRS LLC*,Employer,19222,PORT OF BELLINGHAM,19-Nov,2/22/2020,16792.0,PORT OF BELLINGHAM,2500.0,-1250.0,1250.0,0.0,0.0,0.0,0.0,0.0,0.0,0.0,1250.0,19222.0,Direct,,,View report (https://accesshub.pdc.wa.gov/node/60735),Local government,MTCA,BUDGET LOCAL GOVT TRANSPORTATION
65282,61642-19222,61642,FE,17779,MCBRIDE PUBLIC AFFAIRS LLC*,Employer,19222,PORT OF BELLINGHAM,19-Dec,2/22/2020,16792.0,PORT OF BELLINGHAM,2500.0,-1250.0,1250.0,0.0,0.0,0.0,0.0,0.0,0.0,0.0,1250.0,19222.0,Direct,,,View report (https://accesshub.pdc.wa.gov/node/61642),Local government,MTCA,BUDGET LOCAL GOVT TRANSPORTATION
65283,59671-19239,59671,FE,17786,Leonard A Mc Comb,Employer,19239,PORT OF EVERETT,19-Sep,2/22/2020,16797.0,PORT OF EVERETT,3500.0,-2000.0,1500.0,0.0,0.0,0.0,0.0,0.0,0.0,0.0,1500.0,19239.0,Direct,,,View report (https://accesshub.pdc.wa.gov/node/59671),,,
65284,61352-19239,61352,FE,17786,Leonard A Mc Comb,Employer,19239,PORT OF EVERETT,19-Oct,2/22/2020,16797.0,PORT OF EVERETT,3500.0,-2000.0,1500.0,0.0,0.0,0.0,0.0,0.0,0.0,0.0,1500.0,19239.0,Direct,,,View report (https://accesshub.pdc.wa.gov/node/61352),Environmental Affairs - natural resources - parks,CAPITAL BUDGET SB 5993,CAPITAL WAYS AND MEANS FINANCE
65285,50377-19223,50377,FE,17779,MCBRIDE PUBLIC AFFAIRS LLC*,Employer,19223,PUBLIC CONSULTING GROUP LLC  c/o MultiState Associates Inc.,19-Jan,2/22/2020,16823.0,PUBLIC CONSULTING GROUP LLC  c/o MultiState Associates Inc.,4250.0,0.0,4250.0,0.0,0.0,0.0,0.0,0.0,0.0,0.0,4250.0,19223.0,Direct,,,View report (https://accesshub.pdc.wa.gov/node/50377),,,
65286,52925-19223,52925,FE,17779,MCBRIDE PUBLIC AFFAIRS LLC*,Employer,19223,PUBLIC CONSULTING GROUP LLC  c/o MultiState Associates Inc.,19-Feb,2/22/2020,16823.0,PUBLIC CONSULTING GROUP LLC  c/o MultiState Associates Inc.,4250.0,0.0,4250.0,0.0,0.0,0.0,0.0,0.0,0.0,0.0,4250.0,19223.0,Direct,,,View report (https://accesshub.pdc.wa.gov/node/52925),,,
65287,54158-19223,54158,FE,17779,MCBRIDE PUBLIC AFFAIRS LLC*,Employer,19223,PUBLIC CONSULTING GROUP LLC  c/o MultiState Associates Inc.,19-Mar,2/22/2020,16823.0,PUBLIC CONSULTING GROUP LLC  c/o MultiState Associates Inc.,4250.0,0.0,4250.0,0.0,0.0,0.0,0.0,0.0,0.0,0.0,4250.0,19223.0,Direct,,,View report (https://accesshub.pdc.wa.gov/node/54158),,,
65288,55054-19223,55054,FE,17779,MCBRIDE PUBLIC AFFAIRS LLC*,Employer,19223,PUBLIC CONSULTING GROUP LLC  c/o MultiState Associates Inc.,19-Apr,2/22/2020,16823.0,PUBLIC CONSULTING GROUP LLC  c/o MultiState Associates Inc.,4250.0,0.0,4250.0,0.0,0.0,0.0,0.0,0.0,0.0,0.0,4250.0,19223.0,Direct,,,View report (https://accesshub.pdc.wa.gov/node/55054),,,
65289,55898-19223,55898,FE,17779,MCBRIDE PUBLIC AFFAIRS LLC*,Employer,19223,PUBLIC CONSULTING GROUP LLC  c/o MultiState Associates Inc.,19-May,2/22/2020,16823.0,PUBLIC CONSULTING GROUP LLC  c/o MultiState Associates Inc.,4250.0,0.0,4250.0,0.0,0.0,0.0,0.0,0.0,0.0,0.0,4250.0,19223.0,Direct,,,View report (https://accesshub.pdc.wa.gov/node/55898),,,
65290,56077-19223,56077,FE,17779,MCBRIDE PUBLIC AFFAIRS LLC*,Employer,19223,PUBLIC CONSULTING GROUP LLC  c/o MultiState Associates Inc.,19-Jun,2/22/2020,16823.0,PUBLIC CONSULTING GROUP LLC  c/o MultiState Associates Inc.,4250.0,0.0,4250.0,0.0,0.0,0.0,0.0,0.0,0.0,0.0,4250.0,19223.0,Direct,,,View report (https://accesshub.pdc.wa.gov/node/56077),,,
65291,57547-19223,57547,FE,17779,MCBRIDE PUBLIC AFFAIRS LLC*,Employer,19223,PUBLIC CONSULTING GROUP LLC  c/o MultiState Associates Inc.,19-Jul,2/22/2020,16823.0,PUBLIC CONSULTING GROUP LLC  c/o MultiState Associates Inc.,4250.0,0.0,4250.0,0.0,0.0,0.0,0.0,0.0,0.0,0.0,4250.0,19223.0,Direct,,,View report (https://accesshub.pdc.wa.gov/node/57547),,,
65292,58390-19223,58390,FE,17779,MCBRIDE PUBLIC AFFAIRS LLC*,Employer,19223,PUBLIC CONSULTING GROUP LLC  c/o MultiState Associates Inc.,19-Aug,2/22/2020,16823.0,PUBLIC CONSULTING GROUP LLC  c/o MultiState Associates Inc.,2000.0,0.0,2000.0,0.0,0.0,0.0,0.0,0.0,0.0,0.0,2000.0,19223.0,Direct,,,View report (https://accesshub.pdc.wa.gov/node/58390),,,
65293,58943-19223,58943,FE,17779,MCBRIDE PUBLIC AFFAIRS LLC*,Employer,19223,PUBLIC CONSULTING GROUP LLC  c/o MultiState Associates Inc.,19-Sep,2/22/2020,16823.0,PUBLIC CONSULTING GROUP LLC  c/o MultiState Associates Inc.,2000.0,0.0,2000.0,0.0,0.0,0.0,0.0,0.0,0.0,0.0,2000.0,19223.0,Direct,,,View report (https://accesshub.pdc.wa.gov/node/58943),,,
65294,59789-19223,59789,FE,17779,MCBRIDE PUBLIC AFFAIRS LLC*,Employer,19223,PUBLIC CONSULTING GROUP LLC  c/o MultiState Associates Inc.,19-Oct,2/22/2020,16823.0,PUBLIC CONSULTING GROUP LLC  c/o MultiState Associates Inc.,2000.0,0.0,2000.0,0.0,0.0,0.0,0.0,0.0,0.0,0.0,2000.0,19223.0,Direct,,,View report (https://accesshub.pdc.wa.gov/node/59789),,,
65295,60735-19223,60735,FE,17779,MCBRIDE PUBLIC AFFAIRS LLC*,Employer,19223,PUBLIC CONSULTING GROUP LLC  c/o MultiState Associates Inc.,19-Nov,2/22/2020,16823.0,PUBLIC CONSULTING GROUP LLC  c/o MultiState Associates Inc.,2000.0,0.0,2000.0,0.0,0.0,0.0,0.0,0.0,0.0,0.0,2000.0,19223.0,Direct,,,View report (https://accesshub.pdc.wa.gov/node/60735),,,
65296,61642-19223,61642,FE,17779,MCBRIDE PUBLIC AFFAIRS LLC*,Employer,19223,PUBLIC CONSULTING GROUP LLC  c/o MultiState Associates Inc.,19-Dec,2/22/2020,16823.0,PUBLIC CONSULTING GROUP LLC  c/o MultiState Associates Inc.,2000.0,0.0,2000.0,0.0,0.0,0.0,0.0,0.0,0.0,0.0,2000.0,19223.0,Direct,,,View report (https://accesshub.pdc.wa.gov/node/61642),,,
