,id,report_number,origin,filer_id,filer_name,type,funding_source_id,funding_source_name,filing_period,receipt_date,employer_id,employer_name,compensation,sub_lobbyist_compensation,net_compensation,personal_expenses,entertainment,contributions,advertising,political_ads,other,total_expenses,net_total,employment_registration_id,employment_type,contractor_id,contractor_name,url,legislation_subject_matter,issue_bill_number,committee_lobbied
70000,66895-18676,66895,FE,17528,LUKE ESSER,Employer,18676,SEIU 775,20-Mar,4/16/2020,16905.0,SEIU 775,4500.0,0.0,4500.0,0.0,0.0,0.0,0.0,0.0,0.0,0.0,4500.0,18676.0,Direct,,,View report (https://accesshub.pdc.wa.gov/node/66895),Fiscal,Medicaid,Sen. Ways & Means; House Appropriations
70001,66895-40644,66895,FE,17528,LUKE ESSER,Employer,40644,SIGNATURE HEALTHCARE SERVICES LLC,20-Mar,4/16/2020,16917.0,SIGNATURE HEALTHCARE SERVICES LLC,4000.0,-2000.0,2000.0,0.0,0.0,0.0,0.0,0.0,0.0,0.0,2000.0,40644.0,Direct,,,View report (https://accesshub.pdc.wa.gov/node/66895),Health Care,Mental Health,"Senate Health & Long Term Care; House Health Care & Wellness, Dept. of Health, Dept. of Social & Health Services"
70002,66917-37230,66917,FE,37193,Courtney Blatz,Employer,37230,Washington Solar Energy Industries Association (BOSWELL CONSULTING*),20-Mar,4/16/2020,16929.0,Washington Solar Energy Industries Association,233.0,0.0,233.0,0.0,0.0,0.0,0.0,0.0,0.0,0.0,233.0,37230.0,Subcontract,17398.0,BOSWELL CONSULTING*,View report (https://accesshub.pdc.wa.gov/node/66917),,,
70003,66917-40682,66917,FE,37193,Courtney Blatz,Employer,40682,PEACEHEALTH (BOSWELL CONSULTING*),20-Mar,4/16/2020,16934.0,PEACEHEALTH,233.0,0.0,233.0,0.0,0.0,0.0,0.0,0.0,0.0,0.0,233.0,40682.0,Subcontract,17398.0,BOSWELL CONSULTING*,View report (https://accesshub.pdc.wa.gov/node/66917),,,
70004,66917-37204,66917,FE,37193,Courtney Blatz,Employer,37204,"STAND FOR CHILDREN, INC. (CHRISTOPHERSEN INC*)",20-Mar,4/16/2020,16949.0,"STAND FOR CHILDREN, INC.",363.63,0.0,363.63,0.0,0.0,0.0,0.0,0.0,0.0,0.0,363.63,37204.0,Subcontract,17348.0,CHRISTOPHERSEN INC*,View report (https://accesshub.pdc.wa.gov/node/66917),,,
70005,66899-18296,66899,FE,17399,MARCY BOWERS,Employer,18296,STATEWIDE POVERTY ACTION NETWORK,20-Mar,4/16/2020,16952.0,STATEWIDE POVERTY ACTION NETWORK,281.04,0.0,281.04,0.0,0.0,0.0,0.0,0.0,0.0,0.0,281.04,18296.0,Direct,,,View report (https://accesshub.pdc.wa.gov/node/66899),Human services,"TANF, ABD, SNAP, housing pilot","DSHS, Commerce"
70006,66897-18267,66897,FE,17393,Bogard & Johnson LLC,Employer,18267,WA TOURISM ALLIANCE,20-Mar,4/16/2020,16987.0,WA TOURISM ALLIANCE,4000.0,0.0,4000.0,0.0,0.0,0.0,0.0,0.0,0.0,0.0,4000.0,18267.0,Direct,,,View report (https://accesshub.pdc.wa.gov/node/66897),Business and consumer affairs,Tourism,S T & ED; H CDH&TA
70007,66898-19348,66898,FE,17840,GRANT NELSON,Employer,19348,Toy Association,20-Mar,4/16/2020,16988.0,Toy Association,5000.0,-2500.0,2500.0,0.0,0.0,0.0,0.0,0.0,0.0,0.0,2500.0,19348.0,Direct,,,View report (https://accesshub.pdc.wa.gov/node/66898),Environmental Affairs - natural resources - parks,EPR,"E&E, EET"
70008,66920-46896,66920,FE,18102,Bryce Yadon,Employer,46896,TRANSPORTATION CHOICES COALITION,20-Mar,4/16/2020,16990.0,TRANSPORTATION CHOICES COALITION,4000.0,0.0,4000.0,0.0,0.0,0.0,0.0,0.0,0.0,0.0,4000.0,46896.0,Direct,,,View report (https://accesshub.pdc.wa.gov/node/66920),Transportation,"Transportation Funding, Transportation Budget","House and Senate Transportation Committees, WSDOT, Governor's Office"
70009,66872-35141,66872,FE,35140,Dawn Rains,Employer,35141,TREEHOUSE,20-Mar,4/16/2020,16992.0,TREEHOUSE,1715.7,0.0,1715.7,0.0,0.0,0.0,532.26,0.0,0.0,532.26,2247.96,35141.0,Direct,,,View report (https://accesshub.pdc.wa.gov/node/66872),Education,SHB 2711,"Rep. Santos, Rep. Sullivan, Rep. Stonier, Rep. Johnson, Sen. Carlyle"
70010,64788-19711,64788,FE,17996,STRATEGIES 360*,Employer,19711,TULALIP TRIBES OF WA,20-Jan,4/16/2020,16997.0,TULALIP TRIBES OF WA,7500.0,0.0,7500.0,0.0,0.0,0.0,0.0,0.0,0.0,0.0,7500.0,19711.0,Direct,,,View report (https://accesshub.pdc.wa.gov/node/64788),Fiscal,HB 2803 / SB 6601,House Finance / Senate Ways & Means
70011,66177-19711,66177,FE,17996,STRATEGIES 360*,Employer,19711,TULALIP TRIBES OF WA,20-Feb,4/16/2020,16997.0,TULALIP TRIBES OF WA,7500.0,0.0,7500.0,0.0,0.0,0.0,0.0,0.0,0.0,0.0,7500.0,19711.0,Direct,,,View report (https://accesshub.pdc.wa.gov/node/66177),Fiscal,HB 2803 / SB 6601,House Finance / Senate Ways & Means
70012,66917-37235,66917,FE,37193,Courtney Blatz,Employer,37235,Uber Technologies Inc and Affiliates (BOSWELL CONSULTING*),20-Mar,4/16/2020,17001.0,Uber Technologies Inc and Affiliates,233.0,0.0,233.0,0.0,0.0,0.0,0.0,0.0,0.0,0.0,233.0,37235.0,Subcontract,17398.0,BOSWELL CONSULTING*,View report (https://accesshub.pdc.wa.gov/node/66917),,,
70013,66911-32066,66911,FE,32065,Samantha Grad,Employer,32066,UNITED FOOD & COMM WRKRS # 3000,20-Mar,4/16/2020,17005.0,UNITED FOOD & COMM WRKRS # 3000,10379.2,0.0,10379.2,1550.0,0.0,0.0,0.0,0.0,0.0,1550.0,11929.2,32066.0,Direct,,,View report (https://accesshub.pdc.wa.gov/node/66911),Labor,labor policies,"Legislature, ESD, LNI, DOH"
70014,66917-37231,66917,FE,37193,Courtney Blatz,Employer,37231,VALLEY MEDICAL CENTER (BOSWELL CONSULTING*),20-Mar,4/16/2020,17027.0,VALLEY MEDICAL CENTER,233.0,0.0,233.0,0.0,0.0,0.0,0.0,0.0,0.0,0.0,233.0,37231.0,Subcontract,17398.0,BOSWELL CONSULTING*,View report (https://accesshub.pdc.wa.gov/node/66917),,,
70015,66917-37229,66917,FE,37193,Courtney Blatz,Employer,37229,VIGOR INDUSTRIAL (BOSWELL CONSULTING*),20-Mar,4/16/2020,17035.0,VIGOR INDUSTRIAL,233.0,0.0,233.0,0.0,0.0,0.0,0.0,0.0,0.0,0.0,233.0,37229.0,Subcontract,17398.0,BOSWELL CONSULTING*,View report (https://accesshub.pdc.wa.gov/node/66917),,,
70016,64788-55581,64788,FE,17996,STRATEGIES 360*,Employer,55581,WA AMBULANCE ASSN,20-Jan,4/16/2020,17045.0,WA AMBULANCE ASSN,5000.0,0.0,5000.0,0.0,0.0,0.0,0.0,0.0,0.0,0.0,5000.0,55581.0,Direct,,,View report (https://accesshub.pdc.wa.gov/node/64788),Health Care,SB 6534,Senate Health Care / Senate Ways & Means
70017,66177-55581,66177,FE,17996,STRATEGIES 360*,Employer,55581,WA AMBULANCE ASSN,20-Feb,4/16/2020,17045.0,WA AMBULANCE ASSN,5000.0,0.0,5000.0,0.0,0.0,0.0,0.0,0.0,0.0,0.0,5000.0,55581.0,Direct,,,View report (https://accesshub.pdc.wa.gov/node/66177),Health Care,SB 6534,Senate Health Care / Senate Ways & Means
70019,66897-29484,66897,FE,17393,Bogard & Johnson LLC,Employer,29484,Life Science Washington,20-Mar,4/16/2020,17063.0,Life Science Washington,4000.0,0.0,4000.0,0.0,0.0,0.0,0.0,0.0,0.0,0.0,4000.0,29484.0,Direct,,,View report (https://accesshub.pdc.wa.gov/node/66897),Health Care,"workforce, UW Bothell, pharmaceuticals","H EE, S EET, H Aprops S WM"
70020,66905-47358,66905,FE,47356,Streuli Public Affairs,Employer,47358,WA CATTLEMEN'S ASSN,20-Mar,4/16/2020,17072.0,WA CATTLEMEN'S ASSN,1500.0,0.0,1500.0,0.0,0.0,0.0,0.0,0.0,0.0,0.0,1500.0,47358.0,Direct,,,View report (https://accesshub.pdc.wa.gov/node/66905),Agriculture,Livestock,Various Legislative Committees and State Agencies
70021,66917-37208,66917,FE,37193,Courtney Blatz,Employer,37208,WA CANNABUSINESS ASSN (CHRISTOPHERSEN INC*),20-Mar,4/16/2020,17073.0,WA CANNABUSINESS ASSN,363.7,0.0,363.7,0.0,0.0,0.0,0.0,0.0,0.0,0.0,363.7,37208.0,Subcontract,17348.0,CHRISTOPHERSEN INC*,View report (https://accesshub.pdc.wa.gov/node/66917),,,
70022,66891-28710,66891,FE,28708,Heather Trim,Employer,28710,ZERO WASTE WA,20-Mar,4/16/2020,17086.0,ZERO WASTE WA,665.38,0.0,665.38,69.0,0.0,0.0,0.0,0.0,0.0,69.0,734.38,28710.0,Direct,,,View report (https://accesshub.pdc.wa.gov/node/66891),Environmental Affairs - natural resources - parks,waste/plastics,financial and other legislative committees
70023,66917-37214,66917,FE,37193,Courtney Blatz,Employer,37214,CLEANTECH ALLIANCE (BOSWELL CONSULTING*),20-Mar,4/16/2020,17088.0,CLEANTECH ALLIANCE,233.0,0.0,233.0,0.0,0.0,0.0,0.0,0.0,0.0,0.0,233.0,37214.0,Subcontract,17398.0,BOSWELL CONSULTING*,View report (https://accesshub.pdc.wa.gov/node/66917),,,
70024,66874-18249,66874,FE,17391,SIMONE BOE,Employer,18249,WA EDUCATION ASSN,20-Mar,4/16/2020,17098.0,WA EDUCATION ASSN,6905.42,0.0,6905.42,23.73,0.0,0.0,0.0,0.0,0.0,23.73,6929.15,18249.0,Direct,,,View report (https://accesshub.pdc.wa.gov/node/66874),Education,"Graduation, School Meals, Transparency","State Board, SBE, SBCTC, House and Senate Floor Action"
70025,66886-19564,66886,FE,17931,JULIE K SALVI,Employer,19564,WA EDUCATION ASSN,20-Mar,4/16/2020,17098.0,WA EDUCATION ASSN,8825.47,0.0,8825.47,55.36,0.0,0.0,0.0,0.0,0.0,55.36,8880.83,19564.0,Direct,,,View report (https://accesshub.pdc.wa.gov/node/66886),Education,"SEBB implementation & policy changes, Local Optional Benefits, K-12 & Higher Education Employee Compensation and Leave issues: Plan 1 COLA","Rep. Bergquist, Senate Ways and Means, House Approps Committee and Staff, Floor Action, SEBB, OFM Staff"
70026,66888-19913,66888,FE,18106,LUCINDA L YOUNG,Employer,19913,WA EDUCATION ASSN,20-Mar,4/16/2020,17098.0,WA EDUCATION ASSN,9094.95,0.0,9094.95,132.35,0.0,0.0,0.0,0.0,0.0,132.35,9227.3,19913.0,Direct,,,View report (https://accesshub.pdc.wa.gov/node/66888),Education,"Paraeducator Funding, K-12 Policy Issues","Sen. Wellman, Rep. Santos, Approps and Ways and Means Committees, House Education Committee, House and Senate Floor Sessions"
70027,66878-28169,66878,FE,17742,SHAWN M LEWIS,Employer,28169,WA EDUCATION ASSN,20-Mar,4/16/2020,17098.0,WA EDUCATION ASSN,2819.52,0.0,2819.52,0.0,0.0,2221.44,0.0,0.0,3683.72,5905.16,8724.68,28169.0,Direct,,,View report (https://accesshub.pdc.wa.gov/node/66878),Education,"COVID-19 Response, Racial and Social Justice","Governor's Office, Attorney General's Office, OSPI Staff, OFM Staff, Floor Action"
70028,66884-28564,66884,FE,28561,LORRELL NOAHR,Employer,28564,WA EDUCATION ASSN,20-Mar,4/16/2020,17098.0,WA EDUCATION ASSN,7343.33,0.0,7343.33,116.3,0.0,0.0,0.0,0.0,0.0,116.3,7459.63,28564.0,Direct,,,View report (https://accesshub.pdc.wa.gov/node/66884),Education,Education Fiscal Policy,"DCYF, EOGOAC, SBCTC, OPR Staff, OFM, Floor Action"
70029,66921-40646,66921,FE,40645,Catherine Holm,Employer,40646,WA FOOD INDUSTRY,20-Mar,4/16/2020,17117.0,WA FOOD INDUSTRY,2400.0,0.0,2400.0,37.38,0.0,0.0,0.0,0.0,0.0,37.38,2437.38,40646.0,Direct,,,View report (https://accesshub.pdc.wa.gov/node/66921),Transportation,Transportation issues during COVID-19,"WA Governor's Office, WA legislature"
70030,66897-18268,66897,FE,17393,Bogard & Johnson LLC,Employer,18268,WA ASSN OF NURSE ANESTHETISTS,20-Mar,4/16/2020,17152.0,WA ASSN OF NURSE ANESTHETISTS,1400.0,0.0,1400.0,0.0,0.0,0.0,0.0,0.0,0.0,0.0,1400.0,18268.0,Direct,,,View report (https://accesshub.pdc.wa.gov/node/66897),Health Care,Health Care,H HC; S HC
70031,64788-49599,64788,FE,17996,STRATEGIES 360*,Employer,49599,WA POISON CENTER,20-Jan,4/16/2020,17166.0,WA POISON CENTER,3000.0,0.0,3000.0,0.0,0.0,0.0,0.0,0.0,0.0,0.0,3000.0,49599.0,Direct,,,View report (https://accesshub.pdc.wa.gov/node/64788),Fiscal,Capital Budget,Capital Budget
70032,66177-49599,66177,FE,17996,STRATEGIES 360*,Employer,49599,WA POISON CENTER,20-Feb,4/16/2020,17166.0,WA POISON CENTER,3000.0,0.0,3000.0,0.0,0.0,0.0,0.0,0.0,0.0,0.0,3000.0,49599.0,Direct,,,View report (https://accesshub.pdc.wa.gov/node/66177),Fiscal,Capital Budget,Capital Budget
70033,66922-18652,66922,FE,17520,Emerick & Bloom,Employer,18652,Home Care Association of America,20-Mar,4/16/2020,17168.0,Home Care Association of America,2000.0,0.0,2000.0,184.56,0.0,0.0,0.0,0.0,0.0,184.56,2184.56,18652.0,Direct,,,View report (https://accesshub.pdc.wa.gov/node/66922),Health Care,Home Care,"Health care committees, DOH, DSHS"
70034,66898-39806,66898,FE,17840,GRANT NELSON,Employer,39806,WA PUBLIC UTILITIES DISTS ASSN,20-Mar,4/16/2020,17176.0,WA PUBLIC UTILITIES DISTS ASSN,4000.0,0.0,4000.0,0.0,0.0,0.0,0.0,0.0,0.0,0.0,4000.0,39806.0,Direct,,,View report (https://accesshub.pdc.wa.gov/node/66898),Energy and utilities,Climate & Energy,"E&E, EET"
70035,66898-19350,66898,FE,17840,GRANT NELSON,Employer,19350,WA RURAL ELECTRIC CO-OP ASSN,20-Mar,4/16/2020,17181.0,WA RURAL ELECTRIC CO-OP ASSN,7000.0,0.0,7000.0,0.0,0.0,0.0,0.0,0.0,0.0,0.0,7000.0,19350.0,Direct,,,View report (https://accesshub.pdc.wa.gov/node/66898),Energy and utilities,"Energy, Tax & Fiscal","E&E, EET, Finance"
70036,66904-19398,66904,FE,17870,OUTCOMES BY LEVY LLC*,Employer,19398,WA RECREATION & PARKS ASSN,20-Mar,4/16/2020,17183.0,WA RECREATION & PARKS ASSN,4600.0,0.0,4600.0,223.49,0.0,0.0,0.0,0.0,0.0,223.49,4823.49,19398.0,Direct,,,View report (https://accesshub.pdc.wa.gov/node/66904),Environmental Affairs - natural resources - parks,"HB 2625 local parks funding options, SB 6248 Capital Budget, SB 6168 Operating Budget","Sen. Wagoner, Sen. Liias, Rep. Eslick on HB 2625; Rep Cindy Ryu on Operating Budet proviso, Rep. Doglio & other Cap Budget writers on SB 6248"
70037,66917-61499,66917,FE,37193,Courtney Blatz,Employer,61499,WA BEVERAGE ASSN,20-Mar,4/16/2020,17190.0,WA BEVERAGE ASSN,1500.0,0.0,1500.0,0.0,0.0,0.0,0.0,0.0,0.0,0.0,1500.0,61499.0,Direct,,,View report (https://accesshub.pdc.wa.gov/node/66917),Business and consumer affairs,various,various
70038,66897-18269,66897,FE,17393,Bogard & Johnson LLC,Employer,18269,WSLHA,20-Mar,4/16/2020,17192.0,WSLHA,1500.0,0.0,1500.0,0.0,0.0,0.0,0.0,0.0,0.0,0.0,1500.0,18269.0,Direct,,,View report (https://accesshub.pdc.wa.gov/node/66897),Health Care,Health Care,H HC; S HC
70039,66895-46190,66895,FE,17528,LUKE ESSER,Employer,46190,WA ST CATHOLIC CONFERENCE,20-Mar,4/16/2020,17228.0,WA ST CATHOLIC CONFERENCE,2500.0,0.0,2500.0,0.0,0.0,0.0,0.0,0.0,0.0,0.0,2500.0,46190.0,Direct,,,View report (https://accesshub.pdc.wa.gov/node/66895),Law and justice,Religious Liberty,"Senate Law & Justice, House Civil Rights & Judiciary"
70040,66897-18270,66897,FE,17393,Bogard & Johnson LLC,Employer,18270,WA ST DESTINATION MARKETING ORGANIZATIONS ASSN,20-Mar,4/16/2020,17237.0,WA ST DESTINATION MARKETING ORGANIZATIONS ASSN,1600.0,0.0,1600.0,0.0,0.0,0.0,0.0,0.0,0.0,0.0,1600.0,18270.0,Direct,,,View report (https://accesshub.pdc.wa.gov/node/66897),Business and consumer affairs,Tourism,S T & ED; H CDH&TA
70041,66897-18271,66897,FE,17393,Bogard & Johnson LLC,Employer,18271,WA ST DENTAL HYGIENISTS ASSN,20-Mar,4/16/2020,17241.0,WA ST DENTAL HYGIENISTS ASSN,2675.0,0.0,2675.0,0.0,0.0,0.0,0.0,0.0,0.0,0.0,2675.0,18271.0,Direct,,,View report (https://accesshub.pdc.wa.gov/node/66897),Health Care,Health Care,H HC; S HC
70042,66922-18653,66922,FE,17520,Emerick & Bloom,Employer,18653,WA ST HOSPICE & PALLIATIVE CARE ORG,20-Mar,4/16/2020,17255.0,WA ST HOSPICE & PALLIATIVE CARE ORG,4000.0,0.0,4000.0,184.56,0.0,0.0,0.0,0.0,0.0,184.56,4184.56,18653.0,Direct,,,View report (https://accesshub.pdc.wa.gov/node/66922),Health Care,Hopsice & Palliative Care,"Health care committees, DOH, HCA"
70043,66917-37234,66917,FE,37193,Courtney Blatz,Employer,37234,"WASTE MANAGEMENT OF WASHINGTON, INC. (BOSWELL CONSULTING*)",20-Mar,4/16/2020,17260.0,"WASTE MANAGEMENT OF WASHINGTON, INC.",233.0,0.0,233.0,0.0,0.0,0.0,0.0,0.0,0.0,0.0,233.0,37234.0,Subcontract,17398.0,BOSWELL CONSULTING*,View report (https://accesshub.pdc.wa.gov/node/66917),,,
70044,66916-19613,66916,FE,17960,JEB C SHEPARD,Employer,19613,WA ST MEDICAL ASSN,20-Mar,4/16/2020,17261.0,WA ST MEDICAL ASSN,7000.0,0.0,7000.0,0.0,0.0,0.0,0.0,0.0,0.0,0.0,7000.0,19613.0,Direct,,,View report (https://accesshub.pdc.wa.gov/node/66916),Health Care,"COVID19, prior authorization, opioids, credentialing","DOH, HCA,OIC"
70045,66898-19351,66898,FE,17840,GRANT NELSON,Employer,19351,WA ST MOTORSPORT DEALERS ASSN,20-Mar,4/16/2020,17262.0,WA ST MOTORSPORT DEALERS ASSN,4000.0,0.0,4000.0,0.0,0.0,0.0,0.0,0.0,0.0,0.0,4000.0,19351.0,Direct,,,View report (https://accesshub.pdc.wa.gov/node/66898),Transportation,Registration,Transportation
70046,66897-18272,66897,FE,17393,Bogard & Johnson LLC,Employer,18272,WA ST NURSES ASSN,20-Mar,4/16/2020,17265.0,WA ST NURSES ASSN,3200.0,0.0,3200.0,0.0,0.0,0.0,0.0,0.0,0.0,0.0,3200.0,18272.0,Direct,,,View report (https://accesshub.pdc.wa.gov/node/66897),,,
70047,66897-18273,66897,FE,17393,Bogard & Johnson LLC,Employer,18273,PHYSICAL THERAPY ASSN OF WA,20-Mar,4/16/2020,17279.0,PHYSICAL THERAPY ASSN OF WA,5179.58,0.0,5179.58,0.0,0.0,0.0,0.0,0.0,0.0,0.0,5179.58,18273.0,Direct,,,View report (https://accesshub.pdc.wa.gov/node/66897),Health Care,Health Care,H HC; S HC; H Ed; S Ed
70048,66904-19399,66904,FE,17870,OUTCOMES BY LEVY LLC*,Employer,19399,WESTAF,20-Mar,4/16/2020,17301.0,WESTAF,4000.0,-2000.0,2000.0,0.0,0.0,0.0,0.0,0.0,0.0,0.0,2000.0,19399.0,Direct,,,View report (https://accesshub.pdc.wa.gov/node/66904),Fiscal,"SB 6248 Capital Budget; HB 2352 Building for the Arts; SB 5792 Cultural Access, SB 6312 non-profit fund-raising","SB 6248 - Sen. Liias, Rep. Doglio, Rep. Tharinger; HB 2352 - Rep. Tharinger; SB 5792 - Rep. Springer, Rep. Senn; SB 6312 - Sen. Zeiger"
70049,66893-49944,66893,FE,48733,Rachel Lauter,Employer,49944,WORKING WA,20-Mar,4/16/2020,17316.0,WORKING WA,325.0,0.0,325.0,0.0,0.0,0.0,0.0,0.0,0.0,0.0,325.0,49944.0,Direct,,,View report (https://accesshub.pdc.wa.gov/node/66893),Labor,domestic workers,"labor committee, house and senate"
70050,64788-38812,64788,FE,17996,STRATEGIES 360*,Employer,38812,WILLAPA-GRAYS HARBOR OYSTER GROWERS ASSN,20-Jan,4/16/2020,23612.0,WILLAPA-GRAYS HARBOR OYSTER GROWERS ASSN,3500.0,0.0,3500.0,0.0,0.0,0.0,0.0,0.0,0.0,0.0,3500.0,38812.0,Direct,,,View report (https://accesshub.pdc.wa.gov/node/64788),,,
70051,66177-38812,66177,FE,17996,STRATEGIES 360*,Employer,38812,WILLAPA-GRAYS HARBOR OYSTER GROWERS ASSN,20-Feb,4/16/2020,23612.0,WILLAPA-GRAYS HARBOR OYSTER GROWERS ASSN,3500.0,0.0,3500.0,0.0,0.0,0.0,0.0,0.0,0.0,0.0,3500.0,38812.0,Direct,,,View report (https://accesshub.pdc.wa.gov/node/66177),,,
70052,66905-59901,66905,FE,47356,Streuli Public Affairs,Employer,59901,Motorola Solutions Inc (The Arledge Group),20-Mar,4/16/2020,26195.0,Motorola Solutions Inc,2000.0,0.0,2000.0,0.0,0.0,0.0,0.0,0.0,0.0,0.0,2000.0,59901.0,Subcontract,37395.0,The Arledge Group,View report (https://accesshub.pdc.wa.gov/node/66905),,,
70053,66900-62495,66900,FE,17873,PACIFIC NW REGIONAL STRATEGIES LLC*,Employer,62495,awwppw washington area council,20-Mar,4/16/2020,29048.0,awwppw washington area council,2300.0,0.0,2300.0,0.0,0.0,0.0,0.0,0.0,0.0,0.0,2300.0,62495.0,Direct,,,View report (https://accesshub.pdc.wa.gov/node/66900),Environmental Affairs - natural resources - parks,Plastic Bag,Senate and House Committees
70054,66898-59621,66898,FE,17840,GRANT NELSON,Employer,59621,Recreation Vehicle Industry Association,20-Mar,4/16/2020,30397.0,Recreation Vehicle Industry Association,5000.0,0.0,5000.0,0.0,0.0,0.0,0.0,0.0,0.0,0.0,5000.0,59621.0,Direct,,,View report (https://accesshub.pdc.wa.gov/node/66898),Transportation,Travel Trailers,Transportation
70055,64788-30627,64788,FE,17996,STRATEGIES 360*,Employer,30627,Save the Children US Programs,20-Jan,4/16/2020,30626.0,Save the Children US Programs,3000.0,0.0,3000.0,0.0,0.0,0.0,0.0,0.0,0.0,0.0,3000.0,30627.0,Direct,,,View report (https://accesshub.pdc.wa.gov/node/64788),,,
70056,66177-30627,66177,FE,17996,STRATEGIES 360*,Employer,30627,Save the Children US Programs,20-Feb,4/16/2020,30626.0,Save the Children US Programs,3000.0,0.0,3000.0,0.0,0.0,0.0,0.0,0.0,0.0,0.0,3000.0,30627.0,Direct,,,View report (https://accesshub.pdc.wa.gov/node/66177),,,
70057,66868-50205,66868,FE,28264,Randazzo LLC,Employer,50205,Snoqualmie Tribe,20-Mar,4/16/2020,31273.0,Snoqualmie Tribe,7000.0,0.0,7000.0,0.0,0.0,0.0,0.0,0.0,0.0,0.0,7000.0,50205.0,Direct,,,View report (https://accesshub.pdc.wa.gov/node/66868),Environmental Affairs - natural resources - parks,treating rights,WDFW/AGO
70058,66917-37223,66917,FE,37193,Courtney Blatz,Employer,37223,Nippon Paper Industries USA (BOSWELL CONSULTING*),20-Mar,4/16/2020,31405.0,Nippon Paper Industries USA,233.0,0.0,233.0,0.0,0.0,0.0,0.0,0.0,0.0,0.0,233.0,37223.0,Subcontract,17398.0,BOSWELL CONSULTING*,View report (https://accesshub.pdc.wa.gov/node/66917),,,
70059,66917-40686,66917,FE,37193,Courtney Blatz,Employer,40686,Port of Hood River (BOSWELL CONSULTING*),20-Mar,4/16/2020,36737.0,Port of Hood River,233.0,0.0,233.0,0.0,0.0,0.0,0.0,0.0,0.0,0.0,233.0,40686.0,Subcontract,17398.0,BOSWELL CONSULTING*,View report (https://accesshub.pdc.wa.gov/node/66917),,,
70060,66905-61599,66905,FE,47356,Streuli Public Affairs,Employer,61599,City of Sedro-Woolley,20-Mar,4/16/2020,37314.0,City of Sedro-Woolley,2000.0,0.0,2000.0,0.0,0.0,0.0,0.0,0.0,0.0,0.0,2000.0,61599.0,Direct,,,View report (https://accesshub.pdc.wa.gov/node/66905),Local government,Transportation and Capital Budgets,Various Legislative Committees and State Agencies
70061,66906-50339,66906,FE,50337,Dan Bertolet,Employer,50339,Sightline Institute,20-Mar,4/16/2020,37788.0,Sightline Institute,765.6,0.0,765.6,0.0,0.0,0.0,0.0,0.0,0.0,0.0,765.6,50339.0,Direct,,,View report (https://accesshub.pdc.wa.gov/node/66906),Environmental Affairs - natural resources - parks,"SSB 6302, HB 2570, SB 6617","Sen Liias, Reps Duerr, Fitzgibbon, Gregerson"
70062,66917-40719,66917,FE,37193,Courtney Blatz,Employer,40719,Recompose (CHRISTOPHERSEN INC*),20-Mar,4/16/2020,38316.0,Recompose,363.63,0.0,363.63,0.0,0.0,0.0,0.0,0.0,0.0,0.0,363.63,40719.0,Subcontract,17348.0,CHRISTOPHERSEN INC*,View report (https://accesshub.pdc.wa.gov/node/66917),,,
70063,66889-50739,66889,FE,50738,Edmund Witter,Employer,50739,King County Bar Association,20-Mar,4/16/2020,38772.0,King County Bar Association,437.5,0.0,437.5,0.0,0.0,0.0,0.0,0.0,0.0,0.0,437.5,50739.0,Direct,,,View report (https://accesshub.pdc.wa.gov/node/66889),Law and justice,COVID Response,Dept. of Commerce; Governor's Office
70064,66897-39085,66897,FE,17393,Bogard & Johnson LLC,Employer,39085,"ReviverMx, Inc.",20-Mar,4/16/2020,39083.0,"ReviverMx, Inc.",3000.0,0.0,3000.0,0.0,0.0,0.0,0.0,0.0,0.0,0.0,3000.0,39085.0,Direct,,,View report (https://accesshub.pdc.wa.gov/node/66897),Transportation,digital license plates,S Trans; H Trans
70065,66903-39803,66903,FE,18100,KYLE WOODRING,Employer,39803,Affordable Communities Coalition,20-Mar,4/16/2020,39315.0,Affordable Communities Coalition,3000.0,0.0,3000.0,0.0,0.0,0.0,0.0,0.0,0.0,0.0,3000.0,39803.0,Direct,,,View report (https://accesshub.pdc.wa.gov/node/66903),Business and consumer affairs,Manufactured Housing/Mobile Home Parks,Senate Ways & Means
70066,66897-50764,66897,FE,17393,Bogard & Johnson LLC,Employer,50764,Museum of History & Industry,20-Mar,4/16/2020,39825.0,Museum of History & Industry,3000.0,0.0,3000.0,0.0,0.0,0.0,0.0,0.0,0.0,0.0,3000.0,50764.0,Direct,,,View report (https://accesshub.pdc.wa.gov/node/66897),Business and consumer affairs,civic engagement,H Approps; S W&M
70067,66895-47026,66895,FE,17528,LUKE ESSER,Employer,47026,City of Sammamish,20-Mar,4/16/2020,47025.0,City of Sammamish,2000.0,0.0,2000.0,0.0,0.0,0.0,0.0,0.0,0.0,0.0,2000.0,47026.0,Direct,,,View report (https://accesshub.pdc.wa.gov/node/66895),Environmental Affairs - natural resources - parks,Parks,"Sen. Ways & Means, House Capital Budget"
70068,64788-47893,64788,FE,17996,STRATEGIES 360*,Employer,47893,"North Pacific Paper Company, LLC",20-Jan,4/16/2020,47891.0,"North Pacific Paper Company, LLC",3000.0,0.0,3000.0,0.0,0.0,0.0,0.0,0.0,0.0,0.0,3000.0,47893.0,Direct,,,View report (https://accesshub.pdc.wa.gov/node/64788),,,
70069,66177-47893,66177,FE,17996,STRATEGIES 360*,Employer,47893,"North Pacific Paper Company, LLC",20-Feb,4/16/2020,47891.0,"North Pacific Paper Company, LLC",3000.0,0.0,3000.0,0.0,0.0,0.0,0.0,0.0,0.0,0.0,3000.0,47893.0,Direct,,,View report (https://accesshub.pdc.wa.gov/node/66177),,,
70070,64788-49843,64788,FE,17996,STRATEGIES 360*,Employer,49843,Northpoint Recovery LLC,20-Jan,4/16/2020,49708.0,Northpoint Recovery LLC,3000.0,0.0,3000.0,0.0,0.0,0.0,0.0,0.0,0.0,0.0,3000.0,49843.0,Direct,,,View report (https://accesshub.pdc.wa.gov/node/64788),,,
70071,66177-49843,66177,FE,17996,STRATEGIES 360*,Employer,49843,Northpoint Recovery LLC,20-Feb,4/16/2020,49708.0,Northpoint Recovery LLC,3000.0,0.0,3000.0,0.0,0.0,0.0,0.0,0.0,0.0,0.0,3000.0,49843.0,Direct,,,View report (https://accesshub.pdc.wa.gov/node/66177),,,
70072,64788-61419,64788,FE,17996,STRATEGIES 360*,Employer,61419,CHILDRENS CAMPAIGN FUND,20-Jan,4/16/2020,50626.0,CHILDRENS CAMPAIGN FUND,5000.0,0.0,5000.0,0.0,0.0,0.0,0.0,0.0,0.0,0.0,5000.0,61419.0,Direct,,,View report (https://accesshub.pdc.wa.gov/node/64788),Education,Education / Early Education Policy & Fiscal,Early Education / Fiscal Committees
70073,66177-61419,66177,FE,17996,STRATEGIES 360*,Employer,61419,CHILDRENS CAMPAIGN FUND,20-Feb,4/16/2020,50626.0,CHILDRENS CAMPAIGN FUND,5000.0,0.0,5000.0,0.0,0.0,0.0,0.0,0.0,0.0,0.0,5000.0,61419.0,Direct,,,View report (https://accesshub.pdc.wa.gov/node/66177),Education,Education / Early Education Policy & Fiscal,Early Education / Fiscal Committees
70074,66900-50775,66900,FE,17873,PACIFIC NW REGIONAL STRATEGIES LLC*,Employer,50775,THE KUSHERY,20-Mar,4/16/2020,50774.0,THE KUSHERY,750.0,0.0,750.0,0.0,0.0,0.0,0.0,0.0,0.0,0.0,750.0,50775.0,Direct,,,View report (https://accesshub.pdc.wa.gov/node/66900),Business and consumer affairs,Cannabis,Legislature
70075,66900-50777,66900,FE,17873,PACIFIC NW REGIONAL STRATEGIES LLC*,Employer,50777,LAST STOP POT SHOP,20-Mar,4/16/2020,50776.0,LAST STOP POT SHOP,750.0,0.0,750.0,0.0,0.0,0.0,0.0,0.0,0.0,0.0,750.0,50777.0,Direct,,,View report (https://accesshub.pdc.wa.gov/node/66900),Business and consumer affairs,Cannabis,Legislature
70076,66895-51009,66895,FE,17528,LUKE ESSER,Employer,51009,International Brotherhood of Boilermakers,20-Mar,4/16/2020,50985.0,International Brotherhood of Boilermakers,8000.0,0.0,8000.0,0.0,0.0,0.0,0.0,0.0,0.0,0.0,8000.0,51009.0,Direct,,,View report (https://accesshub.pdc.wa.gov/node/66895),Energy and utilities,High-Hazard Facilities,"Senate Labor & Commerce, House Labor & Workforce Standards"
70077,64788-51460,64788,FE,17996,STRATEGIES 360*,Employer,51460,PacificSource Health Plans,20-Jan,4/16/2020,51438.0,PacificSource Health Plans,4500.0,0.0,4500.0,0.0,0.0,0.0,0.0,0.0,0.0,0.0,4500.0,51460.0,Direct,,,View report (https://accesshub.pdc.wa.gov/node/64788),Health Care,Health Care Policy,House / Senate Health Care
70078,66177-51460,66177,FE,17996,STRATEGIES 360*,Employer,51460,PacificSource Health Plans,20-Feb,4/16/2020,51438.0,PacificSource Health Plans,4500.0,0.0,4500.0,0.0,0.0,0.0,0.0,0.0,0.0,0.0,4500.0,51460.0,Direct,,,View report (https://accesshub.pdc.wa.gov/node/66177),Health Care,Health Care Policy,House / Senate Health Care
70079,66914-62158,66914,FE,35236,Meg L Jones,Employer,62158,PacificSource Health Plans,20-Mar,4/16/2020,51438.0,PacificSource Health Plans,1500.0,0.0,1500.0,0.0,0.0,0.0,0.0,0.0,0.0,0.0,1500.0,62158.0,Direct,,,View report (https://accesshub.pdc.wa.gov/node/66914),Health Care,Health plan regulation,"Office of the Insurance Commissioner, House Health Care committee, Senate Health&Liibg term care committee"
70080,66897-51873,66897,FE,17393,Bogard & Johnson LLC,Employer,51873,Low Carbon Fuels Coalition,20-Mar,4/16/2020,51872.0,Low Carbon Fuels Coalition,4500.0,0.0,4500.0,0.0,0.0,0.0,0.0,0.0,0.0,0.0,4500.0,51873.0,Direct,,,View report (https://accesshub.pdc.wa.gov/node/66897),,,
70081,66905-52519,66905,FE,47356,Streuli Public Affairs,Employer,52519,Northwest Resources II Inc,20-Mar,4/16/2020,52518.0,Northwest Resources II Inc,500.0,0.0,500.0,0.0,0.0,0.0,0.0,0.0,0.0,0.0,500.0,52519.0,Direct,,,View report (https://accesshub.pdc.wa.gov/node/66905),Health Care,Addiction and Mental Health,Various Legislative Committees and State Agencies
70082,66900-53378,66900,FE,17873,PACIFIC NW REGIONAL STRATEGIES LLC*,Employer,53378,Velicahn Inc,20-Mar,4/16/2020,53377.0,Velicahn Inc,1300.0,0.0,1300.0,0.0,0.0,0.0,0.0,0.0,0.0,0.0,1300.0,53378.0,Direct,,,View report (https://accesshub.pdc.wa.gov/node/66900),Business and consumer affairs,Marijuana,Legislature
70083,66897-61201,66897,FE,17393,Bogard & Johnson LLC,Employer,61201,Cancer Pathways,20-Mar,4/16/2020,53914.0,Cancer Pathways,1250.0,0.0,1250.0,0.0,0.0,0.0,0.0,0.0,0.0,0.0,1250.0,61201.0,Direct,,,View report (https://accesshub.pdc.wa.gov/node/66897),Health Care,Health Care,Health Care
70084,66917-57266,66917,FE,37193,Courtney Blatz,Employer,57266,Pasado's Safe Haven,20-Mar,4/16/2020,56480.0,Pasado's Safe Haven,3000.0,0.0,3000.0,0.0,0.0,0.0,0.0,0.0,0.0,0.0,3000.0,57266.0,Direct,,,View report (https://accesshub.pdc.wa.gov/node/66917),Law and justice,various,various
70085,66897-58767,66897,FE,17393,Bogard & Johnson LLC,Employer,58767,Pilchuck Glass School,20-Mar,4/16/2020,58572.0,Pilchuck Glass School,2000.0,0.0,2000.0,0.0,0.0,0.0,0.0,0.0,0.0,0.0,2000.0,58767.0,Direct,,,View report (https://accesshub.pdc.wa.gov/node/66897),Education,Capital Budget,Capital Budget
70086,66905-59351,66905,FE,47356,Streuli Public Affairs,Employer,59351,PAX Labs (Mike Hoover Public Affairs),20-Mar,4/16/2020,58986.0,PAX Labs,3000.0,0.0,3000.0,0.0,0.0,0.0,0.0,0.0,0.0,0.0,3000.0,59351.0,Subcontract,46364.0,Mike Hoover Public Affairs,View report (https://accesshub.pdc.wa.gov/node/66905),,,
70087,66898-60333,66898,FE,17840,GRANT NELSON,Employer,60333,WATV Access Coalition,20-Mar,4/16/2020,59652.0,WATV Access Coalition,1750.0,0.0,1750.0,0.0,0.0,0.0,0.0,0.0,0.0,0.0,1750.0,60333.0,Direct,,,View report (https://accesshub.pdc.wa.gov/node/66898),Transportation,Road Access,Transportation
70088,66920-62493,66920,FE,18102,Bryce Yadon,Employer,62493,FivePoint Capital Management,20-Mar,4/16/2020,62010.0,FivePoint Capital Management,2000.0,0.0,2000.0,0.0,0.0,0.0,0.0,0.0,0.0,0.0,2000.0,62493.0,Direct,,,View report (https://accesshub.pdc.wa.gov/node/66920),Local government,Multifamily Tax Exemption,"House Finance Committee, Senate Housing Stability and Affordability Committee, Rep. Walen, Rep. Ramel, Senator Das"
70089,66937-19501,66937,FE,17905,T K BENTLER/PUBLIC AFFAIRS ASSOC*,Employer,19501,3M CO,20-Mar,4/17/2020,16055.0,3M CO,3150.0,0.0,3150.0,0.0,0.0,0.0,0.0,0.0,0.0,0.0,3150.0,19501.0,Direct,,,View report (https://accesshub.pdc.wa.gov/node/66937),,,
70090,66935-27325,66935,FE,27324,Hannah Lidman,Employer,27325,Children's Alliance,20-Mar,4/17/2020,16256.0,Children's Alliance,615.36,0.0,615.36,0.0,0.0,0.0,0.0,0.0,0.0,0.0,615.36,27325.0,Direct,,,View report (https://accesshub.pdc.wa.gov/node/66935),Education,"WCCC subsidy rates, HB2456, HB2556, use of CARES CCDBG stimulus funds","DCYF, Governor's Office"
70091,66933-37347,66933,FE,25302,Northwest Solutions,Employer,37347,CITY OF WALLA WALLA,20-Mar,4/17/2020,16271.0,CITY OF WALLA WALLA,1750.0,0.0,1750.0,0.0,0.0,0.0,0.0,0.0,0.0,0.0,1750.0,37347.0,Direct,,,View report (https://accesshub.pdc.wa.gov/node/66933),Local government,REET 2,"Reps Stokesbary, Tarleton, Rude, Ryu, Frame, Blake, Doglio, Fey, Pollet; Sens Takko, Warnick, Das"
70092,66925-19784,66925,FE,18036,SUSAN S TRACY,Employer,19784,EVERGREEN TREATMENT SERVICES,20-Feb,4/17/2020,16424.0,EVERGREEN TREATMENT SERVICES,1200.0,0.0,1200.0,0.0,0.0,0.0,0.0,0.0,0.0,0.0,1200.0,19784.0,Direct,,,View report (https://accesshub.pdc.wa.gov/node/66925),Health Care,Sub use treatment,Hc
70093,66925-27343,66925,FE,18036,SUSAN S TRACY,Employer,27343,Greater Seattle Business Assn,20-Feb,4/17/2020,16485.0,Greater Seattle Business Assn,1750.0,0.0,1750.0,0.0,0.0,0.0,0.0,0.0,0.0,0.0,1750.0,27343.0,Direct,,,View report (https://accesshub.pdc.wa.gov/node/66925),Business and consumer affairs,"Bus. Taxes, diversity","App, WM,"
70094,66894-19145,66894,FE,17751,CAROLYN LOGUE,Employer,19145,"Stride, Inc.",20-Mar,4/17/2020,16567.0,"Stride, Inc.",5500.0,0.0,5500.0,0.0,0.0,0.0,0.0,0.0,0.0,0.0,5500.0,19145.0,Direct,,,View report (https://accesshub.pdc.wa.gov/node/66894),Education,Online Learning and ALE issues,"Education and Fiscal Committees, OSPI"
70095,66894-19146,66894,FE,17751,CAROLYN LOGUE,Employer,19146,WA INDEPENDENT MEDICAL EXAM COALITION,20-Mar,4/17/2020,16630.0,WA INDEPENDENT MEDICAL EXAM COALITION,2500.0,0.0,2500.0,0.0,0.0,0.0,0.0,0.0,0.0,0.0,2500.0,19146.0,Direct,,,View report (https://accesshub.pdc.wa.gov/node/66894),Labor,IME Issues/Workers Comp,"House and Senate Labor Committees, L&I"
70096,66937-19505,66937,FE,17905,T K BENTLER/PUBLIC AFFAIRS ASSOC*,Employer,19505,METRO PARKS OF TACOMA,20-Mar,4/17/2020,16635.0,METRO PARKS OF TACOMA,6250.0,0.0,6250.0,0.0,0.0,0.0,0.0,0.0,0.0,0.0,6250.0,19505.0,Direct,,,View report (https://accesshub.pdc.wa.gov/node/66937),,,
70097,66937-19506,66937,FE,17905,T K BENTLER/PUBLIC AFFAIRS ASSOC*,Employer,19506,"MOTION PICTURE ASSOCIATION, INC.",20-Mar,4/17/2020,16645.0,"MOTION PICTURE ASSOCIATION, INC.",2500.0,0.0,2500.0,0.0,0.0,0.0,0.0,0.0,0.0,0.0,2500.0,19506.0,Direct,,,View report (https://accesshub.pdc.wa.gov/node/66937),,,
70098,66937-19507,66937,FE,17905,T K BENTLER/PUBLIC AFFAIRS ASSOC*,Employer,19507,MOTOR VEHICLE SOFTWARE CORP,20-Mar,4/17/2020,16648.0,MOTOR VEHICLE SOFTWARE CORP,5000.0,0.0,5000.0,0.0,0.0,0.0,0.0,0.0,0.0,0.0,5000.0,19507.0,Direct,,,View report (https://accesshub.pdc.wa.gov/node/66937),,,
70099,65859-58112,65859,FE,58111,Janice Deguchi,Employer,58112,NEIGHBORHOOD HOUSE,20-Feb,4/17/2020,16680.0,NEIGHBORHOOD HOUSE,272.44,0.0,272.44,0.0,0.0,0.0,0.0,0.0,0.0,0.0,272.44,58112.0,Direct,,,View report (https://accesshub.pdc.wa.gov/node/65859),Fiscal,Budget,Appropriations Committee
70100,66937-19508,66937,FE,17905,T K BENTLER/PUBLIC AFFAIRS ASSOC*,Employer,19508,RAI Services Company,20-Mar,4/17/2020,16862.0,RAI Services Company,9888.75,0.0,9888.75,0.0,0.0,0.0,0.0,0.0,0.0,0.0,9888.75,19508.0,Direct,,,View report (https://accesshub.pdc.wa.gov/node/66937),,,
70101,66934-45763,66934,FE,27426,Peggen & Mara Political Consulting LLP,Employer,45763,STILLAGUAMISH TRIBE OF INDIANS,20-Mar,4/17/2020,16955.0,STILLAGUAMISH TRIBE OF INDIANS,3500.0,0.0,3500.0,0.0,0.0,0.0,0.0,0.0,0.0,0.0,3500.0,45763.0,Direct,,,View report (https://accesshub.pdc.wa.gov/node/66934),Human services,human services,"Reps Eslick, Blake, Dent, Brkis, Wilcox; Sen Billig"
70102,66925-19785,66925,FE,18036,SUSAN S TRACY,Employer,19785,THERAPEUTIC HEALTH SERVICES,20-Feb,4/17/2020,16981.0,THERAPEUTIC HEALTH SERVICES,1200.0,0.0,1200.0,0.0,0.0,0.0,0.0,0.0,0.0,0.0,1200.0,19785.0,Direct,,,View report (https://accesshub.pdc.wa.gov/node/66925),Health Care,Substance use treatment,Hc
70103,66925-19786,66925,FE,18036,SUSAN S TRACY,Employer,19786,WA ACADEMY OF EYE PHYSICIANS & SURGEONS,20-Feb,4/17/2020,17051.0,WA ACADEMY OF EYE PHYSICIANS & SURGEONS,4699.0,0.0,4699.0,0.0,0.0,0.0,0.0,0.0,0.0,0.0,4699.0,19786.0,Direct,,,View report (https://accesshub.pdc.wa.gov/node/66925),Health Care,Eye care,Hc
70104,66925-19787,66925,FE,18036,SUSAN S TRACY,Employer,19787,WA AIRPORT MANAGEMENT ASSN,20-Feb,4/17/2020,17056.0,WA AIRPORT MANAGEMENT ASSN,2500.0,0.0,2500.0,0.0,0.0,0.0,0.0,0.0,0.0,0.0,2500.0,19787.0,Direct,,,View report (https://accesshub.pdc.wa.gov/node/66925),Transportation,Airport management,Tr
70105,66925-19788,66925,FE,18036,SUSAN S TRACY,Employer,19788,WA AMBULATORY SURGERY CENTER ASSN,20-Feb,4/17/2020,17060.0,WA AMBULATORY SURGERY CENTER ASSN,3333.34,0.0,3333.34,0.0,0.0,0.0,0.0,0.0,0.0,0.0,3333.34,19788.0,Direct,,,View report (https://accesshub.pdc.wa.gov/node/66925),Health Care,Surgery center regulation,Hc
70106,66937-19509,66937,FE,17905,T K BENTLER/PUBLIC AFFAIRS ASSOC*,Employer,19509,WA BREWERS GUILD,20-Mar,4/17/2020,17065.0,WA BREWERS GUILD,2600.0,0.0,2600.0,0.0,0.0,0.0,0.0,0.0,0.0,0.0,2600.0,19509.0,Direct,,,View report (https://accesshub.pdc.wa.gov/node/66937),,,
70107,66925-19789,66925,FE,18036,SUSAN S TRACY,Employer,19789,"WA Chapter, ACEP",20-Feb,4/17/2020,17069.0,"WA Chapter, ACEP",1500.0,0.0,1500.0,0.0,0.0,0.0,0.0,0.0,0.0,0.0,1500.0,19789.0,Direct,,,View report (https://accesshub.pdc.wa.gov/node/66925),Health Care,"Cardiac stroke, emergency care",Hc
70108,66937-19510,66937,FE,17905,T K BENTLER/PUBLIC AFFAIRS ASSOC*,Employer,19510,"Wa Cemetary, Cremation & Funeral Assn.",20-Mar,4/17/2020,17077.0,"Wa Cemetary, Cremation & Funeral Assn.",1480.0,0.0,1480.0,0.0,0.0,0.0,0.0,0.0,0.0,0.0,1480.0,19510.0,Direct,,,View report (https://accesshub.pdc.wa.gov/node/66937),,,
70109,66894-19148,66894,FE,17751,CAROLYN LOGUE,Employer,19148,WA DENTURIST ASSN,20-Mar,4/17/2020,17093.0,WA DENTURIST ASSN,2000.0,0.0,2000.0,0.0,0.0,0.0,0.0,0.0,0.0,0.0,2000.0,19148.0,Direct,,,View report (https://accesshub.pdc.wa.gov/node/66894),Health Care,Dental/Denturist Issues,"House and Senate Health Care, DOH, HCA"
70110,66926-19070,66926,FE,17698,Juliet Schindler,Employer,19070,COLLEGE SUCCESS FOUNDATION,20-Feb,4/17/2020,17104.0,COLLEGE SUCCESS FOUNDATION,3500.0,0.0,3500.0,0.0,0.0,0.0,0.0,0.0,0.0,0.0,3500.0,19070.0,Direct,,,View report (https://accesshub.pdc.wa.gov/node/66926),,,
70111,66927-19070,66927,FE,17698,Juliet Schindler,Employer,19070,COLLEGE SUCCESS FOUNDATION,20-Mar,4/17/2020,17104.0,COLLEGE SUCCESS FOUNDATION,3500.0,0.0,3500.0,0.0,0.0,0.0,0.0,0.0,0.0,0.0,3500.0,19070.0,Direct,,,View report (https://accesshub.pdc.wa.gov/node/66927),Higher education,"higher ed, vulnerable youth","WSAC, federal, higher ed/fiscal committee members"
70112,66894-19149,66894,FE,17751,CAROLYN LOGUE,Employer,19149,WA FOOD INDUSTRY,20-Mar,4/17/2020,17117.0,WA FOOD INDUSTRY,4584.0,0.0,4584.0,0.0,0.0,0.0,0.0,0.0,0.0,0.0,4584.0,19149.0,Direct,,,View report (https://accesshub.pdc.wa.gov/node/66894),Business and consumer affairs,General Business Issues,"Labor and Commerce Committees, LNI, DOR"
70114,66894-24891,66894,FE,17751,CAROLYN LOGUE,Employer,24891,Washington Library Association,20-Mar,4/17/2020,17140.0,Washington Library Association,2500.0,0.0,2500.0,0.0,0.0,0.0,0.0,0.0,0.0,0.0,2500.0,24891.0,Direct,,,View report (https://accesshub.pdc.wa.gov/node/66894),Education,School Library Issues,Education and K12 Committees
70115,66939-18342,66939,FE,17427,Sheri Call,Employer,18342,WA TRUCKING ASSN,20-Mar,4/17/2020,17199.0,WA TRUCKING ASSN,1666.67,0.0,1666.67,0.0,0.0,0.0,278.95,0.0,0.0,278.95,1945.62,18342.0,Direct,,,View report (https://accesshub.pdc.wa.gov/node/66939),Transportation,"Transportation, LCFS, HB2892, 1757, SB5981, HB2740, SB6497, SB2948","Transportation Committees, Labor Committees, Environment & Energy, WSDOT, staff"
70116,66894-44979,66894,FE,17751,CAROLYN LOGUE,Employer,44979,WAACCA,20-Mar,4/17/2020,17256.0,WAACCA,2500.0,0.0,2500.0,0.0,0.0,0.0,0.0,0.0,0.0,0.0,2500.0,44979.0,Direct,,,View report (https://accesshub.pdc.wa.gov/node/66894),Labor,HVAC Licensing issues,"L&I, Labor & Workforce Development, Labor & Commerce"
70117,66937-19512,66937,FE,17905,T K BENTLER/PUBLIC AFFAIRS ASSOC*,Employer,19512,WA ST INDEPENDENT AUTO DEALERS ASSN,20-Mar,4/17/2020,17257.0,WA ST INDEPENDENT AUTO DEALERS ASSN,2600.0,0.0,2600.0,0.0,0.0,0.0,0.0,0.0,0.0,0.0,2600.0,19512.0,Direct,,,View report (https://accesshub.pdc.wa.gov/node/66937),,,
70118,66925-19793,66925,FE,18036,SUSAN S TRACY,Employer,19793,WA ST SOC OF ORAL/MAXILLOFACIAL SURGERY,20-Feb,4/17/2020,17285.0,WA ST SOC OF ORAL/MAXILLOFACIAL SURGERY,3000.0,0.0,3000.0,0.0,0.0,0.0,0.0,0.0,0.0,0.0,3000.0,19793.0,Direct,,,View report (https://accesshub.pdc.wa.gov/node/66925),Health Care,Dental surgery,Hc
70119,66933-25311,66933,FE,25302,Northwest Solutions,Employer,25311,Public Works  Board,20-Mar,4/17/2020,25309.0,Public Works  Board,4000.0,0.0,4000.0,0.0,0.0,0.0,0.0,0.0,0.0,0.0,4000.0,25311.0,Direct,,,View report (https://accesshub.pdc.wa.gov/node/66933),,,
70120,66937-63162,66937,FE,17905,T K BENTLER/PUBLIC AFFAIRS ASSOC*,Employer,63162,American Rental Assn (Thru MultiState),20-Mar,4/17/2020,25595.0,American Rental Assn (Thru MultiState),2500.0,0.0,2500.0,0.0,0.0,0.0,0.0,0.0,0.0,0.0,2500.0,63162.0,Direct,,,View report (https://accesshub.pdc.wa.gov/node/66937),,,
70121,66937-27037,66937,FE,17905,T K BENTLER/PUBLIC AFFAIRS ASSOC*,Employer,27037,AMC,20-Mar,4/17/2020,27035.0,AMC,10000.0,0.0,10000.0,0.0,0.0,0.0,0.0,0.0,0.0,0.0,10000.0,27037.0,Direct,,,View report (https://accesshub.pdc.wa.gov/node/66937),,,
70122,66934-27427,66934,FE,27426,Peggen & Mara Political Consulting LLP,Employer,27427,Hoh Tribe,20-Mar,4/17/2020,27425.0,Hoh Tribe,3500.0,0.0,3500.0,0.0,0.0,0.0,0.0,0.0,0.0,0.0,3500.0,27427.0,Direct,,,View report (https://accesshub.pdc.wa.gov/node/66934),Human services,human svcs,Sen Van De Wege
70123,66937-44816,66937,FE,17905,T K BENTLER/PUBLIC AFFAIRS ASSOC*,Employer,44816,United Rentals c/o MultiState Associates Inc.,20-Mar,4/17/2020,44672.0,United Rentals c/o MultiState Associates Inc.,2500.0,0.0,2500.0,0.0,0.0,0.0,0.0,0.0,0.0,0.0,2500.0,44816.0,Direct,,,View report (https://accesshub.pdc.wa.gov/node/66937),,,
70124,66934-48623,66934,FE,27426,Peggen & Mara Political Consulting LLP,Employer,48623,EDELSON PC,20-Mar,4/17/2020,48622.0,EDELSON PC,5833.0,0.0,5833.0,0.0,0.0,0.0,0.0,0.0,0.0,0.0,5833.0,48623.0,Direct,,,View report (https://accesshub.pdc.wa.gov/node/66934),Business and consumer affairs,consumer affairs,"Sens Billig, King, Salomon, Wagoner, Saldana, Das, Stanford, Van de Wege, Pedersen, Hasegawa; Reps Hudgins, Blake, Kloba, Hanson, Jenkin, Kilduff"
70125,66894-60468,66894,FE,17751,CAROLYN LOGUE,Employer,60468,The BeliEve Foundation,20-Mar,4/17/2020,60425.0,The BeliEve Foundation,4000.0,0.0,4000.0,0.0,0.0,0.0,0.0,0.0,0.0,0.0,4000.0,60468.0,Direct,,,View report (https://accesshub.pdc.wa.gov/node/66894),State government,6523 Certificate of Birth Resulting in Stillbirth,"Legislative committees TBA, Senator Takko, Rep. Springer, Department of Health"
70126,66937-62862,66937,FE,17905,T K BENTLER/PUBLIC AFFAIRS ASSOC*,Employer,62862,Craft Cannabis Coalition,20-Mar,4/17/2020,62809.0,Craft Cannabis Coalition,4000.0,0.0,4000.0,0.0,0.0,0.0,0.0,0.0,0.0,0.0,4000.0,62862.0,Direct,,,View report (https://accesshub.pdc.wa.gov/node/66937),,,
70127,66934-63574,66934,FE,27426,Peggen & Mara Political Consulting LLP,Employer,63574,Nez Perce Tribe,20-Mar,4/17/2020,63272.0,Nez Perce Tribe,3500.0,0.0,3500.0,0.0,0.0,0.0,0.0,0.0,0.0,0.0,3500.0,63574.0,Direct,,,View report (https://accesshub.pdc.wa.gov/node/66934),,,
70128,66951-62598,66951,FE,17974,MELANIE J SMITH,Employer,62598,AARP WA ST OFFICE (Grist Public Affairs LLC),20-Mar,4/20/2020,16121.0,AARP WA ST OFFICE,350.0,0.0,350.0,0.0,0.0,0.0,0.0,0.0,0.0,0.0,350.0,62598.0,Subcontract,17599.0,Grist Public Affairs LLC,View report (https://accesshub.pdc.wa.gov/node/66951),,,
70129,66948-27903,66948,FE,27900,Antonio Ginatta,Employer,27903,COLUMBIA LEGAL SERVICES,20-Mar,4/20/2020,16338.0,COLUMBIA LEGAL SERVICES,360.0,0.0,360.0,0.0,0.0,0.0,0.0,0.0,0.0,0.0,360.0,27903.0,Direct,,,View report (https://accesshub.pdc.wa.gov/node/66948),Human services,private detention,Rep. Ortiz-Self / Sen. Saldana / Governor
70130,66947-28983,66947,FE,28982,Andrea Schmitt,Employer,28983,COLUMBIA LEGAL SERVICES,20-Mar,4/20/2020,16338.0,COLUMBIA LEGAL SERVICES,242.78,0.0,242.78,0.0,0.0,0.0,0.0,0.0,0.0,0.0,242.78,28983.0,Direct,,,View report (https://accesshub.pdc.wa.gov/node/66947),Labor,6518,Senate and house agriculture
70131,66951-19639,66951,FE,17974,MELANIE J SMITH,Employer,19639,COMMITTEE FOR CHILDREN,20-Mar,4/20/2020,16347.0,COMMITTEE FOR CHILDREN,2975.0,0.0,2975.0,0.0,0.0,0.0,0.0,0.0,0.0,0.0,2975.0,19639.0,Direct,,,View report (https://accesshub.pdc.wa.gov/node/66951),Education,social emotional learning,"education, early learning, child abuse prevention"
70132,63153-18529,63153,FE,17479,ROMAN M DANIELS-BROWN,Employer,18529,DaVita Inc.,20-Jan,4/20/2020,16380.0,DaVita Inc.,6000.0,0.0,6000.0,108.0,75.68,0.0,0.0,0.0,0.0,183.68,6183.68,18529.0,Direct,,,View report (https://accesshub.pdc.wa.gov/node/63153),Health Care,Health Care,Health Care
70133,65314-18529,65314,FE,17479,ROMAN M DANIELS-BROWN,Employer,18529,DaVita Inc.,20-Feb,4/20/2020,16380.0,DaVita Inc.,6000.0,0.0,6000.0,78.0,13.0,0.0,0.0,0.0,0.0,91.0,6091.0,18529.0,Direct,,,View report (https://accesshub.pdc.wa.gov/node/65314),Health Care,Health Care,Health Care
70134,66946-18529,66946,FE,17479,ROMAN M DANIELS-BROWN,Employer,18529,DaVita Inc.,20-Mar,4/20/2020,16380.0,DaVita Inc.,6000.0,0.0,6000.0,37.0,0.0,0.0,0.0,0.0,0.0,37.0,6037.0,18529.0,Direct,,,View report (https://accesshub.pdc.wa.gov/node/66946),Health Care,Health Care,Health Care
70135,66952-61830,66952,FE,61677,Andrea Piper-Wentland,Employer,61830,KING CO SEXUAL ASSAULT RESOURCE CENTER (RNJ Strategies),20-Mar,4/20/2020,16578.0,KING CO SEXUAL ASSAULT RESOURCE CENTER,2000.0,0.0,2000.0,0.0,0.0,0.0,0.0,0.0,0.0,0.0,2000.0,61830.0,Subcontract,38146.0,RNJ Strategies,View report (https://accesshub.pdc.wa.gov/node/66952),,,
70136,66951-39038,66951,FE,17974,MELANIE J SMITH,Employer,39038,NAMI WA,20-Mar,4/20/2020,16654.0,NAMI WA,1666.0,0.0,1666.0,0.0,0.0,0.0,0.0,0.0,0.0,0.0,1666.0,39038.0,Direct,,,View report (https://accesshub.pdc.wa.gov/node/66951),Health Care,Mental healthcare,healthcare
70137,63153-18531,63153,FE,17479,ROMAN M DANIELS-BROWN,Employer,18531,"Novartis Services, Inc.",20-Jan,4/20/2020,16725.0,"Novartis Services, Inc.",4583.33,0.0,4583.33,0.0,0.0,0.0,0.0,0.0,0.0,0.0,4583.33,18531.0,Direct,,,View report (https://accesshub.pdc.wa.gov/node/63153),Health Care,pharmaceuticals,health care
70138,65314-18531,65314,FE,17479,ROMAN M DANIELS-BROWN,Employer,18531,"Novartis Services, Inc.",20-Feb,4/20/2020,16725.0,"Novartis Services, Inc.",4583.33,0.0,4583.33,0.0,0.0,0.0,0.0,0.0,0.0,0.0,4583.33,18531.0,Direct,,,View report (https://accesshub.pdc.wa.gov/node/65314),Health Care,pharmaceuticals,health care
70139,66946-18531,66946,FE,17479,ROMAN M DANIELS-BROWN,Employer,18531,"Novartis Services, Inc.",20-Mar,4/20/2020,16725.0,"Novartis Services, Inc.",4583.33,0.0,4583.33,0.0,0.0,0.0,0.0,0.0,0.0,0.0,4583.33,18531.0,Direct,,,View report (https://accesshub.pdc.wa.gov/node/66946),Health Care,pharmaceuticals,health care
70140,63153-18532,63153,FE,17479,ROMAN M DANIELS-BROWN,Employer,18532,PACIFIC DENTAL SERVICES,20-Jan,4/20/2020,16749.0,PACIFIC DENTAL SERVICES,6000.0,0.0,6000.0,108.0,75.68,0.0,0.0,0.0,0.0,183.68,6183.68,18532.0,Direct,,,View report (https://accesshub.pdc.wa.gov/node/63153),Health Care,Dental Care,Health Care
70141,65314-18532,65314,FE,17479,ROMAN M DANIELS-BROWN,Employer,18532,PACIFIC DENTAL SERVICES,20-Feb,4/20/2020,16749.0,PACIFIC DENTAL SERVICES,6000.0,0.0,6000.0,78.0,13.0,0.0,0.0,0.0,0.0,91.0,6091.0,18532.0,Direct,,,View report (https://accesshub.pdc.wa.gov/node/65314),Health Care,Dental Care,Health Care
70142,66946-18532,66946,FE,17479,ROMAN M DANIELS-BROWN,Employer,18532,PACIFIC DENTAL SERVICES,20-Mar,4/20/2020,16749.0,PACIFIC DENTAL SERVICES,6000.0,0.0,6000.0,37.0,0.0,0.0,0.0,0.0,0.0,37.0,6037.0,18532.0,Direct,,,View report (https://accesshub.pdc.wa.gov/node/66946),Health Care,Dental Care,Health Care
70143,66952-61831,66952,FE,61677,Andrea Piper-Wentland,Employer,61831,PARENT TRUST FOR WA CHILDREN (RNJ Strategies),20-Mar,4/20/2020,16763.0,PARENT TRUST FOR WA CHILDREN,750.0,0.0,750.0,0.0,0.0,0.0,0.0,0.0,0.0,0.0,750.0,61831.0,Subcontract,38146.0,RNJ Strategies,View report (https://accesshub.pdc.wa.gov/node/66952),,,
70144,66951-25635,66951,FE,17974,MELANIE J SMITH,Employer,25635,MULTI-SERVICE CENTER LONG TERM CARE OMBUDSMAN PROGRAM,20-Mar,4/20/2020,16932.0,MULTI-SERVICE CENTER LONG TERM CARE OMBUDSMAN PROGRAM,792.0,0.0,792.0,0.0,0.0,0.0,0.0,0.0,0.0,0.0,792.0,25635.0,Direct,,,View report (https://accesshub.pdc.wa.gov/node/66951),Law and justice,long term care,healthcare and judiciary committees
70145,63153-39257,63153,FE,17479,ROMAN M DANIELS-BROWN,Employer,39257,Astria Health,20-Jan,4/20/2020,16957.0,Astria Health,6000.0,0.0,6000.0,108.0,0.0,0.0,0.0,0.0,0.0,108.0,6108.0,39257.0,Direct,,,View report (https://accesshub.pdc.wa.gov/node/63153),Health Care,Health care,Health care
70146,65314-39257,65314,FE,17479,ROMAN M DANIELS-BROWN,Employer,39257,Astria Health,20-Feb,4/20/2020,16957.0,Astria Health,6000.0,0.0,6000.0,78.0,13.0,0.0,0.0,0.0,0.0,91.0,6091.0,39257.0,Direct,,,View report (https://accesshub.pdc.wa.gov/node/65314),Health Care,Health care,Health care
70147,66946-39257,66946,FE,17479,ROMAN M DANIELS-BROWN,Employer,39257,Astria Health,20-Mar,4/20/2020,16957.0,Astria Health,6000.0,0.0,6000.0,37.0,0.0,0.0,0.0,0.0,0.0,37.0,6037.0,39257.0,Direct,,,View report (https://accesshub.pdc.wa.gov/node/66946),Health Care,Health care,Health care
70148,63153-18534,63153,FE,17479,ROMAN M DANIELS-BROWN,Employer,18534,TAKEDA PHARMACEUTICALS,20-Jan,4/20/2020,16970.0,TAKEDA PHARMACEUTICALS,5000.0,0.0,5000.0,0.0,0.0,0.0,0.0,0.0,0.0,0.0,5000.0,18534.0,Direct,,,View report (https://accesshub.pdc.wa.gov/node/63153),Health Care,Health Care,Health Care
70149,65314-18534,65314,FE,17479,ROMAN M DANIELS-BROWN,Employer,18534,TAKEDA PHARMACEUTICALS,20-Feb,4/20/2020,16970.0,TAKEDA PHARMACEUTICALS,5000.0,0.0,5000.0,0.0,0.0,0.0,0.0,0.0,0.0,0.0,5000.0,18534.0,Direct,,,View report (https://accesshub.pdc.wa.gov/node/65314),Health Care,Health Care,health Care
70150,66946-18534,66946,FE,17479,ROMAN M DANIELS-BROWN,Employer,18534,TAKEDA PHARMACEUTICALS,20-Mar,4/20/2020,16970.0,TAKEDA PHARMACEUTICALS,5000.0,0.0,5000.0,0.0,0.0,0.0,0.0,0.0,0.0,0.0,5000.0,18534.0,Direct,,,View report (https://accesshub.pdc.wa.gov/node/66946),Health Care,Health Care,Health Care
70151,66954-19636,66954,FE,17972,GLEN R SMITH,Employer,19636,WA ST GROUND WATER ASSN,20-Mar,4/20/2020,17240.0,WA ST GROUND WATER ASSN,2200.0,0.0,2200.0,159.96,0.0,0.0,0.0,0.0,0.0,159.96,2359.96,19636.0,Direct,,,View report (https://accesshub.pdc.wa.gov/node/66954),Environmental Affairs - natural resources - parks,2603 2866 2765 2672 1979 2564 2553 6465 6278 6301 6292 6494 6036 6170,Legislators and legislative committees dealing with the public hearing process on each of the previously referenced bills.
70152,63153-27407,63153,FE,17479,ROMAN M DANIELS-BROWN,Employer,27407,WA ST MEDICAL ASSN,20-Jan,4/20/2020,17261.0,WA ST MEDICAL ASSN,6000.0,0.0,6000.0,0.0,0.0,0.0,0.0,0.0,0.0,0.0,6000.0,27407.0,Direct,,,View report (https://accesshub.pdc.wa.gov/node/63153),Health Care,Health Care,Health Care
70153,65314-27407,65314,FE,17479,ROMAN M DANIELS-BROWN,Employer,27407,WA ST MEDICAL ASSN,20-Feb,4/20/2020,17261.0,WA ST MEDICAL ASSN,6000.0,0.0,6000.0,0.0,0.0,0.0,0.0,0.0,0.0,0.0,6000.0,27407.0,Direct,,,View report (https://accesshub.pdc.wa.gov/node/65314),Health Care,Health Care,Health Care
70154,66946-27407,66946,FE,17479,ROMAN M DANIELS-BROWN,Employer,27407,WA ST MEDICAL ASSN,20-Mar,4/20/2020,17261.0,WA ST MEDICAL ASSN,6000.0,0.0,6000.0,0.0,0.0,0.0,0.0,0.0,0.0,0.0,6000.0,27407.0,Direct,,,View report (https://accesshub.pdc.wa.gov/node/66946),Health Care,Health Care,Health Care
70155,66951-60575,66951,FE,17974,MELANIE J SMITH,Employer,60575,WA ST PSYCHOLOGICAL ASSN,20-Mar,4/20/2020,17269.0,WA ST PSYCHOLOGICAL ASSN,1000.0,0.0,1000.0,0.0,0.0,0.0,0.0,0.0,0.0,0.0,1000.0,60575.0,Direct,,,View report (https://accesshub.pdc.wa.gov/node/66951),Health Care,mental health,healthcare committees
70156,66951-24482,66951,FE,17974,MELANIE J SMITH,Employer,24482,WA ST SOCIETY FOR CLINICAL SOCIAL WORK,20-Mar,4/20/2020,17284.0,WA ST SOCIETY FOR CLINICAL SOCIAL WORK,900.0,0.0,900.0,0.0,0.0,0.0,0.0,0.0,0.0,0.0,900.0,24482.0,Direct,,,View report (https://accesshub.pdc.wa.gov/node/66951),,,
70157,66951-19644,66951,FE,17974,MELANIE J SMITH,Employer,19644,WELLSPRING FAMILY SERVICES,20-Mar,4/20/2020,17297.0,WELLSPRING FAMILY SERVICES,1150.0,0.0,1150.0,0.0,0.0,0.0,0.0,0.0,0.0,0.0,1150.0,19644.0,Direct,,,View report (https://accesshub.pdc.wa.gov/node/66951),Human services,early learning and human services,"human services, early learning"
70158,63153-18539,63153,FE,17479,ROMAN M DANIELS-BROWN,Employer,18539,WESTERN WOOD PRESERVERS INSTITUTE,20-Jan,4/20/2020,17304.0,WESTERN WOOD PRESERVERS INSTITUTE,1750.0,0.0,1750.0,0.0,0.0,0.0,0.0,0.0,0.0,0.0,1750.0,18539.0,Direct,,,View report (https://accesshub.pdc.wa.gov/node/63153),Environmental Affairs - natural resources - parks,Natural Resources,Natural Resources
70159,65314-18539,65314,FE,17479,ROMAN M DANIELS-BROWN,Employer,18539,WESTERN WOOD PRESERVERS INSTITUTE,20-Feb,4/20/2020,17304.0,WESTERN WOOD PRESERVERS INSTITUTE,1750.0,0.0,1750.0,0.0,0.0,0.0,0.0,0.0,0.0,0.0,1750.0,18539.0,Direct,,,View report (https://accesshub.pdc.wa.gov/node/65314),Environmental Affairs - natural resources - parks,Natural Resources,Natural Resources
70160,66946-18539,66946,FE,17479,ROMAN M DANIELS-BROWN,Employer,18539,WESTERN WOOD PRESERVERS INSTITUTE,20-Mar,4/20/2020,17304.0,WESTERN WOOD PRESERVERS INSTITUTE,1750.0,0.0,1750.0,0.0,0.0,0.0,0.0,0.0,0.0,0.0,1750.0,18539.0,Direct,,,View report (https://accesshub.pdc.wa.gov/node/66946),Environmental Affairs - natural resources - parks,Natural Resources,Natural Resources
70161,63153-26046,63153,FE,17479,ROMAN M DANIELS-BROWN,Employer,26046,"U.S. Anesthesia Partners, Inc.",20-Jan,4/20/2020,26042.0,"U.S. Anesthesia Partners, Inc.",6000.0,0.0,6000.0,108.0,75.68,0.0,0.0,0.0,0.0,183.68,6183.68,26046.0,Direct,,,View report (https://accesshub.pdc.wa.gov/node/63153),Health Care,Health Care,Health Care
70162,65314-26046,65314,FE,17479,ROMAN M DANIELS-BROWN,Employer,26046,"U.S. Anesthesia Partners, Inc.",20-Feb,4/20/2020,26042.0,"U.S. Anesthesia Partners, Inc.",6000.0,0.0,6000.0,78.0,13.0,0.0,0.0,0.0,0.0,91.0,6091.0,26046.0,Direct,,,View report (https://accesshub.pdc.wa.gov/node/65314),Health Care,Health Care,Health Care
70163,66946-26046,66946,FE,17479,ROMAN M DANIELS-BROWN,Employer,26046,"U.S. Anesthesia Partners, Inc.",20-Mar,4/20/2020,26042.0,"U.S. Anesthesia Partners, Inc.",6000.0,0.0,6000.0,37.0,0.0,0.0,0.0,0.0,0.0,37.0,6037.0,26046.0,Direct,,,View report (https://accesshub.pdc.wa.gov/node/66946),Health Care,Health Care,Health Care
70164,66951-64524,66951,FE,17974,MELANIE J SMITH,Employer,64524,Sightline Institute (Grist Public Affairs LLC),20-Mar,4/20/2020,37788.0,Sightline Institute,350.0,0.0,350.0,0.0,0.0,0.0,0.0,0.0,0.0,0.0,350.0,64524.0,Subcontract,17599.0,Grist Public Affairs LLC,View report (https://accesshub.pdc.wa.gov/node/66951),,,
70165,66951-62600,66951,FE,17974,MELANIE J SMITH,Employer,62600,EarthGen  (Grist Public Affairs LLC),20-Mar,4/20/2020,47838.0,EarthGen,350.0,0.0,350.0,0.0,0.0,0.0,0.0,0.0,0.0,0.0,350.0,62600.0,Subcontract,17599.0,Grist Public Affairs LLC,View report (https://accesshub.pdc.wa.gov/node/66951),,,
70166,66951-62601,66951,FE,17974,MELANIE J SMITH,Employer,62601,Coltura (Grist Public Affairs LLC),20-Mar,4/20/2020,50359.0,Coltura,250.0,0.0,250.0,0.0,0.0,0.0,0.0,0.0,0.0,0.0,250.0,62601.0,Subcontract,17599.0,Grist Public Affairs LLC,View report (https://accesshub.pdc.wa.gov/node/66951),,,
70167,66951-62603,66951,FE,17974,MELANIE J SMITH,Employer,62603,Puget Consumers Co-op DBA PCC Community Markets (Grist Public Affairs LLC),20-Mar,4/20/2020,50538.0,Puget Consumers Co-op DBA PCC Community Markets,350.0,0.0,350.0,0.0,0.0,0.0,0.0,0.0,0.0,0.0,350.0,62603.0,Subcontract,17599.0,Grist Public Affairs LLC,View report (https://accesshub.pdc.wa.gov/node/66951),,,
70168,66951-62599,66951,FE,17974,MELANIE J SMITH,Employer,62599,Methow Valley Citizens Council (Grist Public Affairs LLC),20-Mar,4/20/2020,50593.0,Methow Valley Citizens Council,350.0,0.0,350.0,0.0,0.0,0.0,0.0,0.0,0.0,0.0,350.0,62599.0,Subcontract,17599.0,Grist Public Affairs LLC,View report (https://accesshub.pdc.wa.gov/node/66951),,,
70169,63153-52078,63153,FE,17479,ROMAN M DANIELS-BROWN,Employer,52078,Rivian Automotive LLC,20-Jan,4/20/2020,52004.0,Rivian Automotive LLC,5500.0,0.0,5500.0,0.0,0.0,0.0,0.0,0.0,0.0,0.0,5500.0,52078.0,Direct,,,View report (https://accesshub.pdc.wa.gov/node/63153),Transportation,Electric Vehicles,Transportation
70170,65314-52078,65314,FE,17479,ROMAN M DANIELS-BROWN,Employer,52078,Rivian Automotive LLC,20-Feb,4/20/2020,52004.0,Rivian Automotive LLC,5500.0,0.0,5500.0,0.0,0.0,0.0,0.0,0.0,0.0,0.0,5500.0,52078.0,Direct,,,View report (https://accesshub.pdc.wa.gov/node/65314),Transportation,Electric Vehicles,Transportation
70171,66946-52078,66946,FE,17479,ROMAN M DANIELS-BROWN,Employer,52078,Rivian Automotive LLC,20-Mar,4/20/2020,52004.0,Rivian Automotive LLC,5500.0,0.0,5500.0,0.0,0.0,0.0,0.0,0.0,0.0,0.0,5500.0,52078.0,Direct,,,View report (https://accesshub.pdc.wa.gov/node/66946),Transportation,Electric Vehicles,Transportation
70172,63153-61371,63153,FE,17479,ROMAN M DANIELS-BROWN,Employer,61371,Life Flight Network,20-Jan,4/20/2020,54375.0,Life Flight Network,6000.0,0.0,6000.0,108.0,0.0,0.0,0.0,0.0,0.0,108.0,6108.0,61371.0,Direct,,,View report (https://accesshub.pdc.wa.gov/node/63153),Health Care,Health Care,Health Care Committee
70173,65314-61371,65314,FE,17479,ROMAN M DANIELS-BROWN,Employer,61371,Life Flight Network,20-Feb,4/20/2020,54375.0,Life Flight Network,6000.0,0.0,6000.0,78.0,13.0,0.0,0.0,0.0,0.0,91.0,6091.0,61371.0,Direct,,,View report (https://accesshub.pdc.wa.gov/node/65314),Health Care,Health Care,Health Care Committee
70174,66946-61371,66946,FE,17479,ROMAN M DANIELS-BROWN,Employer,61371,Life Flight Network,20-Mar,4/20/2020,54375.0,Life Flight Network,6000.0,0.0,6000.0,37.0,0.0,0.0,0.0,0.0,0.0,37.0,6037.0,61371.0,Direct,,,View report (https://accesshub.pdc.wa.gov/node/66946),Health Care,Health Care,Health Care Committee
70175,63153-55789,63153,FE,17479,ROMAN M DANIELS-BROWN,Employer,55789,Confluence Health,20-Jan,4/20/2020,55787.0,Confluence Health,6000.0,0.0,6000.0,108.0,0.0,0.0,0.0,0.0,0.0,108.0,6108.0,55789.0,Direct,,,View report (https://accesshub.pdc.wa.gov/node/63153),Health Care,Health Care,Health Care Committee and Ways and Means
70176,65314-55789,65314,FE,17479,ROMAN M DANIELS-BROWN,Employer,55789,Confluence Health,20-Feb,4/20/2020,55787.0,Confluence Health,6000.0,0.0,6000.0,78.0,13.0,0.0,0.0,0.0,0.0,91.0,6091.0,55789.0,Direct,,,View report (https://accesshub.pdc.wa.gov/node/65314),Health Care,Health Care,Health Care Committee and Ways and Means
70177,66946-55789,66946,FE,17479,ROMAN M DANIELS-BROWN,Employer,55789,Confluence Health,20-Mar,4/20/2020,55787.0,Confluence Health,6000.0,0.0,6000.0,37.0,0.0,0.0,0.0,0.0,0.0,37.0,6037.0,55789.0,Direct,,,View report (https://accesshub.pdc.wa.gov/node/66946),Health Care,Health Care,Health Care Committee and Ways and Means
70179,65772-62860,65772,FE,52049,Joseph Jerome,Employer,62860,Common Sense Media,20-Feb,4/20/2020,61416.0,Common Sense Media,790.5,0.0,790.5,464.7,0.0,0.0,0.0,0.0,0.0,464.7,1255.2,62860.0,Direct,,,View report (https://accesshub.pdc.wa.gov/node/65772),Technology,"SB6291, HB2720, HB2442, HB2364","House ITED, House of Representatives, Washington Senate, Attorney General"
70180,66949-62860,66949,FE,52049,Joseph Jerome,Employer,62860,Common Sense Media,20-Mar,4/20/2020,61416.0,Common Sense Media,290.86,0.0,290.86,0.0,0.0,0.0,0.0,0.0,0.0,0.0,290.86,62860.0,Direct,,,View report (https://accesshub.pdc.wa.gov/node/66949),Technology,SB 6281,"House ITED, House of Representatives, Washington Senate"
70181,65314-62934,65314,FE,17479,ROMAN M DANIELS-BROWN,Employer,62934,Smokey Point Behavioral Hospital,20-Feb,4/20/2020,62923.0,Smokey Point Behavioral Hospital,15000.0,0.0,15000.0,0.0,0.0,0.0,0.0,0.0,0.0,0.0,15000.0,62934.0,Direct,,,View report (https://accesshub.pdc.wa.gov/node/65314),Health Care,Health Care,Health Care Committee
70182,66964-51886,66964,FE,17580,Eric Gonzalez Alfaro,Employer,51886,AMERICAN CIVIL LIBERTIES UNION OF WA,20-Mar,4/21/2020,16097.0,AMERICAN CIVIL LIBERTIES UNION OF WA,325.0,0.0,325.0,0.0,0.0,0.0,0.0,0.0,0.0,0.0,325.0,51886.0,Direct,,,View report (https://accesshub.pdc.wa.gov/node/66964),Technology,Privacy,"Senate, House"
70187,64577-18996,64577,FE,17659,HOLLY CHISA,Employer,18996,INSTITUTE OF SCRAP RECYCLING PACIFIC NW CHAPTER,20-Feb,4/21/2020,16535.0,INSTITUTE OF SCRAP RECYCLING PACIFIC NW CHAPTER,1666.67,0.0,1666.67,0.0,0.0,0.0,0.0,0.0,0.0,0.0,1666.67,18996.0,Direct,,,View report (https://accesshub.pdc.wa.gov/node/64577),Environmental Affairs - natural resources - parks,All issues,Legislature
70188,66967-18996,66967,FE,17659,HOLLY CHISA,Employer,18996,INSTITUTE OF SCRAP RECYCLING PACIFIC NW CHAPTER,20-Mar,4/21/2020,16535.0,INSTITUTE OF SCRAP RECYCLING PACIFIC NW CHAPTER,1666.67,0.0,1666.67,0.0,0.0,0.0,0.0,0.0,0.0,0.0,1666.67,18996.0,Direct,,,View report (https://accesshub.pdc.wa.gov/node/66967),Environmental Affairs - natural resources - parks,All issues,Legislature
70189,64577-18998,64577,FE,17659,HOLLY CHISA,Employer,18998,NW GROCERY ASSN,20-Feb,4/21/2020,16707.0,NW GROCERY ASSN,7500.0,-3500.0,4000.0,0.0,0.0,0.0,0.0,0.0,0.0,0.0,4000.0,18998.0,Direct,,,View report (https://accesshub.pdc.wa.gov/node/64577),Environmental Affairs - natural resources - parks,All issues,Legislature and agencies
70190,66967-18998,66967,FE,17659,HOLLY CHISA,Employer,18998,NW GROCERY ASSN,20-Mar,4/21/2020,16707.0,NW GROCERY ASSN,7500.0,-3500.0,4000.0,0.0,0.0,0.0,0.0,0.0,0.0,0.0,4000.0,18998.0,Direct,,,View report (https://accesshub.pdc.wa.gov/node/66967),Environmental Affairs - natural resources - parks,All issues,Legislature and agencies
70191,64577-19000,64577,FE,17659,HOLLY CHISA,Employer,19000,UNITED TRUSTEES ASSN,20-Feb,4/21/2020,17015.0,UNITED TRUSTEES ASSN,1116.67,0.0,1116.67,0.0,0.0,0.0,0.0,0.0,0.0,0.0,1116.67,19000.0,Direct,,,View report (https://accesshub.pdc.wa.gov/node/64577),Financial institutions and insurance,All,Legislature
70192,66967-19000,66967,FE,17659,HOLLY CHISA,Employer,19000,UNITED TRUSTEES ASSN,20-Mar,4/21/2020,17015.0,UNITED TRUSTEES ASSN,1116.67,0.0,1116.67,0.0,0.0,0.0,0.0,0.0,0.0,0.0,1116.67,19000.0,Direct,,,View report (https://accesshub.pdc.wa.gov/node/66967),Financial institutions and insurance,All,Legislature
70194,66972-61249,66972,FE,48411,Ashley Sutton,Employer,61249,Win Win Network,20-Mar,4/21/2020,35885.0,Win Win Network,1650.0,0.0,1650.0,0.0,0.0,0.0,0.0,0.0,0.0,0.0,1650.0,61249.0,Direct,,,View report (https://accesshub.pdc.wa.gov/node/66972),State government,Redistricting,House and Senate Members
70195,64577-63490,64577,FE,17659,HOLLY CHISA,Employer,63490,Juul Labs Inc.,20-Feb,4/21/2020,49226.0,Juul Labs Inc.,7500.0,0.0,7500.0,0.0,0.0,0.0,0.0,0.0,0.0,0.0,7500.0,63490.0,Direct,,,View report (https://accesshub.pdc.wa.gov/node/64577),Health Care,All issues,Legislature
70196,66967-63490,66967,FE,17659,HOLLY CHISA,Employer,63490,Juul Labs Inc.,20-Mar,4/21/2020,49226.0,Juul Labs Inc.,7500.0,0.0,7500.0,0.0,0.0,0.0,0.0,0.0,0.0,0.0,7500.0,63490.0,Direct,,,View report (https://accesshub.pdc.wa.gov/node/66967),Health Care,All issues,Legislature
70197,64577-50629,64577,FE,17659,HOLLY CHISA,Employer,50629,MALLINCKRODT PHARMACEUTICALS,20-Feb,4/21/2020,50628.0,MALLINCKRODT PHARMACEUTICALS,5000.0,-500.0,4500.0,0.0,0.0,0.0,0.0,0.0,0.0,0.0,4500.0,50629.0,Direct,,,View report (https://accesshub.pdc.wa.gov/node/64577),Fiscal,All issues,Legislature
70198,66967-50629,66967,FE,17659,HOLLY CHISA,Employer,50629,MALLINCKRODT PHARMACEUTICALS,20-Mar,4/21/2020,50628.0,MALLINCKRODT PHARMACEUTICALS,5000.0,-500.0,4500.0,0.0,0.0,0.0,0.0,0.0,0.0,0.0,4500.0,50629.0,Direct,,,View report (https://accesshub.pdc.wa.gov/node/66967),Fiscal,All issues,Legislature
70199,66972-63613,66972,FE,48411,Ashley Sutton,Employer,63613,LAVLE USA Inc (Lodestar Strategic LLC),20-Mar,4/21/2020,50691.0,LAVLE USA Inc,2000.0,0.0,2000.0,0.0,0.0,0.0,0.0,0.0,0.0,0.0,2000.0,63613.0,Subcontract,51590.0,Lodestar Strategic LLC,View report (https://accesshub.pdc.wa.gov/node/66972),,,
70200,64577-61443,64577,FE,17659,HOLLY CHISA,Employer,61443,Receivables Management Association International,20-Feb,4/21/2020,53812.0,Receivables Management Association International,2500.0,0.0,2500.0,0.0,0.0,0.0,0.0,0.0,0.0,0.0,2500.0,61443.0,Direct,,,View report (https://accesshub.pdc.wa.gov/node/64577),Law and justice,All issues,Legislature
70201,66967-61443,66967,FE,17659,HOLLY CHISA,Employer,61443,Receivables Management Association International,20-Mar,4/21/2020,53812.0,Receivables Management Association International,2500.0,0.0,2500.0,0.0,0.0,0.0,0.0,0.0,0.0,0.0,2500.0,61443.0,Direct,,,View report (https://accesshub.pdc.wa.gov/node/66967),Law and justice,All issues,Legislature
70202,66972-64563,66972,FE,48411,Ashley Sutton,Employer,64563,Washington Schools Risk Management Pool (ALEX HUR),20-Mar,4/21/2020,62667.0,Washington Schools Risk Management Pool,3000.0,0.0,3000.0,0.0,0.0,0.0,0.0,0.0,0.0,0.0,3000.0,64563.0,Subcontract,17666.0,ALEX HUR,View report (https://accesshub.pdc.wa.gov/node/66972),,,
70203,65994-19445,65994,FE,17881,DANIEL W PAUL,Employer,19445,HUMANE SOCIETY OF THE UNITED STATES,20-Feb,4/22/2020,16514.0,HUMANE SOCIETY OF THE UNITED STATES,548.55,0.0,548.55,173.66,0.0,0.0,0.0,0.0,0.0,173.66,722.21,19445.0,Direct,,,View report (https://accesshub.pdc.wa.gov/node/65994),Law and justice,ESSB 6300,Senate Committee on Law & Justice. House Committee on Public Safety
70204,65724-18488,65724,FE,17462,PATRICK CONNOR,Employer,18488,NATL FEDERATION OF INDEPENDENT BUSINESS,20-Feb,4/22/2020,16665.0,NATL FEDERATION OF INDEPENDENT BUSINESS,9720.84,0.0,9720.84,0.0,0.0,0.0,0.0,0.0,2441.16,2441.16,12162.0,18488.0,Direct,,,View report (https://accesshub.pdc.wa.gov/node/65724),Business and consumer affairs,HB1110,House
70205,66976-52223,66976,FE,50060,Hometown Consulting,Employer,52223,"WA ASSN OF VEHICLE SUBAGENTS (Public Affairs Consulting, LLC)",20-Feb,4/22/2020,17207.0,WA ASSN OF VEHICLE SUBAGENTS,1000.0,0.0,1000.0,0.0,0.0,0.0,0.0,0.0,0.0,0.0,1000.0,52223.0,Subcontract,17358.0,"Public Affairs Consulting, LLC",View report (https://accesshub.pdc.wa.gov/node/66976),,,
70206,66977-52223,66977,FE,50060,Hometown Consulting,Employer,52223,"WA ASSN OF VEHICLE SUBAGENTS (Public Affairs Consulting, LLC)",20-Mar,4/22/2020,17207.0,WA ASSN OF VEHICLE SUBAGENTS,1000.0,0.0,1000.0,0.0,0.0,0.0,0.0,0.0,0.0,0.0,1000.0,52223.0,Subcontract,17358.0,"Public Affairs Consulting, LLC",View report (https://accesshub.pdc.wa.gov/node/66977),,,
70207,66979-18340,66979,FE,17425,ANDREW J BUSZ,Employer,18340,WA ST HOSPITAL ASSN,20-Mar,4/22/2020,17252.0,WA ST HOSPITAL ASSN,225.0,0.0,225.0,0.0,0.0,0.0,0.0,0.0,0.0,0.0,225.0,18340.0,Direct,,,View report (https://accesshub.pdc.wa.gov/node/66979),Health Care,Balance Billing,"OIC, OFM"
70208,66976-65258,66976,FE,50060,Hometown Consulting,Employer,65258,"WA ST SNOWMOBILE ASSN (Public Affairs Consulting, LLC)",20-Feb,4/22/2020,17282.0,WA ST SNOWMOBILE ASSN,1000.0,0.0,1000.0,0.0,0.0,0.0,0.0,0.0,0.0,0.0,1000.0,65258.0,Subcontract,17358.0,"Public Affairs Consulting, LLC",View report (https://accesshub.pdc.wa.gov/node/66976),,,
70209,66977-65258,66977,FE,50060,Hometown Consulting,Employer,65258,"WA ST SNOWMOBILE ASSN (Public Affairs Consulting, LLC)",20-Mar,4/22/2020,17282.0,WA ST SNOWMOBILE ASSN,1000.0,0.0,1000.0,0.0,0.0,0.0,0.0,0.0,0.0,0.0,1000.0,65258.0,Subcontract,17358.0,"Public Affairs Consulting, LLC",View report (https://accesshub.pdc.wa.gov/node/66977),,,
70210,66976-52222,66976,FE,50060,Hometown Consulting,Employer,52222,"Plumbing-Heating-Cooling Contractors of Washington (Public Affairs Consulting, LLC)",20-Feb,4/22/2020,41058.0,Plumbing-Heating-Cooling Contractors of Washington,1000.0,0.0,1000.0,0.0,0.0,0.0,0.0,0.0,0.0,0.0,1000.0,52222.0,Subcontract,17358.0,"Public Affairs Consulting, LLC",View report (https://accesshub.pdc.wa.gov/node/66976),,,
70211,66977-52222,66977,FE,50060,Hometown Consulting,Employer,52222,"Plumbing-Heating-Cooling Contractors of Washington (Public Affairs Consulting, LLC)",20-Mar,4/22/2020,41058.0,Plumbing-Heating-Cooling Contractors of Washington,1000.0,0.0,1000.0,0.0,0.0,0.0,0.0,0.0,0.0,0.0,1000.0,52222.0,Subcontract,17358.0,"Public Affairs Consulting, LLC",View report (https://accesshub.pdc.wa.gov/node/66977),,,
70212,66976-64489,66976,FE,50060,Hometown Consulting,Employer,64489,City of Orting,20-Feb,4/22/2020,64473.0,City of Orting,700.0,0.0,700.0,0.0,0.0,0.0,0.0,0.0,0.0,0.0,700.0,64489.0,Direct,,,View report (https://accesshub.pdc.wa.gov/node/66976),Transportation,Local Transportation Project,Transportation Committee
70213,66977-64489,66977,FE,50060,Hometown Consulting,Employer,64489,City of Orting,20-Mar,4/22/2020,64473.0,City of Orting,700.0,0.0,700.0,0.0,0.0,0.0,0.0,0.0,0.0,0.0,700.0,64489.0,Direct,,,View report (https://accesshub.pdc.wa.gov/node/66977),Transportation,Local Transportation Project,Transportation Committee
70214,66984-19315,66984,FE,17823,MICHAEL M MORAN,Employer,19315,COLVILLE CONFEDERATED TRIBES,20-Mar,4/23/2020,16343.0,COLVILLE CONFEDERATED TRIBES,7500.0,0.0,7500.0,0.0,0.0,0.0,0.0,0.0,0.0,0.0,7500.0,19315.0,Direct,,,View report (https://accesshub.pdc.wa.gov/node/66984),Human services,"Natural resources, water, Tribal Government",House and Senate members of the committee
70215,64669-50668,64669,FE,50667,Stephen Uy,Employer,50668,"Meta Platforms, Inc.",20-Jan,4/23/2020,16430.0,"Meta Platforms, Inc.",1148.94,0.0,1148.94,390.0,0.0,0.0,0.0,0.0,4098.81,4488.81,5637.75,50668.0,Direct,,,View report (https://accesshub.pdc.wa.gov/node/64669),Technology,Washington Privacy Act,"House Innovation, Technology & Economic Development Committee; Environment, Energy & Technology Committee"
70216,66136-50668,66136,FE,50667,Stephen Uy,Employer,50668,"Meta Platforms, Inc.",20-Feb,4/23/2020,16430.0,"Meta Platforms, Inc.",1851.07,0.0,1851.07,60.0,0.0,0.0,0.0,0.0,5127.85,5187.85,7038.92,50668.0,Direct,,,View report (https://accesshub.pdc.wa.gov/node/66136),Technology,Washington Privacy Act,"House Innovation, Technology & Economic Development Committee; Environment, Energy & Technology Committee"
70217,66775-50668,66775,FE,50667,Stephen Uy,Employer,50668,"Meta Platforms, Inc.",20-Mar,4/23/2020,16430.0,"Meta Platforms, Inc.",2872.35,0.0,2872.35,100.0,0.0,0.0,0.0,0.0,3730.77,3830.77,6703.12,50668.0,Direct,,,View report (https://accesshub.pdc.wa.gov/node/66775),Technology,Washington Privacy Act,"Technology & Economic Development Committee; Environment, Energy & Technology Committee"
70219,66983-19843,66983,FE,18064,RICHARD C WARBROUCK,Employer,19843,RETIRED FIREFIGHTERS OF WA,20-Feb,4/23/2020,16858.0,RETIRED FIREFIGHTERS OF WA,2796.0,0.0,2796.0,0.0,0.0,0.0,0.0,0.0,0.0,0.0,2796.0,19843.0,Direct,,,View report (https://accesshub.pdc.wa.gov/node/66983),State government,HB2051,Ways and Means Committee
70220,66988-40452,66988,FE,40449,Mark Rose,Employer,40452,"The Partners Group, Ltd.",20-Mar,4/23/2020,40451.0,"The Partners Group, Ltd.",2500.0,0.0,2500.0,0.0,0.0,0.0,0.0,0.0,0.0,0.0,2500.0,40452.0,Direct,,,View report (https://accesshub.pdc.wa.gov/node/66988),Health Care,SEBB,"Health Care Authority, School Employees Benefits Board"
70221,66995-19765,66995,FE,18027,ROWLAND THOMPSON,Employer,19765,ALLIED DAILY NEWSPAPERS OF WA,20-Mar,4/24/2020,16082.0,ALLIED DAILY NEWSPAPERS OF WA,4000.0,0.0,4000.0,94.13,113.06,0.0,0.0,0.0,0.0,207.19,4207.19,19765.0,Direct,,,View report (https://accesshub.pdc.wa.gov/node/66995),State government,Open government,All
70225,66995-19943,66995,FE,18027,ROWLAND THOMPSON,Employer,19943,AMERICAN TRAFFIC SOLUTIONS INC (STAUFFACHER COMMUNICATIONS*),20-Mar,4/24/2020,16124.0,AMERICAN TRAFFIC SOLUTIONS INC,2250.0,0.0,2250.0,0.0,0.0,0.0,0.0,0.0,0.0,0.0,2250.0,19943.0,Subcontract,17983.0,STAUFFACHER COMMUNICATIONS*,View report (https://accesshub.pdc.wa.gov/node/66995),,,
70226,66991-18922,66991,FE,17607,VLADIMIR GUTMAN-BRITTEN,Employer,18922,CLIMATE SOLUTIONS,20-Mar,4/24/2020,16327.0,CLIMATE SOLUTIONS,1750.0,0.0,1750.0,2250.0,0.0,0.0,0.0,0.0,0.0,2250.0,4000.0,18922.0,Direct,,,View report (https://accesshub.pdc.wa.gov/node/66991),Transportation,Clean transportation,House and Senate Transportation Committee; Governor's office
70232,66239-62230,66239,FE,17852,DARCY A NONEMACHER,Employer,62230,Washington Conservation Action,20-Feb,4/24/2020,17091.0,Washington Conservation Action,516.0,0.0,516.0,0.0,0.0,0.0,0.0,0.0,0.0,0.0,516.0,62230.0,Direct,,,View report (https://accesshub.pdc.wa.gov/node/66239),Environmental Affairs - natural resources - parks,Multiple,Multiple
70233,66239-19367,66239,FE,17852,DARCY A NONEMACHER,Employer,19367,Washington Conservation Action Education Fund,20-Feb,4/24/2020,17100.0,Washington Conservation Action Education Fund,3593.66,0.0,3593.66,0.0,0.0,0.0,0.0,0.0,0.0,0.0,3593.66,19367.0,Direct,,,View report (https://accesshub.pdc.wa.gov/node/66239),Environmental Affairs - natural resources - parks,Multiple,Multiple
70237,66991-62104,66991,FE,17607,VLADIMIR GUTMAN-BRITTEN,Employer,62104,Washington State Labor Council,20-Mar,4/24/2020,17258.0,Washington State Labor Council,3000.0,0.0,3000.0,0.0,0.0,0.0,0.0,0.0,0.0,0.0,3000.0,62104.0,Direct,,,View report (https://accesshub.pdc.wa.gov/node/66991),Transportation,Transportation Funding,H & S Trans
70239,66995-19766,66995,FE,18027,ROWLAND THOMPSON,Employer,19766,WINE INSTITUTE,20-Mar,4/24/2020,17312.0,WINE INSTITUTE,2083.33,0.0,2083.33,0.0,0.0,0.0,0.0,0.0,0.0,0.0,2083.33,19766.0,Direct,,,View report (https://accesshub.pdc.wa.gov/node/66995),Business and consumer affairs,Wine regulation,"Commerce committees, Liquor and Cannabis Board"
70241,66124-61826,66124,FE,61530,Cascadia Policy Solutions LLC,Employer,61826,CITY OF SEATTLE,20-Mar,4/25/2020,16311.0,CITY OF SEATTLE,5000.0,0.0,5000.0,0.0,0.0,0.0,0.0,0.0,0.0,0.0,5000.0,61826.0,Direct,,,View report (https://accesshub.pdc.wa.gov/node/66124),Environmental Affairs - natural resources - parks,HB2957 Authority Bill,Governors office- Chris Davis; House Energy and Environment Committee; meetings with client (City of Seattle) regarding legislative strategy.
70242,66124-61586,66124,FE,61530,Cascadia Policy Solutions LLC,Employer,61586,PORT OF SEATTLE,20-Mar,4/25/2020,16805.0,PORT OF SEATTLE,10325.0,0.0,10325.0,0.0,0.0,0.0,0.0,0.0,0.0,0.0,10325.0,61586.0,Direct,,,View report (https://accesshub.pdc.wa.gov/node/66124),Energy and utilities,HB 1110,Governor's Office - Reed Schuler; Senate Env. Cmte.; House Env. Cmte.
70243,66124-65177,66124,FE,61530,Cascadia Policy Solutions LLC,Employer,65177,Cosmo Specialty Fibers,20-Mar,4/25/2020,65164.0,Cosmo Specialty Fibers,22653.75,0.0,22653.75,0.0,0.0,0.0,0.0,0.0,0.0,0.0,22653.75,65177.0,Direct,,,View report (https://accesshub.pdc.wa.gov/node/66124),Business and consumer affairs,Supplemental Budget/ Strategic Reserve Fund,Washington
70244,66913-19694,66913,FE,17996,STRATEGIES 360*,Employer,19694,AGRI BEEF CO,20-Mar,4/27/2020,16075.0,AGRI BEEF CO,6000.0,0.0,6000.0,0.0,0.0,0.0,0.0,0.0,0.0,0.0,6000.0,19694.0,Direct,,,View report (https://accesshub.pdc.wa.gov/node/66913),,,
70245,66913-19695,66913,FE,17996,STRATEGIES 360*,Employer,19695,"US Ecology Washington, Inc.",20-Mar,4/27/2020,16101.0,"US Ecology Washington, Inc.",4000.0,0.0,4000.0,0.0,0.0,0.0,0.0,0.0,0.0,0.0,4000.0,19695.0,Direct,,,View report (https://accesshub.pdc.wa.gov/node/66913),,,
70246,66913-19696,66913,FE,17996,STRATEGIES 360*,Employer,19696,AMERICAN MEDICAL RESPONSE,20-Mar,4/27/2020,16114.0,AMERICAN MEDICAL RESPONSE,4000.0,0.0,4000.0,0.0,0.0,0.0,0.0,0.0,0.0,0.0,4000.0,19696.0,Direct,,,View report (https://accesshub.pdc.wa.gov/node/66913),Health Care,SB 6534,Senate Health Care / Senate Ways&Means
70247,66997-19236,66997,FE,17786,Leonard A Mc Comb,Employer,19236,ASSN OF WA PUBLIC HOSPITAL DISTRICTS,20-Mar,4/27/2020,16170.0,ASSN OF WA PUBLIC HOSPITAL DISTRICTS,4500.0,0.0,4500.0,122.95,0.0,0.0,0.0,0.0,0.0,122.95,4622.95,19236.0,Direct,,,View report (https://accesshub.pdc.wa.gov/node/66997),Health Care,OPERATING BUDGET,APPROPRIATIONS WAYS AND MEANS
70248,66913-19698,66913,FE,17996,STRATEGIES 360*,Employer,19698,CITY OF ARLINGTON,20-Mar,4/27/2020,16272.0,CITY OF ARLINGTON,1500.0,0.0,1500.0,0.0,0.0,0.0,0.0,0.0,0.0,0.0,1500.0,19698.0,Direct,,,View report (https://accesshub.pdc.wa.gov/node/66913),,,
70249,66913-19699,66913,FE,17996,STRATEGIES 360*,Employer,19699,CITY OF MARYSVILLE,20-Mar,4/27/2020,16298.0,CITY OF MARYSVILLE,12500.0,0.0,12500.0,0.0,0.0,0.0,0.0,0.0,0.0,0.0,12500.0,19699.0,Direct,,,View report (https://accesshub.pdc.wa.gov/node/66913),,,
70250,66913-48466,66913,FE,17996,STRATEGIES 360*,Employer,48466,CITY OF MONROE,20-Mar,4/27/2020,16299.0,CITY OF MONROE,4000.0,0.0,4000.0,0.0,0.0,0.0,0.0,0.0,0.0,0.0,4000.0,48466.0,Direct,,,View report (https://accesshub.pdc.wa.gov/node/66913),,,
70251,66913-19700,66913,FE,17996,STRATEGIES 360*,Employer,19700,CITY OF STANWOOD,20-Mar,4/27/2020,16312.0,CITY OF STANWOOD,1500.0,0.0,1500.0,0.0,0.0,0.0,0.0,0.0,0.0,0.0,1500.0,19700.0,Direct,,,View report (https://accesshub.pdc.wa.gov/node/66913),,,
70252,66998-18277,66998,FE,17397,PATRICK S BOSS (Cascade Consulting Group),Employer,18277,COLUMBIA BASIN RAILROAD(CBR)/CENTRAL WA RAILROAD (CWR),20-Mar,4/27/2020,16336.0,COLUMBIA BASIN RAILROAD(CBR)/CENTRAL WA RAILROAD (CWR),2000.0,0.0,2000.0,0.0,0.0,0.0,0.0,0.0,0.0,0.0,2000.0,18277.0,Direct,,,View report (https://accesshub.pdc.wa.gov/node/66998),Transportation,Rail Transportation,"WSDOT, Department of Ecology, Senate and House Transportation Committees"
70253,66997-19238,66997,FE,17786,Leonard A Mc Comb,Employer,19238,COMMUNITY HEALTH NETWORK OF WA,20-Mar,4/27/2020,16348.0,COMMUNITY HEALTH NETWORK OF WA,15000.0,0.0,15000.0,409.75,0.0,0.0,0.0,0.0,0.0,409.75,15409.75,19238.0,Direct,,,View report (https://accesshub.pdc.wa.gov/node/66997),Health Care,OPERATING BUDGET,APPROPRIATIONS WAYS AND MEANS
70254,66913-62476,66913,FE,17996,STRATEGIES 360*,Employer,62476,COMPASS HEALTH,20-Mar,4/27/2020,16353.0,COMPASS HEALTH,6500.0,0.0,6500.0,0.0,0.0,0.0,0.0,0.0,0.0,0.0,6500.0,62476.0,Direct,,,View report (https://accesshub.pdc.wa.gov/node/66913),,,
70255,66913-38853,66913,FE,17996,STRATEGIES 360*,Employer,38853,C-TRAN,20-Mar,4/27/2020,16375.0,C-TRAN,4000.0,0.0,4000.0,0.0,0.0,0.0,0.0,0.0,0.0,0.0,4000.0,38853.0,Direct,,,View report (https://accesshub.pdc.wa.gov/node/66913),,,
70256,66913-19701,66913,FE,17996,STRATEGIES 360*,Employer,19701,GRANT PUD,20-Mar,4/27/2020,16481.0,GRANT PUD,4500.0,0.0,4500.0,0.0,0.0,0.0,0.0,0.0,0.0,0.0,4500.0,19701.0,Direct,,,View report (https://accesshub.pdc.wa.gov/node/66913),,,
70257,66913-19703,66913,FE,17996,STRATEGIES 360*,Employer,19703,Jefferson County,20-Mar,4/27/2020,16558.0,Jefferson County,3000.0,0.0,3000.0,0.0,0.0,0.0,0.0,0.0,0.0,0.0,3000.0,19703.0,Direct,,,View report (https://accesshub.pdc.wa.gov/node/66913),,,
70258,66913-19704,66913,FE,17996,STRATEGIES 360*,Employer,19704,LEAGUE OF EDUCATION VOTERS,20-Mar,4/27/2020,16589.0,LEAGUE OF EDUCATION VOTERS,4750.0,0.0,4750.0,0.0,0.0,0.0,0.0,0.0,0.0,0.0,4750.0,19704.0,Direct,,,View report (https://accesshub.pdc.wa.gov/node/66913),,,
70259,66913-50736,66913,FE,17996,STRATEGIES 360*,Employer,50736,PACIFIC NORTHWEST REGIONAL COUNCIL OF CARPENTERS,20-Mar,4/27/2020,16754.0,PACIFIC NORTHWEST REGIONAL COUNCIL OF CARPENTERS,3000.0,0.0,3000.0,0.0,0.0,0.0,0.0,0.0,0.0,0.0,3000.0,50736.0,Direct,,,View report (https://accesshub.pdc.wa.gov/node/66913),,,
70260,66997-19239,66997,FE,17786,Leonard A Mc Comb,Employer,19239,PORT OF EVERETT,20-Mar,4/27/2020,16797.0,PORT OF EVERETT,3500.0,-2000.0,1500.0,0.0,0.0,0.0,0.0,0.0,0.0,0.0,1500.0,19239.0,Direct,,,View report (https://accesshub.pdc.wa.gov/node/66997),Environmental Affairs - natural resources - parks,CAPITAL BUDGET,CAPITAL WAYS AND MEANS
70261,66998-18281,66998,FE,17397,PATRICK S BOSS (Cascade Consulting Group),Employer,18281,PORT OF GRANT CO DIST 01 - Quincy,20-Mar,4/27/2020,16803.0,PORT OF GRANT CO DIST 01 - Quincy,2500.0,0.0,2500.0,0.0,0.0,0.0,0.0,0.0,0.0,0.0,2500.0,18281.0,Direct,,,View report (https://accesshub.pdc.wa.gov/node/66998),Fiscal,"Freight Mobility, Economic Development","WSDOT, Dept. of Commerce, Senate Ways & Means Committee, House Capital Budget Committee"
70262,66913-19711,66913,FE,17996,STRATEGIES 360*,Employer,19711,TULALIP TRIBES OF WA,20-Mar,4/27/2020,16997.0,TULALIP TRIBES OF WA,7500.0,0.0,7500.0,0.0,0.0,0.0,0.0,0.0,0.0,0.0,7500.0,19711.0,Direct,,,View report (https://accesshub.pdc.wa.gov/node/66913),Fiscal,HB 2803 / SB 6601,House Finance / Senate Ways & Means
70263,66913-55581,66913,FE,17996,STRATEGIES 360*,Employer,55581,WA AMBULANCE ASSN,20-Mar,4/27/2020,17045.0,WA AMBULANCE ASSN,5000.0,0.0,5000.0,0.0,0.0,0.0,0.0,0.0,0.0,0.0,5000.0,55581.0,Direct,,,View report (https://accesshub.pdc.wa.gov/node/66913),Health Care,SB 6534,Senate Health Care / Senate Ways & Means
70264,67002-41229,67002,FE,17892,Laura Pierce,Employer,41229,Nonprofit Association of Washington,20-Apr,4/27/2020,17155.0,Nonprofit Association of Washington,200.0,0.0,200.0,0.0,0.0,0.0,0.0,0.0,0.0,0.0,200.0,41229.0,Direct,,,View report (https://accesshub.pdc.wa.gov/node/67002),State government,COVID-19 response,"Governor, legislators, meetings with Rep Thai and Rep Pollet"
70265,66913-49599,66913,FE,17996,STRATEGIES 360*,Employer,49599,WA POISON CENTER,20-Mar,4/27/2020,17166.0,WA POISON CENTER,3000.0,0.0,3000.0,0.0,0.0,0.0,0.0,0.0,0.0,0.0,3000.0,49599.0,Direct,,,View report (https://accesshub.pdc.wa.gov/node/66913),Fiscal,Capital Budget,Capital Budget
70266,66997-19240,66997,FE,17786,Leonard A Mc Comb,Employer,19240,WA ST HOSPITAL ASSN,20-Mar,4/27/2020,17252.0,WA ST HOSPITAL ASSN,10500.0,0.0,10500.0,286.82,0.0,0.0,0.0,0.0,0.0,286.82,10786.82,19240.0,Direct,,,View report (https://accesshub.pdc.wa.gov/node/66997),Health Care,OPERATING BUDGET,APPROPRIATIONS WAYS AND MEANS
70267,66913-38812,66913,FE,17996,STRATEGIES 360*,Employer,38812,WILLAPA-GRAYS HARBOR OYSTER GROWERS ASSN,20-Mar,4/27/2020,23612.0,WILLAPA-GRAYS HARBOR OYSTER GROWERS ASSN,3500.0,0.0,3500.0,0.0,0.0,0.0,0.0,0.0,0.0,0.0,3500.0,38812.0,Direct,,,View report (https://accesshub.pdc.wa.gov/node/66913),,,
70268,66913-30627,66913,FE,17996,STRATEGIES 360*,Employer,30627,Save the Children US Programs,20-Mar,4/27/2020,30626.0,Save the Children US Programs,3000.0,0.0,3000.0,0.0,0.0,0.0,0.0,0.0,0.0,0.0,3000.0,30627.0,Direct,,,View report (https://accesshub.pdc.wa.gov/node/66913),,,
70269,66913-47893,66913,FE,17996,STRATEGIES 360*,Employer,47893,"North Pacific Paper Company, LLC",20-Mar,4/27/2020,47891.0,"North Pacific Paper Company, LLC",3000.0,0.0,3000.0,0.0,0.0,0.0,0.0,0.0,0.0,0.0,3000.0,47893.0,Direct,,,View report (https://accesshub.pdc.wa.gov/node/66913),,,
70270,66913-49843,66913,FE,17996,STRATEGIES 360*,Employer,49843,Northpoint Recovery LLC,20-Mar,4/27/2020,49708.0,Northpoint Recovery LLC,3000.0,0.0,3000.0,0.0,0.0,0.0,0.0,0.0,0.0,0.0,3000.0,49843.0,Direct,,,View report (https://accesshub.pdc.wa.gov/node/66913),,,
70271,66913-61419,66913,FE,17996,STRATEGIES 360*,Employer,61419,CHILDRENS CAMPAIGN FUND,20-Mar,4/27/2020,50626.0,CHILDRENS CAMPAIGN FUND,5000.0,0.0,5000.0,0.0,0.0,0.0,0.0,0.0,0.0,0.0,5000.0,61419.0,Direct,,,View report (https://accesshub.pdc.wa.gov/node/66913),Education,Education / Early Education Policy & Fiscal,Early Education / Fiscal Committees
70272,66913-51460,66913,FE,17996,STRATEGIES 360*,Employer,51460,PacificSource Health Plans,20-Mar,4/27/2020,51438.0,PacificSource Health Plans,4500.0,0.0,4500.0,0.0,0.0,0.0,0.0,0.0,0.0,0.0,4500.0,51460.0,Direct,,,View report (https://accesshub.pdc.wa.gov/node/66913),Health Care,Health Care Policy,House / Senate Health Care
70273,66998-54128,66998,FE,17397,PATRICK S BOSS (Cascade Consulting Group),Employer,54128,North I-90 Odessa Aquifer Groundwater Replacement Project,20-Mar,4/27/2020,53920.0,North I-90 Odessa Aquifer Groundwater Replacement Project,1500.0,0.0,1500.0,0.0,0.0,0.0,0.0,0.0,0.0,0.0,1500.0,54128.0,Direct,,,View report (https://accesshub.pdc.wa.gov/node/66998),Fiscal,Capital Budget,Department of Ecology
70274,67003-60444,67003,FE,59659,Orlando Cano Consulting LLC,Employer,60444,ONEAMERICA,20-Mar,4/28/2020,16494.0,ONEAMERICA,4000.0,0.0,4000.0,0.0,0.0,0.0,0.0,0.0,0.0,0.0,4000.0,60444.0,Direct,,,View report (https://accesshub.pdc.wa.gov/node/67003),Education,Early learning policy and budget,Legislature
70275,67003-60446,67003,FE,59659,Orlando Cano Consulting LLC,Employer,60446,ONEAMERICA (ALEX HUR),20-Mar,4/28/2020,16494.0,ONEAMERICA,2000.0,0.0,2000.0,0.0,0.0,0.0,0.0,0.0,0.0,0.0,2000.0,60446.0,Subcontract,17666.0,ALEX HUR,View report (https://accesshub.pdc.wa.gov/node/67003),Education,Early learning policy and budget,Legislature
70276,67003-60539,67003,FE,59659,Orlando Cano Consulting LLC,Employer,60539,STATEWIDE POVERTY ACTION NETWORK (ALEX HUR),20-Mar,4/28/2020,16952.0,STATEWIDE POVERTY ACTION NETWORK,2000.0,0.0,2000.0,0.0,0.0,0.0,0.0,0.0,0.0,0.0,2000.0,60539.0,Subcontract,17666.0,ALEX HUR,View report (https://accesshub.pdc.wa.gov/node/67003),,,
70277,67003-60517,67003,FE,59659,Orlando Cano Consulting LLC,Employer,60517,SUPERINTENDENT OF PUBLIC INSTRUCTION,20-Mar,4/28/2020,16961.0,SUPERINTENDENT OF PUBLIC INSTRUCTION,2500.0,0.0,2500.0,0.0,0.0,0.0,0.0,0.0,0.0,0.0,2500.0,60517.0,Direct,,,View report (https://accesshub.pdc.wa.gov/node/67003),Education,Policy and Budget,Legislature
70278,67003-62001,67003,FE,59659,Orlando Cano Consulting LLC,Employer,62001,Group Health Foundation,20-Mar,4/28/2020,61438.0,Group Health Foundation,3055.0,0.0,3055.0,0.0,0.0,0.0,0.0,0.0,0.0,0.0,3055.0,62001.0,Direct,,,View report (https://accesshub.pdc.wa.gov/node/67003),,,
70279,67003-62811,67003,FE,59659,Orlando Cano Consulting LLC,Employer,62811,Chief Seattle Club,20-Mar,4/28/2020,62810.0,Chief Seattle Club,1700.0,0.0,1700.0,0.0,0.0,0.0,0.0,0.0,0.0,0.0,1700.0,62811.0,Direct,,,View report (https://accesshub.pdc.wa.gov/node/67003),Fiscal,Capital Budget,Legislature
70280,67003-63571,67003,FE,59659,Orlando Cano Consulting LLC,Employer,63571,University Heights Center for the Community Association,20-Mar,4/28/2020,63544.0,University Heights Center for the Community Association,2500.0,0.0,2500.0,0.0,0.0,0.0,0.0,0.0,0.0,0.0,2500.0,63571.0,Direct,,,View report (https://accesshub.pdc.wa.gov/node/67003),Fiscal,Capital Budget,Legislature
70281,66282-19359,66282,FE,17848,THE NEXUS GROUP LLC*,Employer,19359,ASSN OF WA SCHOOL PRINCIPALS,20-Mar,4/29/2020,16173.0,ASSN OF WA SCHOOL PRINCIPALS,1500.0,0.0,1500.0,0.0,0.0,0.0,0.0,0.0,0.0,0.0,1500.0,19359.0,Direct,,,View report (https://accesshub.pdc.wa.gov/node/66282),Fiscal,RETIREMENT HEALTH CARE,SCPP SEBB DRS PEBB PFC APPROPRIATIONS
70282,67014-19359,67014,FE,17848,THE NEXUS GROUP LLC*,Employer,19359,ASSN OF WA SCHOOL PRINCIPALS,20-Apr,4/29/2020,16173.0,ASSN OF WA SCHOOL PRINCIPALS,1500.0,0.0,1500.0,0.0,0.0,0.0,0.0,0.0,0.0,0.0,1500.0,19359.0,Direct,,,View report (https://accesshub.pdc.wa.gov/node/67014),Fiscal,Pension/ Health Care,SCPP DRS PFC SEBB PEBB HCA APPRORIATIONS
70283,66282-19362,66282,FE,17848,THE NEXUS GROUP LLC*,Employer,19362,WA ASSN OF SCHOOL ADMINISTRATORS,20-Mar,4/29/2020,17186.0,WA ASSN OF SCHOOL ADMINISTRATORS,3000.0,0.0,3000.0,0.0,0.0,0.0,0.0,0.0,0.0,0.0,3000.0,19362.0,Direct,,,View report (https://accesshub.pdc.wa.gov/node/66282),Fiscal,RETIREMENT HEALTH COMPENSATION,SCPP SEBB DRS PEBB PFC APPROPRIATIONS
70284,67014-19362,67014,FE,17848,THE NEXUS GROUP LLC*,Employer,19362,WA ASSN OF SCHOOL ADMINISTRATORS,20-Apr,4/29/2020,17186.0,WA ASSN OF SCHOOL ADMINISTRATORS,3000.0,0.0,3000.0,0.0,0.0,0.0,0.0,0.0,0.0,0.0,3000.0,19362.0,Direct,,,View report (https://accesshub.pdc.wa.gov/node/67014),Fiscal,RETIREMENT HEALTH COMPENSATION,SCPP DRS PFC SEBB PEBB HCA APPROPRIATIONS
70285,66282-19363,66282,FE,17848,THE NEXUS GROUP LLC*,Employer,19363,WA ST SCHOOL RETIREES ASSN,20-Mar,4/29/2020,17286.0,WA ST SCHOOL RETIREES ASSN,5537.0,0.0,5537.0,0.0,0.0,0.0,0.0,0.0,0.0,0.0,5537.0,19363.0,Direct,,,View report (https://accesshub.pdc.wa.gov/node/66282),Fiscal,Pension/Health Care,SCPP SEBB PEBB DRS PFC APPROPRIATIONS
70286,67014-19363,67014,FE,17848,THE NEXUS GROUP LLC*,Employer,19363,WA ST SCHOOL RETIREES ASSN,20-Apr,4/29/2020,17286.0,WA ST SCHOOL RETIREES ASSN,5537.0,0.0,5537.0,0.0,0.0,0.0,0.0,0.0,0.0,0.0,5537.0,19363.0,Direct,,,View report (https://accesshub.pdc.wa.gov/node/67014),Fiscal,PENSION HEALTH CARE,SCPP DRS PFC HCA SEBB APPROPRIATIOINS
70287,67013-38072,67013,FE,38070,Paula Swedeen,Employer,38072,Conservation NW,20-Mar,4/29/2020,38071.0,Conservation NW,450.0,0.0,450.0,0.0,0.0,0.0,0.0,0.0,0.0,0.0,450.0,38072.0,Direct,,,View report (https://accesshub.pdc.wa.gov/node/67013),Environmental Affairs - natural resources - parks,DNR budget; forest carbon HB2523,"Senate Ways and Means, House Appropriations"
70288,67025-18235,67025,FE,17379,ERICA D HALLOCK,Employer,18235,COUNCIL FOR A STRONG AMERICA,20-Apr,4/30/2020,16372.0,COUNCIL FOR A STRONG AMERICA,525.0,0.0,525.0,0.0,0.0,0.0,0.0,0.0,0.0,0.0,525.0,18235.0,Direct,,,View report (https://accesshub.pdc.wa.gov/node/67025),Human services,early learning,Senate Early Learning/K-12; Senate Ways and Means; House Human Services and Early Learning; House Appropriations
70289,67025-18236,67025,FE,17379,ERICA D HALLOCK,Employer,18236,EMPIRE HEALTH FOUNDATION,20-Apr,4/30/2020,16413.0,EMPIRE HEALTH FOUNDATION,1400.0,0.0,1400.0,0.0,0.0,0.0,0.0,0.0,0.0,0.0,1400.0,18236.0,Direct,,,View report (https://accesshub.pdc.wa.gov/node/67025),Health Care,"network administrator child welfare, CARE Fund, Accountable Communities of Health","Sen Ways and Means, House Appropriations, Dept Children Youth and Families"
70290,67028-38874,67028,FE,38873,Aaron Czyzewski,Employer,38874,FOOD LIFELINE,20-Feb,4/30/2020,16448.0,FOOD LIFELINE,6755.0,0.0,6755.0,0.0,0.0,0.0,0.0,0.0,0.0,0.0,6755.0,38874.0,Direct,,,View report (https://accesshub.pdc.wa.gov/node/67028),Human services,Hunger relief,"Appropriations, Human Services & Early Learning, Rural Development, Agriculture, & Natural Resources; Agriculture, Water, Natural Resources & Parks, Human Services, Reentry & Rehabilitation, Ways & Means"
70291,67029-38874,67029,FE,38873,Aaron Czyzewski,Employer,38874,FOOD LIFELINE,20-Mar,4/30/2020,16448.0,FOOD LIFELINE,6755.0,0.0,6755.0,0.0,0.0,0.0,0.0,0.0,0.0,0.0,6755.0,38874.0,Direct,,,View report (https://accesshub.pdc.wa.gov/node/67029),Human services,Hunger relief,"Appropriations, Human Services & Early Learning, Rural Development, Agriculture, & Natural Resources; Agriculture, Water, Natural Resources & Parks, Human Services, Reentry & Rehabilitation, Ways & Means"
70293,67026-47762,67026,FE,46364,Mike Hoover Public Affairs,Employer,47762,NANCY LEMAY,20-Apr,4/30/2020,16594.0,NANCY LEMAY,2250.0,0.0,2250.0,0.0,0.0,0.0,0.0,0.0,0.0,0.0,2250.0,47762.0,Direct,,,View report (https://accesshub.pdc.wa.gov/node/67026),Fiscal,Capital Budget maintenance,Various legislators & staff
70294,67026-49473,67026,FE,46364,Mike Hoover Public Affairs,Employer,49473,WA STATE ASSN OF COUNTIES (WSAC),20-Apr,4/30/2020,17215.0,WA STATE ASSN OF COUNTIES (WSAC),6000.0,0.0,6000.0,0.0,0.0,0.0,0.0,0.0,0.0,0.0,6000.0,49473.0,Direct,,,View report (https://accesshub.pdc.wa.gov/node/67026),Local government,COVID-19 impact,Various legilslators & staff
70297,67027-18959,67027,FE,17631,TIM HERBERT,Employer,18959,WA State Assn of Plumbers & Pipefitters,20-Apr,4/30/2020,17275.0,WA State Assn of Plumbers & Pipefitters,472.98,0.0,472.98,0.0,0.0,0.0,0.0,0.0,0.0,0.0,472.98,18959.0,Direct,,,View report (https://accesshub.pdc.wa.gov/node/67027),Labor,"Plumbing Codes, PipeTrades","Senate, House"
70298,67025-61436,67025,FE,17379,ERICA D HALLOCK,Employer,61436,Start Early,20-Apr,4/30/2020,61435.0,Start Early,875.0,0.0,875.0,0.0,0.0,0.0,0.0,0.0,0.0,0.0,875.0,61436.0,Direct,,,View report (https://accesshub.pdc.wa.gov/node/67025),Human services,early learning,"DCYF, House Appropriations, Senate Ways and Means, House Human services, Senate Early Learning &K-12"
70299,67040-38845,67040,FE,38146,RNJ Strategies,Employer,38845,Alliance for Gun Responsibility,20-Apr,5/1/2020,16083.0,Alliance for Gun Responsibility,12000.0,0.0,12000.0,0.0,0.0,0.0,0.0,0.0,0.0,0.0,12000.0,38845.0,Direct,,,View report (https://accesshub.pdc.wa.gov/node/67040),Law and justice,Gun Responsibility,All House Senate
70300,67047-24862,67047,FE,18045,Amber Ulvenes,Employer,24862,ALZHEIMERS ASSN WA ST CHAPTER,20-Apr,5/1/2020,16086.0,ALZHEIMERS ASSN WA ST CHAPTER,1100.0,0.0,1100.0,0.0,0.0,0.0,0.0,0.0,0.0,0.0,1100.0,24862.0,Direct,,,View report (https://accesshub.pdc.wa.gov/node/67047),Health Care,FTE funding to support DAC,"Health Care & Appropriations Committees, Jt Selected Comm on Aging & Disability"
70301,67047-35034,67047,FE,18045,Amber Ulvenes,Employer,35034,AMERICAN ACADEMY OF PEDIATRICS-WA CHAPTER,20-Apr,5/1/2020,16090.0,AMERICAN ACADEMY OF PEDIATRICS-WA CHAPTER,2916.67,0.0,2916.67,0.0,0.0,0.0,0.0,0.0,0.0,0.0,2916.67,35034.0,Direct,,,View report (https://accesshub.pdc.wa.gov/node/67047),Health Care,"Medicaid reimbursement, children's mental health","HCA, Health Care Committees, appropriation committees"
70302,67053-18656,67053,FE,17521,EMILY MURPHY STRATEGIES LLC*,Employer,18656,Children's Alliance,20-Apr,5/1/2020,16256.0,Children's Alliance,7900.0,0.0,7900.0,0.0,0.0,0.0,0.0,0.0,0.0,0.0,7900.0,18656.0,Direct,,,View report (https://accesshub.pdc.wa.gov/node/67053),Fiscal,Early Learning,Various
70303,67044-18686,67044,FE,17532,HUGH EWART,Employer,18686,Seattle Children's Hospital,20-Apr,5/1/2020,16259.0,Seattle Children's Hospital,360.0,0.0,360.0,0.0,0.0,0.0,0.0,0.0,0.0,0.0,360.0,18686.0,Direct,,,View report (https://accesshub.pdc.wa.gov/node/67044),Health Care,COVID-19 Emergency Relief - Healthcare,"Children's Behavioral Health Workgroup Committee, Admiral Raquel Bono"
70304,67040-39052,67040,FE,38146,RNJ Strategies,Employer,39052,CITY OF SEATTLE,20-Apr,5/1/2020,16311.0,CITY OF SEATTLE,5650.0,0.0,5650.0,0.0,0.0,0.0,0.0,0.0,0.0,0.0,5650.0,39052.0,Direct,,,View report (https://accesshub.pdc.wa.gov/node/67040),Transportation,Transportation,All House Senate
70305,67032-18721,67032,FE,17545,JODY DANIELS,Employer,18721,GLAXO SMITHKLINE,20-Apr,5/1/2020,16473.0,GLAXO SMITHKLINE,800.0,0.0,800.0,0.0,0.0,0.0,0.0,0.0,0.0,0.0,800.0,18721.0,Direct,,,View report (https://accesshub.pdc.wa.gov/node/67032),Health Care,Vaccines,DOH
70307,67047-28555,67047,FE,18045,Amber Ulvenes,Employer,28555,Kaiser Foundation Health Plan of the Northwest,20-Apr,5/1/2020,16569.0,Kaiser Foundation Health Plan of the Northwest,1350.0,0.0,1350.0,0.0,0.0,0.0,0.0,0.0,0.0,0.0,1350.0,28555.0,Direct,,,View report (https://accesshub.pdc.wa.gov/node/67047),Health Care,Various health care issues,"Health Care Committees, HCA, OFM"
70308,67040-56719,67040,FE,38146,RNJ Strategies,Employer,56719,KING CO SEXUAL ASSAULT RESOURCE CENTER,20-Apr,5/1/2020,16578.0,KING CO SEXUAL ASSAULT RESOURCE CENTER,4000.0,0.0,4000.0,0.0,0.0,0.0,0.0,0.0,0.0,0.0,4000.0,56719.0,Direct,,,View report (https://accesshub.pdc.wa.gov/node/67040),Law and justice,Law and Justice,All House Senate
70309,67047-19818,67047,FE,18045,Amber Ulvenes,Employer,19818,MIDWIVES ASSOCIATION OF WA STATE,20-Apr,5/1/2020,16637.0,MIDWIVES ASSOCIATION OF WA STATE,1500.0,0.0,1500.0,0.0,0.0,0.0,0.0,0.0,0.0,0.0,1500.0,19818.0,Direct,,,View report (https://accesshub.pdc.wa.gov/node/67047),Health Care,"licensing fees, doula reimbursement","dept of health, HCA"
70310,67053-37645,67053,FE,17521,EMILY MURPHY STRATEGIES LLC*,Employer,37645,PRO-CHOICE WASHINGTON,20-Apr,5/1/2020,16656.0,PRO-CHOICE WASHINGTON,1500.0,0.0,1500.0,0.0,0.0,0.0,0.0,0.0,0.0,0.0,1500.0,37645.0,Direct,,,View report (https://accesshub.pdc.wa.gov/node/67053),,,
70311,67034-19739,67034,FE,18019,MICHAEL TEMPLE,Employer,19739,PHARMACEUTICAL CARE MANAGEMENT ASSN,20-Apr,5/1/2020,16775.0,PHARMACEUTICAL CARE MANAGEMENT ASSN,7500.0,0.0,7500.0,0.0,0.0,0.0,0.0,0.0,0.0,0.0,7500.0,19739.0,Direct,,,View report (https://accesshub.pdc.wa.gov/node/67034),Health Care,Health,"Legislature, Governor, OIC, HCA"
70312,67047-19820,67047,FE,18045,Amber Ulvenes,Employer,19820,RESOLUTION WA,20-Apr,5/1/2020,16856.0,RESOLUTION WA,1000.0,0.0,1000.0,0.0,0.0,0.0,0.0,0.0,0.0,0.0,1000.0,19820.0,Direct,,,View report (https://accesshub.pdc.wa.gov/node/67047),Law and justice,DRC funding,"Dept of Commerce, Law & Justice and Judiciary Committees, OFM"
70313,67053-25984,67053,FE,17521,EMILY MURPHY STRATEGIES LLC*,Employer,25984,RETIRED PUBLIC EMPLOYEES COUNCIL OF WA,20-Apr,5/1/2020,16859.0,RETIRED PUBLIC EMPLOYEES COUNCIL OF WA,3250.0,0.0,3250.0,0.0,0.0,0.0,0.0,0.0,0.0,0.0,3250.0,25984.0,Direct,,,View report (https://accesshub.pdc.wa.gov/node/67053),Fiscal,Plan 1 COLA,Various
70314,67034-19740,67034,FE,18019,MICHAEL TEMPLE,Employer,19740,SPOKANE TRIBE OF INDIANS,20-Apr,5/1/2020,16944.0,SPOKANE TRIBE OF INDIANS,5000.0,0.0,5000.0,0.0,0.0,0.0,0.0,0.0,0.0,0.0,5000.0,19740.0,Direct,,,View report (https://accesshub.pdc.wa.gov/node/67034),Environmental Affairs - natural resources - parks,Tribal Issues,"Legislature, Governor, WSGC, DNR , DOL, AG"
70315,67040-40398,67040,FE,38146,RNJ Strategies,Employer,40398,UNITED FOOD & COMM WRKRS # 3000,20-Apr,5/1/2020,17005.0,UNITED FOOD & COMM WRKRS # 3000,9500.0,0.0,9500.0,0.0,0.0,0.0,0.0,0.0,0.0,0.0,9500.0,40398.0,Direct,,,View report (https://accesshub.pdc.wa.gov/node/67040),Labor,Labor,All House Senate
70316,67066-61044,67066,FE,61043,Timothy Grisham,Employer,61044,WA ASSN OF COUNTY OFFICIALS,20-Mar,5/1/2020,17085.0,WA ASSN OF COUNTY OFFICIALS,3103.0,0.0,3103.0,0.0,0.0,0.0,0.0,0.0,0.0,0.0,3103.0,61044.0,Direct,,,View report (https://accesshub.pdc.wa.gov/node/67066),Local government,County Government Operations,"General Gov, Local Gov, Judiciary, Fiscal Committees"
70317,67067-61044,67067,FE,61043,Timothy Grisham,Employer,61044,WA ASSN OF COUNTY OFFICIALS,20-Feb,5/1/2020,17085.0,WA ASSN OF COUNTY OFFICIALS,3103.0,0.0,3103.0,0.0,0.0,0.0,0.0,0.0,0.0,0.0,3103.0,61044.0,Direct,,,View report (https://accesshub.pdc.wa.gov/node/67067),Local government,County Government Operations,"Law and Justice, Judiciary, Local Gov, Fical Committees"
70318,67058-61093,67058,FE,36967,David Streeter,Employer,61093,WA ST HOSPITAL ASSN,20-Apr,5/1/2020,17252.0,WA ST HOSPITAL ASSN,712.44,0.0,712.44,0.0,0.0,0.0,0.0,0.0,0.0,0.0,712.44,61093.0,Direct,,,View report (https://accesshub.pdc.wa.gov/node/67058),Health Care,COVID-19,Pharmacy Quality Assurance Commission
70319,67037-18883,67037,FE,17593,SEAN N GRAHAM,Employer,18883,WA ST MEDICAL ASSN,20-Apr,5/1/2020,17261.0,WA ST MEDICAL ASSN,4333.0,0.0,4333.0,0.0,0.0,0.0,0.0,0.0,0.0,0.0,4333.0,18883.0,Direct,,,View report (https://accesshub.pdc.wa.gov/node/67037),Health Care,Multiple,Multiple
70321,67061-50023,67061,FE,49453,"Samantha Slaughter, PsyD",Employer,50023,WA ST PSYCHOLOGICAL ASSN,20-Apr,5/1/2020,17269.0,WA ST PSYCHOLOGICAL ASSN,1550.0,0.0,1550.0,0.0,0.0,0.0,0.0,0.0,0.0,0.0,1550.0,50023.0,Direct,,,View report (https://accesshub.pdc.wa.gov/node/67061),Health Care,"COVID-19 response, SB5054",Examining Board of Psychology
70322,67037-59537,67037,FE,17593,SEAN N GRAHAM,Employer,59537,WA ST SOCIETY OF ANESTHESIOLOGISTS,20-Apr,5/1/2020,17283.0,WA ST SOCIETY OF ANESTHESIOLOGISTS,500.0,0.0,500.0,0.0,0.0,0.0,0.0,0.0,0.0,0.0,500.0,59537.0,Direct,,,View report (https://accesshub.pdc.wa.gov/node/67037),,,
70323,67034-19741,67034,FE,18019,MICHAEL TEMPLE,Employer,19741,WA ST ASSN FOR JUSTICE,20-Apr,5/1/2020,17289.0,WA ST ASSN FOR JUSTICE,15000.0,0.0,15000.0,0.0,0.0,0.0,0.0,0.0,0.0,0.0,15000.0,19741.0,Direct,,,View report (https://accesshub.pdc.wa.gov/node/67034),Law and justice,Civil Justice,"Legislature, Governor, OIC ,LNI, AG"
70324,67047-48779,67047,FE,18045,Amber Ulvenes,Employer,48779,Kaiser Foundation Health Plan of Washington,20-Apr,5/1/2020,30206.0,Kaiser Foundation Health Plan of Washington,11000.0,0.0,11000.0,0.0,0.0,0.0,0.0,0.0,0.0,0.0,11000.0,48779.0,Direct,,,View report (https://accesshub.pdc.wa.gov/node/67047),Health Care,"PEBB, health insurance market","HCA, Health Care Committees, appropriation committees"
70325,67047-49486,67047,FE,18045,Amber Ulvenes,Employer,49486,Open Arms Perinatal Services,20-Apr,5/1/2020,49474.0,Open Arms Perinatal Services,2000.0,0.0,2000.0,0.0,0.0,0.0,0.0,0.0,0.0,0.0,2000.0,49486.0,Direct,,,View report (https://accesshub.pdc.wa.gov/node/67047),Health Care,Health Care,"HCA, Health Care Committees,"
70326,67040-57289,67040,FE,38146,RNJ Strategies,Employer,57289,Civic Ventures,20-Apr,5/1/2020,57288.0,Civic Ventures,6000.0,0.0,6000.0,0.0,0.0,0.0,0.0,0.0,0.0,0.0,6000.0,57289.0,Direct,,,View report (https://accesshub.pdc.wa.gov/node/67040),Local government,Civic Action,S H Local Government. H Approps S W & Means
70327,67053-63337,67053,FE,17521,EMILY MURPHY STRATEGIES LLC*,Employer,63337,Ridwell,20-Apr,5/1/2020,63330.0,Ridwell,500.0,0.0,500.0,0.0,0.0,0.0,0.0,0.0,0.0,0.0,500.0,63337.0,Direct,,,View report (https://accesshub.pdc.wa.gov/node/67053),,,
