,id,report_number,origin,filer_id,filer_name,type,funding_source_id,funding_source_name,filing_period,receipt_date,employer_id,employer_name,compensation,sub_lobbyist_compensation,net_compensation,personal_expenses,entertainment,contributions,advertising,political_ads,other,total_expenses,net_total,employment_registration_id,employment_type,contractor_id,contractor_name,url,legislation_subject_matter,issue_bill_number,committee_lobbied
25000,37384-19639,37384,FE,17974,MELANIE J SMITH,Employer,19639,COMMITTEE FOR CHILDREN,17-Jun,11/2/2017,16347.0,COMMITTEE FOR CHILDREN,4000.0,0.0,4000.0,0.0,0.0,0.0,0.0,0.0,0.0,0.0,4000.0,19639.0,Direct,,,View report (https://accesshub.pdc.wa.gov/node/37384),Education,social emotional learning,education
25001,37385-19639,37385,FE,17974,MELANIE J SMITH,Employer,19639,COMMITTEE FOR CHILDREN,17-Jul,11/2/2017,16347.0,COMMITTEE FOR CHILDREN,1000.0,0.0,1000.0,0.0,0.0,0.0,0.0,0.0,0.0,0.0,1000.0,19639.0,Direct,,,View report (https://accesshub.pdc.wa.gov/node/37385),Education,social emotional learning,education
25002,37386-19639,37386,FE,17974,MELANIE J SMITH,Employer,19639,COMMITTEE FOR CHILDREN,17-Aug,11/2/2017,16347.0,COMMITTEE FOR CHILDREN,1000.0,0.0,1000.0,0.0,0.0,0.0,0.0,0.0,0.0,0.0,1000.0,19639.0,Direct,,,View report (https://accesshub.pdc.wa.gov/node/37386),Education,social emotional learning,education
25003,37387-19639,37387,FE,17974,MELANIE J SMITH,Employer,19639,COMMITTEE FOR CHILDREN,17-Sep,11/2/2017,16347.0,COMMITTEE FOR CHILDREN,1000.0,0.0,1000.0,0.0,0.0,0.0,0.0,0.0,0.0,0.0,1000.0,19639.0,Direct,,,View report (https://accesshub.pdc.wa.gov/node/37387),Education,social emotional learning,education
25004,37388-19639,37388,FE,17974,MELANIE J SMITH,Employer,19639,COMMITTEE FOR CHILDREN,17-Oct,11/2/2017,16347.0,COMMITTEE FOR CHILDREN,1000.0,0.0,1000.0,0.0,0.0,0.0,0.0,0.0,0.0,0.0,1000.0,19639.0,Direct,,,View report (https://accesshub.pdc.wa.gov/node/37388),Education,social emotional learning,education
25005,37381-18235,37381,FE,17379,ERICA D HALLOCK,Employer,18235,COUNCIL FOR A STRONG AMERICA,17-Oct,11/2/2017,16372.0,COUNCIL FOR A STRONG AMERICA,250.0,0.0,250.0,0.0,0.0,0.0,0.0,0.0,0.0,0.0,250.0,18235.0,Direct,,,View report (https://accesshub.pdc.wa.gov/node/37381),Education,ECEAP and Home Visiting,"House Early Learning and Human Services; Dept of Children, Youth and Families"
25006,37397-18566,37397,FE,17496,DOTY & ASSOC INC*,Employer,18566,ENTERPRISE HOLDINGS LLC,17-Oct,11/2/2017,16396.0,ENTERPRISE HOLDINGS LLC,1650.0,0.0,1650.0,0.0,0.0,0.0,0.0,0.0,0.0,0.0,1650.0,18566.0,Direct,,,View report (https://accesshub.pdc.wa.gov/node/37397),State government,,
25007,37381-18236,37381,FE,17379,ERICA D HALLOCK,Employer,18236,EMPIRE HEALTH FOUNDATION,17-Oct,11/2/2017,16413.0,EMPIRE HEALTH FOUNDATION,300.0,0.0,300.0,0.0,0.0,0.0,0.0,0.0,0.0,0.0,300.0,18236.0,Direct,,,View report (https://accesshub.pdc.wa.gov/node/37381),Human services,Performance Based Contracting,"House Early Learning and Human Services; Senate Ways and Means Committee; Dept of Children, Youth and Families"
25008,37397-18567,37397,FE,17496,DOTY & ASSOC INC*,Employer,18567,FIRE SPRINKLER ADVISORY BD OF PUGET SOUND,17-Oct,11/2/2017,16444.0,FIRE SPRINKLER ADVISORY BD OF PUGET SOUND,2100.0,0.0,2100.0,35.0,0.0,0.0,0.0,0.0,0.0,35.0,2135.0,18567.0,Direct,,,View report (https://accesshub.pdc.wa.gov/node/37397),State government,,
25009,37394-26108,37394,FE,26001,BMcConsulting,Employer,26108,FIRE SPRINKLER ADVISORY BD OF PUGET SOUND (DOTY & ASSOC INC*),17-Oct,11/2/2017,16444.0,FIRE SPRINKLER ADVISORY BD OF PUGET SOUND,1050.0,0.0,1050.0,0.0,0.0,0.0,0.0,0.0,0.0,0.0,1050.0,26108.0,Subcontract,17496.0,DOTY & ASSOC INC*,View report (https://accesshub.pdc.wa.gov/node/37394),,,
25011,37411-18996,37411,FE,17659,HOLLY CHISA,Employer,18996,INSTITUTE OF SCRAP RECYCLING PACIFIC NW CHAPTER,17-Sep,11/2/2017,16535.0,INSTITUTE OF SCRAP RECYCLING PACIFIC NW CHAPTER,1666.67,0.0,1666.67,0.0,0.0,0.0,0.0,0.0,0.0,0.0,1666.67,18996.0,Direct,,,View report (https://accesshub.pdc.wa.gov/node/37411),Environmental Affairs - natural resources - parks,Environment,"Legislature, Department of Ecology"
25012,37412-18996,37412,FE,17659,HOLLY CHISA,Employer,18996,INSTITUTE OF SCRAP RECYCLING PACIFIC NW CHAPTER,17-Oct,11/2/2017,16535.0,INSTITUTE OF SCRAP RECYCLING PACIFIC NW CHAPTER,1666.67,0.0,1666.67,0.0,0.0,0.0,0.0,0.0,0.0,0.0,1666.67,18996.0,Direct,,,View report (https://accesshub.pdc.wa.gov/node/37412),Environmental Affairs - natural resources - parks,Environment,"Legislature, Department of Ecology"
25014,37397-18568,37397,FE,17496,DOTY & ASSOC INC*,Employer,18568,KITSAP TRANSIT,17-Oct,11/2/2017,16581.0,KITSAP TRANSIT,5100.0,0.0,5100.0,114.39,0.0,0.0,0.0,0.0,0.0,114.39,5214.39,18568.0,Direct,,,View report (https://accesshub.pdc.wa.gov/node/37397),State government,,
25015,37397-18569,37397,FE,17496,DOTY & ASSOC INC*,Employer,18569,MUCKLESHOOT INDIAN TRIBE,17-Oct,11/2/2017,16650.0,MUCKLESHOOT INDIAN TRIBE,7500.0,0.0,7500.0,0.0,0.0,0.0,0.0,0.0,0.0,0.0,7500.0,18569.0,Direct,,,View report (https://accesshub.pdc.wa.gov/node/37397),State government,,
25016,37384-19641,37384,FE,17974,MELANIE J SMITH,Employer,19641,PRO-CHOICE WASHINGTON,17-Jun,11/2/2017,16656.0,PRO-CHOICE WASHINGTON,1500.0,0.0,1500.0,0.0,0.0,0.0,0.0,0.0,0.0,0.0,1500.0,19641.0,Direct,,,View report (https://accesshub.pdc.wa.gov/node/37384),Health Care,reproductive rights,healthcare
25017,37385-19641,37385,FE,17974,MELANIE J SMITH,Employer,19641,PRO-CHOICE WASHINGTON,17-Jul,11/2/2017,16656.0,PRO-CHOICE WASHINGTON,1500.0,0.0,1500.0,0.0,0.0,0.0,0.0,0.0,0.0,0.0,1500.0,19641.0,Direct,,,View report (https://accesshub.pdc.wa.gov/node/37385),Health Care,reproductive rights,healthcare
25018,37386-19641,37386,FE,17974,MELANIE J SMITH,Employer,19641,PRO-CHOICE WASHINGTON,17-Aug,11/2/2017,16656.0,PRO-CHOICE WASHINGTON,1500.0,0.0,1500.0,0.0,0.0,0.0,0.0,0.0,0.0,0.0,1500.0,19641.0,Direct,,,View report (https://accesshub.pdc.wa.gov/node/37386),Health Care,reproductive rights,healthcare
25019,37387-19641,37387,FE,17974,MELANIE J SMITH,Employer,19641,PRO-CHOICE WASHINGTON,17-Sep,11/2/2017,16656.0,PRO-CHOICE WASHINGTON,1500.0,0.0,1500.0,0.0,0.0,0.0,0.0,0.0,0.0,0.0,1500.0,19641.0,Direct,,,View report (https://accesshub.pdc.wa.gov/node/37387),Health Care,reproductive rights,healthcare
25020,37388-19641,37388,FE,17974,MELANIE J SMITH,Employer,19641,PRO-CHOICE WASHINGTON,17-Oct,11/2/2017,16656.0,PRO-CHOICE WASHINGTON,650.0,0.0,650.0,0.0,0.0,0.0,0.0,0.0,0.0,0.0,650.0,19641.0,Direct,,,View report (https://accesshub.pdc.wa.gov/node/37388),Health Care,reproductive rights,healthcare
25021,37411-18998,37411,FE,17659,HOLLY CHISA,Employer,18998,NW GROCERY ASSN,17-Sep,11/2/2017,16707.0,NW GROCERY ASSN,4500.0,0.0,4500.0,0.0,0.0,0.0,0.0,0.0,0.0,0.0,4500.0,18998.0,Direct,,,View report (https://accesshub.pdc.wa.gov/node/37411),Business and consumer affairs,All Issues,Legislature
25022,37412-18998,37412,FE,17659,HOLLY CHISA,Employer,18998,NW GROCERY ASSN,17-Oct,11/2/2017,16707.0,NW GROCERY ASSN,4500.0,0.0,4500.0,0.0,0.0,0.0,0.0,0.0,0.0,0.0,4500.0,18998.0,Direct,,,View report (https://accesshub.pdc.wa.gov/node/37412),Business and consumer affairs,All Issues,Legislature
25023,37397-29383,37397,FE,17496,DOTY & ASSOC INC*,Employer,29383,OAKPOINTE LAND COVINGTON LLC,17-Oct,11/2/2017,16730.0,OAKPOINTE LAND COVINGTON LLC,2500.0,0.0,2500.0,0.0,0.0,0.0,0.0,0.0,0.0,0.0,2500.0,29383.0,Direct,,,View report (https://accesshub.pdc.wa.gov/node/37397),State government,,
25024,37397-18571,37397,FE,17496,DOTY & ASSOC INC*,Employer,18571,PARATRANSIT SERVICES,17-Oct,11/2/2017,16762.0,PARATRANSIT SERVICES,1500.0,0.0,1500.0,35.0,0.0,0.0,0.0,0.0,0.0,35.0,1535.0,18571.0,Direct,,,View report (https://accesshub.pdc.wa.gov/node/37397),State government,,
25025,37394-28540,37394,FE,26001,BMcConsulting,Employer,28540,PARATRANSIT SERVICES (DOTY & ASSOC INC*),17-Oct,11/2/2017,16762.0,PARATRANSIT SERVICES,750.0,0.0,750.0,0.0,0.0,0.0,0.0,0.0,0.0,0.0,750.0,28540.0,Subcontract,17496.0,DOTY & ASSOC INC*,View report (https://accesshub.pdc.wa.gov/node/37394),,,
25026,37397-18572,37397,FE,17496,DOTY & ASSOC INC*,Employer,18572,PORT OF BREMERTON,17-Oct,11/2/2017,16793.0,PORT OF BREMERTON,2000.0,0.0,2000.0,0.0,0.0,0.0,0.0,0.0,0.0,0.0,2000.0,18572.0,Direct,,,View report (https://accesshub.pdc.wa.gov/node/37397),State government,,
25027,37384-19643,37384,FE,17974,MELANIE J SMITH,Employer,19643,Safe Babies Safe Moms,17-Jun,11/2/2017,16868.0,Safe Babies Safe Moms,1200.0,0.0,1200.0,0.0,0.0,0.0,0.0,0.0,0.0,0.0,1200.0,19643.0,Direct,,,View report (https://accesshub.pdc.wa.gov/node/37384),Health Care,chemical dependency,healthcare
25028,37410-19728,37410,FE,18010,Brewer Public Affairs,Employer,19728,SCHINDLER ELEVATOR CORP,17-Oct,11/2/2017,16877.0,SCHINDLER ELEVATOR CORP,2500.0,0.0,2500.0,34.7,0.0,0.0,0.0,0.0,0.0,34.7,2534.7,19728.0,Direct,,,View report (https://accesshub.pdc.wa.gov/node/37410),Business and consumer affairs,Elevators,"LNI, Labor"
25029,37384-25635,37384,FE,17974,MELANIE J SMITH,Employer,25635,MULTI-SERVICE CENTER LONG TERM CARE OMBUDSMAN PROGRAM,17-Jun,11/2/2017,16932.0,MULTI-SERVICE CENTER LONG TERM CARE OMBUDSMAN PROGRAM,600.0,0.0,600.0,0.0,0.0,0.0,0.0,0.0,0.0,0.0,600.0,25635.0,Direct,,,View report (https://accesshub.pdc.wa.gov/node/37384),,,
25030,37385-25635,37385,FE,17974,MELANIE J SMITH,Employer,25635,MULTI-SERVICE CENTER LONG TERM CARE OMBUDSMAN PROGRAM,17-Jul,11/2/2017,16932.0,MULTI-SERVICE CENTER LONG TERM CARE OMBUDSMAN PROGRAM,720.0,0.0,720.0,0.0,0.0,0.0,0.0,0.0,0.0,0.0,720.0,25635.0,Direct,,,View report (https://accesshub.pdc.wa.gov/node/37385),,,
25031,37386-25635,37386,FE,17974,MELANIE J SMITH,Employer,25635,MULTI-SERVICE CENTER LONG TERM CARE OMBUDSMAN PROGRAM,17-Aug,11/2/2017,16932.0,MULTI-SERVICE CENTER LONG TERM CARE OMBUDSMAN PROGRAM,720.0,0.0,720.0,0.0,0.0,0.0,0.0,0.0,0.0,0.0,720.0,25635.0,Direct,,,View report (https://accesshub.pdc.wa.gov/node/37386),,,
25032,37387-25635,37387,FE,17974,MELANIE J SMITH,Employer,25635,MULTI-SERVICE CENTER LONG TERM CARE OMBUDSMAN PROGRAM,17-Sep,11/2/2017,16932.0,MULTI-SERVICE CENTER LONG TERM CARE OMBUDSMAN PROGRAM,720.0,0.0,720.0,0.0,0.0,0.0,0.0,0.0,0.0,0.0,720.0,25635.0,Direct,,,View report (https://accesshub.pdc.wa.gov/node/37387),,,
25033,37388-25635,37388,FE,17974,MELANIE J SMITH,Employer,25635,MULTI-SERVICE CENTER LONG TERM CARE OMBUDSMAN PROGRAM,17-Oct,11/2/2017,16932.0,MULTI-SERVICE CENTER LONG TERM CARE OMBUDSMAN PROGRAM,720.0,0.0,720.0,0.0,0.0,0.0,0.0,0.0,0.0,0.0,720.0,25635.0,Direct,,,View report (https://accesshub.pdc.wa.gov/node/37388),,,
25034,37411-18999,37411,FE,17659,HOLLY CHISA,Employer,18999,TWO JINN INC,17-Sep,11/2/2017,17000.0,TWO JINN INC,4166.67,0.0,4166.67,0.0,0.0,0.0,0.0,0.0,0.0,0.0,4166.67,18999.0,Direct,,,View report (https://accesshub.pdc.wa.gov/node/37411),Law and justice,Bail Issues,"Legislature, Courts"
25035,37412-18999,37412,FE,17659,HOLLY CHISA,Employer,18999,TWO JINN INC,17-Oct,11/2/2017,17000.0,TWO JINN INC,4166.67,0.0,4166.67,0.0,0.0,0.0,0.0,0.0,0.0,0.0,4166.67,18999.0,Direct,,,View report (https://accesshub.pdc.wa.gov/node/37412),Law and justice,Bail Issues,"Legislature, Courts"
25036,37411-19000,37411,FE,17659,HOLLY CHISA,Employer,19000,UNITED TRUSTEES ASSN,17-Sep,11/2/2017,17015.0,UNITED TRUSTEES ASSN,1666.67,0.0,1666.67,0.0,0.0,0.0,0.0,0.0,0.0,0.0,1666.67,19000.0,Direct,,,View report (https://accesshub.pdc.wa.gov/node/37411),Business and consumer affairs,DOTA,Dept of Commerce
25037,37412-19000,37412,FE,17659,HOLLY CHISA,Employer,19000,UNITED TRUSTEES ASSN,17-Oct,11/2/2017,17015.0,UNITED TRUSTEES ASSN,1666.67,0.0,1666.67,0.0,0.0,0.0,0.0,0.0,0.0,0.0,1666.67,19000.0,Direct,,,View report (https://accesshub.pdc.wa.gov/node/37412),Business and consumer affairs,DOTA,Dept of Commerce
25038,37397-18574,37397,FE,17496,DOTY & ASSOC INC*,Employer,18574,WA REFLEXOLOGY ASSN,17-Oct,11/2/2017,17177.0,WA REFLEXOLOGY ASSN,250.0,0.0,250.0,0.0,0.0,0.0,0.0,0.0,0.0,0.0,250.0,18574.0,Direct,,,View report (https://accesshub.pdc.wa.gov/node/37397),State government,,
25039,37410-19729,37410,FE,18010,Brewer Public Affairs,Employer,19729,WSIA,17-Oct,11/2/2017,17194.0,WSIA,3000.0,0.0,3000.0,0.0,0.0,0.0,0.0,0.0,0.0,0.0,3000.0,19729.0,Direct,,,View report (https://accesshub.pdc.wa.gov/node/37410),Business and consumer affairs,Insurance,"LNI, Labor"
25040,37397-18575,37397,FE,17496,DOTY & ASSOC INC*,Employer,18575,WA ST BAIL AGENTS ASSN,17-Oct,11/2/2017,17221.0,WA ST BAIL AGENTS ASSN,2000.0,0.0,2000.0,57.0,0.0,0.0,0.0,0.0,0.0,57.0,2057.0,18575.0,Direct,,,View report (https://accesshub.pdc.wa.gov/node/37397),State government,,
25041,37394-29314,37394,FE,26001,BMcConsulting,Employer,29314,WA ST BAIL AGENTS ASSN (DOTY & ASSOC INC*),17-Oct,11/2/2017,17221.0,WA ST BAIL AGENTS ASSN,1000.0,0.0,1000.0,0.0,0.0,0.0,0.0,0.0,0.0,0.0,1000.0,29314.0,Subcontract,17496.0,DOTY & ASSOC INC*,View report (https://accesshub.pdc.wa.gov/node/37394),,,
25042,37397-18577,37397,FE,17496,DOTY & ASSOC INC*,Employer,18577,WA ST ASSN OF FIRE CHIEFS,17-Oct,11/2/2017,17247.0,WA ST ASSN OF FIRE CHIEFS,3358.6,0.0,3358.6,350.67,0.0,0.0,0.0,0.0,0.0,350.67,3709.27,18577.0,Direct,,,View report (https://accesshub.pdc.wa.gov/node/37397),State government,,
25043,37394-28541,37394,FE,26001,BMcConsulting,Employer,28541,WA ST ASSN OF FIRE CHIEFS (DOTY & ASSOC INC*),17-Oct,11/2/2017,17247.0,WA ST ASSN OF FIRE CHIEFS,1000.0,0.0,1000.0,0.0,0.0,0.0,0.0,0.0,0.0,0.0,1000.0,28541.0,Subcontract,17496.0,DOTY & ASSOC INC*,View report (https://accesshub.pdc.wa.gov/node/37394),,,
25044,37384-24482,37384,FE,17974,MELANIE J SMITH,Employer,24482,WA ST SOCIETY FOR CLINICAL SOCIAL WORK,17-Jun,11/2/2017,17284.0,WA ST SOCIETY FOR CLINICAL SOCIAL WORK,650.0,0.0,650.0,0.0,0.0,0.0,0.0,0.0,0.0,0.0,650.0,24482.0,Direct,,,View report (https://accesshub.pdc.wa.gov/node/37384),,,
25045,37385-24482,37385,FE,17974,MELANIE J SMITH,Employer,24482,WA ST SOCIETY FOR CLINICAL SOCIAL WORK,17-Jul,11/2/2017,17284.0,WA ST SOCIETY FOR CLINICAL SOCIAL WORK,700.0,0.0,700.0,0.0,0.0,0.0,0.0,0.0,0.0,0.0,700.0,24482.0,Direct,,,View report (https://accesshub.pdc.wa.gov/node/37385),,,
25046,37386-24482,37386,FE,17974,MELANIE J SMITH,Employer,24482,WA ST SOCIETY FOR CLINICAL SOCIAL WORK,17-Aug,11/2/2017,17284.0,WA ST SOCIETY FOR CLINICAL SOCIAL WORK,700.0,0.0,700.0,0.0,0.0,0.0,0.0,0.0,0.0,0.0,700.0,24482.0,Direct,,,View report (https://accesshub.pdc.wa.gov/node/37386),,,
25047,37387-24482,37387,FE,17974,MELANIE J SMITH,Employer,24482,WA ST SOCIETY FOR CLINICAL SOCIAL WORK,17-Sep,11/2/2017,17284.0,WA ST SOCIETY FOR CLINICAL SOCIAL WORK,700.0,0.0,700.0,0.0,0.0,0.0,0.0,0.0,0.0,0.0,700.0,24482.0,Direct,,,View report (https://accesshub.pdc.wa.gov/node/37387),,,
25048,37388-24482,37388,FE,17974,MELANIE J SMITH,Employer,24482,WA ST SOCIETY FOR CLINICAL SOCIAL WORK,17-Oct,11/2/2017,17284.0,WA ST SOCIETY FOR CLINICAL SOCIAL WORK,700.0,0.0,700.0,0.0,0.0,0.0,0.0,0.0,0.0,0.0,700.0,24482.0,Direct,,,View report (https://accesshub.pdc.wa.gov/node/37388),,,
25049,37384-19644,37384,FE,17974,MELANIE J SMITH,Employer,19644,WELLSPRING FAMILY SERVICES,17-Jun,11/2/2017,17297.0,WELLSPRING FAMILY SERVICES,1000.0,0.0,1000.0,0.0,0.0,0.0,0.0,0.0,0.0,0.0,1000.0,19644.0,Direct,,,View report (https://accesshub.pdc.wa.gov/node/37384),Human services,early learning and human services,"human services, early learning"
25050,37385-19644,37385,FE,17974,MELANIE J SMITH,Employer,19644,WELLSPRING FAMILY SERVICES,17-Jul,11/2/2017,17297.0,WELLSPRING FAMILY SERVICES,1150.0,0.0,1150.0,0.0,0.0,0.0,0.0,0.0,0.0,0.0,1150.0,19644.0,Direct,,,View report (https://accesshub.pdc.wa.gov/node/37385),Human services,early learning and human services,"human services, early learning"
25051,37386-19644,37386,FE,17974,MELANIE J SMITH,Employer,19644,WELLSPRING FAMILY SERVICES,17-Aug,11/2/2017,17297.0,WELLSPRING FAMILY SERVICES,1150.0,0.0,1150.0,0.0,0.0,0.0,0.0,0.0,0.0,0.0,1150.0,19644.0,Direct,,,View report (https://accesshub.pdc.wa.gov/node/37386),Human services,early learning and human services,"human services, early learning"
25052,37387-19644,37387,FE,17974,MELANIE J SMITH,Employer,19644,WELLSPRING FAMILY SERVICES,17-Sep,11/2/2017,17297.0,WELLSPRING FAMILY SERVICES,1150.0,0.0,1150.0,0.0,0.0,0.0,0.0,0.0,0.0,0.0,1150.0,19644.0,Direct,,,View report (https://accesshub.pdc.wa.gov/node/37387),Human services,early learning and human services,"human services, early learning"
25053,37388-19644,37388,FE,17974,MELANIE J SMITH,Employer,19644,WELLSPRING FAMILY SERVICES,17-Oct,11/2/2017,17297.0,WELLSPRING FAMILY SERVICES,1150.0,0.0,1150.0,0.0,0.0,0.0,0.0,0.0,0.0,0.0,1150.0,19644.0,Direct,,,View report (https://accesshub.pdc.wa.gov/node/37388),Human services,early learning and human services,"human services, early learning"
25054,37394-26037,37394,FE,26001,BMcConsulting,Employer,26037,City of Bremerton,17-Oct,11/2/2017,26023.0,City of Bremerton,4000.0,0.0,4000.0,0.0,0.0,0.0,0.0,0.0,0.0,0.0,4000.0,26037.0,Direct,,,View report (https://accesshub.pdc.wa.gov/node/37394),State government,,
25055,37397-29165,37397,FE,17496,DOTY & ASSOC INC*,Employer,29165,ACTION DD (GOVERNMENT RELATIONS SERVICES*),17-Oct,11/2/2017,27525.0,ACTION DD,1500.0,0.0,1500.0,0.0,0.0,0.0,0.0,0.0,0.0,0.0,1500.0,29165.0,Subcontract,17589.0,GOVERNMENT RELATIONS SERVICES*,View report (https://accesshub.pdc.wa.gov/node/37397),,,
25056,37384-29031,37384,FE,17974,MELANIE J SMITH,Employer,29031,The Youth Justice Fund,17-Jun,11/2/2017,29012.0,The Youth Justice Fund,500.0,0.0,500.0,0.0,0.0,0.0,0.0,0.0,0.0,0.0,500.0,29031.0,Direct,,,View report (https://accesshub.pdc.wa.gov/node/37384),,,
25057,37385-29031,37385,FE,17974,MELANIE J SMITH,Employer,29031,The Youth Justice Fund,17-Jul,11/2/2017,29012.0,The Youth Justice Fund,500.0,0.0,500.0,0.0,0.0,0.0,0.0,0.0,0.0,0.0,500.0,29031.0,Direct,,,View report (https://accesshub.pdc.wa.gov/node/37385),,,
25058,37386-29031,37386,FE,17974,MELANIE J SMITH,Employer,29031,The Youth Justice Fund,17-Aug,11/2/2017,29012.0,The Youth Justice Fund,500.0,0.0,500.0,0.0,0.0,0.0,0.0,0.0,0.0,0.0,500.0,29031.0,Direct,,,View report (https://accesshub.pdc.wa.gov/node/37386),,,
25059,37387-29031,37387,FE,17974,MELANIE J SMITH,Employer,29031,The Youth Justice Fund,17-Sep,11/2/2017,29012.0,The Youth Justice Fund,500.0,0.0,500.0,0.0,0.0,0.0,0.0,0.0,0.0,0.0,500.0,29031.0,Direct,,,View report (https://accesshub.pdc.wa.gov/node/37387),,,
25060,37388-29031,37388,FE,17974,MELANIE J SMITH,Employer,29031,The Youth Justice Fund,17-Oct,11/2/2017,29012.0,The Youth Justice Fund,500.0,0.0,500.0,0.0,0.0,0.0,0.0,0.0,0.0,0.0,500.0,29031.0,Direct,,,View report (https://accesshub.pdc.wa.gov/node/37388),,,
25063,37397-30776,37397,FE,17496,DOTY & ASSOC INC*,Employer,30776,CCD Black Diamond Partners LLC,17-Oct,11/2/2017,30757.0,CCD Black Diamond Partners LLC,2500.0,0.0,2500.0,0.0,0.0,0.0,0.0,0.0,0.0,0.0,2500.0,30776.0,Direct,,,View report (https://accesshub.pdc.wa.gov/node/37397),State government,,
25072,37420-26837,37420,FE,17638,MORGAN HICKEL,Employer,26837,WA Hospitality Assn,17-Oct,11/3/2017,26557.0,WA Hospitality Assn,2800.0,0.0,2800.0,168.4,0.0,0.0,0.0,0.0,0.0,168.4,2968.4,26837.0,Direct,,,View report (https://accesshub.pdc.wa.gov/node/37420),State government,Tourism 1123/5251,All - Legislature
25073,37430-18345,37430,FE,17430,CAPITOL CONNECTION*,Employer,18345,ALLIANCE FOR AUTOMOTIVE INNOVATION,17-Oct,11/4/2017,16081.0,ALLIANCE FOR AUTOMOTIVE INNOVATION,5083.33,0.0,5083.33,0.0,0.0,19500.0,0.0,0.0,0.0,19500.0,24583.33,18345.0,Direct,,,View report (https://accesshub.pdc.wa.gov/node/37430),Technology,Autonomous Vehicles,Representative Zack Hudgins
25074,37430-18346,37430,FE,17430,CAPITOL CONNECTION*,Employer,18346,EQUAL JUSTICE COALITION,17-Oct,11/4/2017,16418.0,EQUAL JUSTICE COALITION,5950.0,0.0,5950.0,0.0,0.0,0.0,0.0,0.0,0.0,0.0,5950.0,18346.0,Direct,,,View report (https://accesshub.pdc.wa.gov/node/37430),Law and justice,Low income civil defense,Judiciary Committee
25075,37432-18436,37432,FE,17448,"DONNA CHRISTENSEN, PACIFIC GOVERNMENT AFFAIRS",Employer,18436,NAVOS,17-Oct,11/4/2017,16503.0,NAVOS,2500.0,0.0,2500.0,0.0,0.0,0.0,0.0,0.0,0.0,0.0,2500.0,18436.0,Direct,,,View report (https://accesshub.pdc.wa.gov/node/37432),Fiscal,Mental health,Budget and health care
25076,37430-18347,37430,FE,17430,CAPITOL CONNECTION*,Employer,18347,ALCOA US PRIMARY METALS,17-Oct,11/4/2017,16536.0,ALCOA US PRIMARY METALS,8317.5,0.0,8317.5,0.0,0.0,0.0,0.0,0.0,0.0,0.0,8317.5,18347.0,Direct,,,View report (https://accesshub.pdc.wa.gov/node/37430),Environmental Affairs - natural resources - parks,Carbon tax,Department of Ecology
25077,37432-18438,37432,FE,17448,"DONNA CHRISTENSEN, PACIFIC GOVERNMENT AFFAIRS",Employer,18438,WA COALITION FOR GIFTED EDUCATION,17-Oct,11/4/2017,17079.0,WA COALITION FOR GIFTED EDUCATION,850.0,0.0,850.0,0.0,0.0,0.0,0.0,0.0,0.0,0.0,850.0,18438.0,Direct,,,View report (https://accesshub.pdc.wa.gov/node/37432),Fiscal,K-12 education,"Education, OSPI, budget"
25078,37430-18349,37430,FE,17430,CAPITOL CONNECTION*,Employer,18349,WA FIRE COMMISSIONERS ASSN,17-Oct,11/4/2017,17113.0,WA FIRE COMMISSIONERS ASSN,6200.0,0.0,6200.0,0.0,0.0,0.0,0.0,0.0,0.0,0.0,6200.0,18349.0,Direct,,,View report (https://accesshub.pdc.wa.gov/node/37430),Environmental Affairs - natural resources - parks,Wild fire,Natural Resources Committee
25079,37432-18439,37432,FE,17448,"DONNA CHRISTENSEN, PACIFIC GOVERNMENT AFFAIRS",Employer,18439,WA ST CATHOLIC CONFERENCE,17-Oct,11/4/2017,17228.0,WA ST CATHOLIC CONFERENCE,3800.0,0.0,3800.0,0.0,0.0,0.0,0.0,0.0,0.0,0.0,3800.0,18439.0,Direct,,,View report (https://accesshub.pdc.wa.gov/node/37432),Fiscal,budget,"Budget committees, human services"
25080,37430-18350,37430,FE,17430,CAPITOL CONNECTION*,Employer,18350,WRIGHT RUNSTAD ASSOC LIMITED PARTNERSHIP,17-Oct,11/4/2017,17317.0,WRIGHT RUNSTAD ASSOC LIMITED PARTNERSHIP,3000.0,0.0,3000.0,0.0,0.0,0.0,0.0,0.0,0.0,0.0,3000.0,18350.0,Direct,,,View report (https://accesshub.pdc.wa.gov/node/37430),Transportation,Freeway offramps,Capital Budget Committee
25081,37432-18440,37432,FE,17448,"DONNA CHRISTENSEN, PACIFIC GOVERNMENT AFFAIRS",Employer,18440,Washington State Alliance of YMCAs,17-Oct,11/4/2017,17323.0,Washington State Alliance of YMCAs,3200.0,0.0,3200.0,0.0,0.0,0.0,0.0,0.0,0.0,0.0,3200.0,18440.0,Direct,,,View report (https://accesshub.pdc.wa.gov/node/37432),Fiscal,budget,"DEL, Appropriations, Ways & Means"
25082,37432-28248,37432,FE,17448,"DONNA CHRISTENSEN, PACIFIC GOVERNMENT AFFAIRS",Employer,28248,Washington Continuing Care Residents Association,17-Oct,11/4/2017,27296.0,Washington Continuing Care Residents Association,1000.0,0.0,1000.0,0.0,0.0,0.0,0.0,0.0,0.0,0.0,1000.0,28248.0,Direct,,,View report (https://accesshub.pdc.wa.gov/node/37432),Health Care,Continuing care residences,Health Care
25101,37471-18316,37471,FE,17411,LARRY BROWN,Employer,18316,Intl Assn of Machinists & Aerospace Workers Dist Lodge 751,17-Oct,11/6/2017,16072.0,Intl Assn of Machinists & Aerospace Workers Dist Lodge 751,305.6,0.0,305.6,0.0,0.0,0.0,0.0,0.0,0.0,0.0,305.6,18316.0,Direct,,,View report (https://accesshub.pdc.wa.gov/node/37471),Transportation,Aerospace Tax Incentives,Citizens Commissions for Tax Incentive Effectiveness
25102,36900-18885,36900,FE,17595,GREEN LIGHT STRATEGIES INC*,Employer,18885,CITY OF MONROE,17-Aug,11/6/2017,16299.0,CITY OF MONROE,3800.0,0.0,3800.0,0.0,0.0,0.0,0.0,0.0,0.0,0.0,3800.0,18885.0,Direct,,,View report (https://accesshub.pdc.wa.gov/node/36900),Transportation,"Regional transportation, hwy 522",Legislature.
25103,36905-18885,36905,FE,17595,GREEN LIGHT STRATEGIES INC*,Employer,18885,CITY OF MONROE,17-Sep,11/6/2017,16299.0,CITY OF MONROE,3800.0,0.0,3800.0,0.0,0.0,0.0,0.0,0.0,0.0,0.0,3800.0,18885.0,Direct,,,View report (https://accesshub.pdc.wa.gov/node/36905),Transportation,"Regional transportation, hwy 522",Legislature.
25104,37437-18529,37437,FE,17479,ROMAN M DANIELS-BROWN,Employer,18529,DaVita Inc.,17-Oct,11/6/2017,16380.0,DaVita Inc.,4000.0,0.0,4000.0,79.35,0.0,4200.0,0.0,0.0,0.0,4279.35,8279.35,18529.0,Direct,,,View report (https://accesshub.pdc.wa.gov/node/37437),Health Care,Health Care - Dialysis,Health Care Committee/OIC
25105,37437-18530,37437,FE,17479,ROMAN M DANIELS-BROWN,Employer,18530,EDUCATION MANAGEMENT CORP,17-Oct,11/6/2017,16404.0,EDUCATION MANAGEMENT CORP,5000.0,0.0,5000.0,79.35,0.0,0.0,0.0,0.0,0.0,79.35,5079.35,18530.0,Direct,,,View report (https://accesshub.pdc.wa.gov/node/37437),Higher education,higher education,higher education
25106,37462-18352,37462,FE,17431,CAPITOL SOLUTIONS*,Employer,18352,EVERGREEN SCHOOL DIST #114,17-Oct,11/6/2017,16423.0,EVERGREEN SCHOOL DIST #114,800.0,0.0,800.0,0.0,0.0,0.0,0.0,0.0,0.0,0.0,800.0,18352.0,Direct,,,View report (https://accesshub.pdc.wa.gov/node/37462),Education,Education Fiscal,MULTIPLE
25107,37437-18531,37437,FE,17479,ROMAN M DANIELS-BROWN,Employer,18531,"Novartis Services, Inc.",17-Oct,11/6/2017,16725.0,"Novartis Services, Inc.",4583.33,0.0,4583.33,228.66,0.0,7000.0,0.0,0.0,0.0,7228.66,11811.99,18531.0,Direct,,,View report (https://accesshub.pdc.wa.gov/node/37437),Health Care,Pharmaceuticals,Health Care Committee
25108,37437-18532,37437,FE,17479,ROMAN M DANIELS-BROWN,Employer,18532,PACIFIC DENTAL SERVICES,17-Oct,11/6/2017,16749.0,PACIFIC DENTAL SERVICES,6000.0,0.0,6000.0,79.35,0.0,500.0,0.0,0.0,0.0,579.35,6579.35,18532.0,Direct,,,View report (https://accesshub.pdc.wa.gov/node/37437),Health Care,Dental Care,Health Care Committees
25109,37455-18702,37455,FE,17537,KRISTEN FEDERICI,Employer,18702,PROVIDENCE HEALTH & SERVICES- WA,17-Aug,11/6/2017,16821.0,PROVIDENCE HEALTH & SERVICES- WA,560.0,0.0,560.0,0.0,0.0,0.0,0.0,0.0,0.0,0.0,560.0,18702.0,Direct,,,View report (https://accesshub.pdc.wa.gov/node/37455),Health Care,health care and budget,"Health Care and Wellness, Health Care, Appropriations, Ways and Means"
25110,37462-18354,37462,FE,17431,CAPITOL SOLUTIONS*,Employer,18354,PUGET SOUND CLEAN AIR AGENCY,17-Oct,11/6/2017,16826.0,PUGET SOUND CLEAN AIR AGENCY,300.0,0.0,300.0,0.0,0.0,0.0,0.0,0.0,0.0,0.0,300.0,18354.0,Direct,,,View report (https://accesshub.pdc.wa.gov/node/37462),Environmental Affairs - natural resources - parks,CLEAN AIR ENVIRONMENTAL,MULTIPLE
25111,37437-18538,37437,FE,17479,ROMAN M DANIELS-BROWN,Employer,18538,Washington Orthotic And Prosthetic Association,17-Oct,11/6/2017,17159.0,Washington Orthotic And Prosthetic Association,633.0,0.0,633.0,0.0,0.0,0.0,0.0,0.0,0.0,0.0,633.0,18538.0,Direct,,,View report (https://accesshub.pdc.wa.gov/node/37437),Health Care,Health Care,Health Care
25112,37462-18362,37462,FE,17431,CAPITOL SOLUTIONS*,Employer,18362,WA SCHOOL INFORMATION PROCESSING COOP,17-Oct,11/6/2017,17193.0,WA SCHOOL INFORMATION PROCESSING COOP,750.0,0.0,750.0,0.0,0.0,0.0,0.0,0.0,0.0,0.0,750.0,18362.0,Direct,,,View report (https://accesshub.pdc.wa.gov/node/37462),Financial institutions and insurance,EDUCATION TECHNOLOGY,"MULTIPLE, EDUCATION TECHNOLOGY"
25113,37461-19003,37461,FE,17662,MELLANI MCALEENAN,Employer,19003,WA ST DENTAL ASSN,17-Oct,11/6/2017,17238.0,WA ST DENTAL ASSN,5000.0,0.0,5000.0,0.0,0.0,0.0,0.0,0.0,0.0,0.0,5000.0,19003.0,Direct,,,View report (https://accesshub.pdc.wa.gov/node/37461),Health Care,Dental-related issues,"Heath Committees, Fiscal Committees, Department of Health, and Governor’s Office"
25114,37458-19073,37458,FE,17702,BRACKEN R KILLPACK,Employer,19073,WA ST DENTAL ASSN,17-Oct,11/6/2017,17238.0,WA ST DENTAL ASSN,3500.0,0.0,3500.0,0.0,0.0,0.0,0.0,0.0,0.0,0.0,3500.0,19073.0,Direct,,,View report (https://accesshub.pdc.wa.gov/node/37458),Health Care,Dental-related issues,"Heath Committees, Fiscal Committees, Department of Health, and Governor’s Office"
25115,37460-35942,37460,FE,35584,Emily Lovell,Employer,35942,WA ST DENTAL ASSN,17-Oct,11/6/2017,17238.0,WA ST DENTAL ASSN,1500.0,0.0,1500.0,0.0,0.0,0.0,0.0,0.0,0.0,0.0,1500.0,35942.0,Direct,,,View report (https://accesshub.pdc.wa.gov/node/37460),Health Care,Dental-related issues,Department of Health
25116,37440-18544,37440,FE,17483,THOMAS M DAVIS,Employer,18544,WA ST FARM BUREAU,17-Sep,11/6/2017,17246.0,WA ST FARM BUREAU,4000.0,0.0,4000.0,0.0,0.0,0.0,0.0,0.0,0.0,0.0,4000.0,18544.0,Direct,,,View report (https://accesshub.pdc.wa.gov/node/37440),Agriculture,All agricultural issues,WSDA and WDFW predominantly
25117,37441-18544,37441,FE,17483,THOMAS M DAVIS,Employer,18544,WA ST FARM BUREAU,17-Oct,11/6/2017,17246.0,WA ST FARM BUREAU,4000.0,0.0,4000.0,0.0,0.0,0.0,0.0,0.0,0.0,0.0,4000.0,18544.0,Direct,,,View report (https://accesshub.pdc.wa.gov/node/37441),Agriculture,All agricultural issues,WDFW and WSDA predominantly
25118,37439-19612,37439,FE,17959,EVAN SHEFFELS,Employer,19612,WA ST FARM BUREAU,17-Oct,11/6/2017,17246.0,WA ST FARM BUREAU,4000.0,0.0,4000.0,0.0,0.0,0.0,0.0,0.0,0.0,0.0,4000.0,19612.0,Direct,,,View report (https://accesshub.pdc.wa.gov/node/37439),Agriculture,Ag and Env Issues,Ag and Environmental Agencies and Committees
25121,37459-18883,37459,FE,17593,SEAN N GRAHAM,Employer,18883,WA ST MEDICAL ASSN,17-Oct,11/6/2017,17261.0,WA ST MEDICAL ASSN,2222.22,0.0,2222.22,274.0,35.0,0.0,0.0,0.0,0.0,309.0,2531.22,18883.0,Direct,,,View report (https://accesshub.pdc.wa.gov/node/37459),Health Care,Multiple,Multiple
25122,37437-27407,37437,FE,17479,ROMAN M DANIELS-BROWN,Employer,27407,WA ST MEDICAL ASSN,17-Oct,11/6/2017,17261.0,WA ST MEDICAL ASSN,6000.0,0.0,6000.0,0.0,0.0,0.0,0.0,0.0,0.0,0.0,6000.0,27407.0,Direct,,,View report (https://accesshub.pdc.wa.gov/node/37437),Health Care,Health Care,Health Care Committees
25123,37437-18539,37437,FE,17479,ROMAN M DANIELS-BROWN,Employer,18539,WESTERN WOOD PRESERVERS INSTITUTE,17-Oct,11/6/2017,17304.0,WESTERN WOOD PRESERVERS INSTITUTE,1750.0,0.0,1750.0,0.0,0.0,0.0,0.0,0.0,0.0,0.0,1750.0,18539.0,Direct,,,View report (https://accesshub.pdc.wa.gov/node/37437),Environmental Affairs - natural resources - parks,Preserved wood,Environment and Natural Resources
25124,37437-26046,37437,FE,17479,ROMAN M DANIELS-BROWN,Employer,26046,"U.S. Anesthesia Partners, Inc.",17-Oct,11/6/2017,26042.0,"U.S. Anesthesia Partners, Inc.",5000.0,0.0,5000.0,79.35,0.0,0.0,0.0,0.0,0.0,79.35,5079.35,26046.0,Direct,,,View report (https://accesshub.pdc.wa.gov/node/37437),Health Care,Health Care,Health Care Committees
25125,37488-19365,37488,FE,17850,PAUL NIELSEN,Employer,19365,ALKERMES PLC,17-Oct,11/7/2017,16079.0,ALKERMES PLC,3000.0,0.0,3000.0,1503.0,0.0,0.0,0.0,0.0,0.0,1503.0,4503.0,19365.0,Direct,,,View report (https://accesshub.pdc.wa.gov/node/37488),Health Care,Behavioral Health,"Health and Public Safety Committees, House and Senate"
25126,37515-19973,37515,FE,18006,WILLIAM E STRUYK,Employer,19973,ALKERMES PLC (MILLENNIA PUBLIC AFFAIRS INC*),17-Oct,11/7/2017,16079.0,ALKERMES PLC,2500.0,0.0,2500.0,0.0,0.0,0.0,0.0,0.0,0.0,0.0,2500.0,19973.0,Subcontract,17813.0,MILLENNIA PUBLIC AFFAIRS INC*,View report (https://accesshub.pdc.wa.gov/node/37515),,,
25127,37507-36168,37507,FE,17401,Brynn Brady,Employer,36168,AMAZON.COM SERVICES LLC,17-Oct,11/7/2017,16088.0,AMAZON.COM SERVICES LLC,3000.0,0.0,3000.0,0.0,0.0,0.0,0.0,0.0,0.0,0.0,3000.0,36168.0,Direct,,,View report (https://accesshub.pdc.wa.gov/node/37507),Technology,Technology,Technology
25131,37497-19274,37497,FE,17811,MILLER MALONE & TELLEFSON PS*,Employer,19274,CVS HEALTH,17-Oct,11/7/2017,16229.0,CVS HEALTH,4166.66,0.0,4166.66,0.0,0.0,0.0,0.0,0.0,0.0,0.0,4166.66,19274.0,Direct,,,View report (https://accesshub.pdc.wa.gov/node/37497),Health Care,Health care,"OIC, HCA, Health Care Committees"
25132,37477-19862,37477,FE,18074,Waypoint Consulting Group,Employer,19862,CITY OF KIRKLAND,17-Oct,11/7/2017,16289.0,CITY OF KIRKLAND,5000.0,0.0,5000.0,0.0,0.0,0.0,0.0,0.0,0.0,0.0,5000.0,19862.0,Direct,,,View report (https://accesshub.pdc.wa.gov/node/37477),Local government,Local Govt,"Local Govt, State Government, Finance, DOT, Commerce"
25133,37477-19863,37477,FE,18074,Waypoint Consulting Group,Employer,19863,CLIMATE SOLUTIONS,17-Oct,11/7/2017,16327.0,CLIMATE SOLUTIONS,4500.0,0.0,4500.0,0.0,0.0,0.0,0.0,0.0,0.0,0.0,4500.0,19863.0,Direct,,,View report (https://accesshub.pdc.wa.gov/node/37477),Environmental Affairs - natural resources - parks,Enviroment,"Environment, Transportation, TED, WEE, DOE, Finance"
25137,37497-19275,37497,FE,17811,MILLER MALONE & TELLEFSON PS*,Employer,19275,FIDELITY NATIONAL FINANCIAL INC,17-Oct,11/7/2017,16442.0,FIDELITY NATIONAL FINANCIAL INC,4166.67,0.0,4166.67,0.0,0.0,0.0,0.0,0.0,0.0,0.0,4166.67,19275.0,Direct,,,View report (https://accesshub.pdc.wa.gov/node/37497),Financial institutions and insurance,Title Insurance,"OIC, Business Committees"
25138,37497-19276,37497,FE,17811,MILLER MALONE & TELLEFSON PS*,Employer,19276,FORD MOTOR CO,17-Oct,11/7/2017,16449.0,FORD MOTOR CO,1000.0,0.0,1000.0,0.0,0.0,0.0,0.0,0.0,0.0,0.0,1000.0,19276.0,Direct,,,View report (https://accesshub.pdc.wa.gov/node/37497),Transportation,Auto manufacturing,Transportation Committee
25139,37477-19864,37477,FE,18074,Waypoint Consulting Group,Employer,19864,JOINT COUNCIL OF TEAMSTERS #28,17-Oct,11/7/2017,16564.0,JOINT COUNCIL OF TEAMSTERS #28,6250.0,0.0,6250.0,0.0,0.0,0.0,0.0,0.0,0.0,0.0,6250.0,19864.0,Direct,,,View report (https://accesshub.pdc.wa.gov/node/37477),Labor,Labor,"Labor & Commerce, W&M, Approps, Finance, Education"
25140,37491-18514,37491,FE,17471,JAMES CURRY,Employer,18514,MONSANTO,17-Oct,11/7/2017,16644.0,MONSANTO,525.6,0.0,525.6,0.0,0.0,39500.0,0.0,0.0,0.0,39500.0,40025.6,18514.0,Direct,,,View report (https://accesshub.pdc.wa.gov/node/37491),Agriculture,Agriculture and biotechnology issues,House and Senate Agriculture Committees and Washington State Department of Agriculture
25141,37477-19865,37477,FE,18074,Waypoint Consulting Group,Employer,19865,NON-PROFIT INSURANCE PROGRAM,17-Oct,11/7/2017,16691.0,NON-PROFIT INSURANCE PROGRAM,2500.0,0.0,2500.0,0.0,0.0,0.0,0.0,0.0,0.0,0.0,2500.0,19865.0,Direct,,,View report (https://accesshub.pdc.wa.gov/node/37477),Financial institutions and insurance,Insurance Pools,"BFS, FII, DES"
25142,37507-18298,37507,FE,17401,Brynn Brady,Employer,18298,Pierce County Regional Council,17-Oct,11/7/2017,16785.0,Pierce County Regional Council,666.66,0.0,666.66,0.0,0.0,0.0,0.0,0.0,0.0,0.0,666.66,18298.0,Direct,,,View report (https://accesshub.pdc.wa.gov/node/37507),Local government,Local Government,Gov Ops
25143,37497-19278,37497,FE,17811,MILLER MALONE & TELLEFSON PS*,Employer,19278,Progressive,17-Oct,11/7/2017,16816.0,Progressive,5833.33,0.0,5833.33,0.0,0.0,0.0,0.0,0.0,0.0,0.0,5833.33,19278.0,Direct,,,View report (https://accesshub.pdc.wa.gov/node/37497),Financial institutions and insurance,Insurance,"OIC, Business Committees"
25144,37477-19866,37477,FE,18074,Waypoint Consulting Group,Employer,19866,Puget Sound Pilots,17-Oct,11/7/2017,16831.0,Puget Sound Pilots,6250.0,0.0,6250.0,0.0,0.0,0.0,0.0,0.0,0.0,0.0,6250.0,19866.0,Direct,,,View report (https://accesshub.pdc.wa.gov/node/37477),Transportation,Maritime transporation,"Environment, TED, BOPC, OFM"
25145,37497-19279,37497,FE,17811,MILLER MALONE & TELLEFSON PS*,Employer,19279,REGENCE BLUE SHIELD,17-Oct,11/7/2017,16849.0,REGENCE BLUE SHIELD,10000.0,0.0,10000.0,0.0,0.0,0.0,0.0,0.0,0.0,0.0,10000.0,19279.0,Direct,,,View report (https://accesshub.pdc.wa.gov/node/37497),Health Care,Health care,"OIC, Health Care and Business Committees"
25146,37507-27587,37507,FE,17401,Brynn Brady,Employer,27587,REGIONAL FISHERIES ENHANCEMENT GROUP COALITION,17-Oct,11/7/2017,16850.0,REGIONAL FISHERIES ENHANCEMENT GROUP COALITION,2000.0,0.0,2000.0,0.0,0.0,0.0,0.0,0.0,0.0,0.0,2000.0,27587.0,Direct,,,View report (https://accesshub.pdc.wa.gov/node/37507),Environmental Affairs - natural resources - parks,Environment,"House Environment, Senate Energy, Environment & Telecommunications"
25147,36773-18163,36773,FE,17343,CODY W ARLEDGE,Employer,18163,SHEET METAL WORKERS LOCAL 66,17-Oct,11/7/2017,16910.0,SHEET METAL WORKERS LOCAL 66,9460.0,0.0,9460.0,0.0,0.0,0.0,0.0,0.0,0.0,0.0,9460.0,18163.0,Direct,,,View report (https://accesshub.pdc.wa.gov/node/36773),Labor,Labor,Labor
25148,37477-19868,37477,FE,18074,Waypoint Consulting Group,Employer,19868,STATEWIDE POVERTY ACTION NETWORK,17-Oct,11/7/2017,16952.0,STATEWIDE POVERTY ACTION NETWORK,3000.0,0.0,3000.0,0.0,0.0,0.0,0.0,0.0,0.0,0.0,3000.0,19868.0,Direct,,,View report (https://accesshub.pdc.wa.gov/node/37477),Business and consumer affairs,Consumer Protection,"BFS, FII,GGIT, DFI,AGO, Judiciary"
25149,37507-18299,37507,FE,17401,Brynn Brady,Employer,18299,TACOMA-PIERCE CO HEALTH DEPT,17-Oct,11/7/2017,16967.0,TACOMA-PIERCE CO HEALTH DEPT,1500.0,0.0,1500.0,0.0,0.0,0.0,0.0,0.0,0.0,0.0,1500.0,18299.0,Direct,,,View report (https://accesshub.pdc.wa.gov/node/37507),Health Care,Health Care and Wellness,Health Care
25150,37497-19280,37497,FE,17811,MILLER MALONE & TELLEFSON PS*,Employer,19280,USAA,17-Oct,11/7/2017,17012.0,USAA,2731.82,0.0,2731.82,0.0,0.0,0.0,0.0,0.0,0.0,0.0,2731.82,19280.0,Direct,,,View report (https://accesshub.pdc.wa.gov/node/37497),Financial institutions and insurance,Insurance,"OIC, DFI, Business Committees"
25151,37497-19281,37497,FE,17811,MILLER MALONE & TELLEFSON PS*,Employer,19281,Veritec Solutions,17-Oct,11/7/2017,17031.0,Veritec Solutions,2000.0,0.0,2000.0,0.0,0.0,0.0,0.0,0.0,0.0,0.0,2000.0,19281.0,Direct,,,View report (https://accesshub.pdc.wa.gov/node/37497),Financial institutions and insurance,Payday lending,DFI
25152,37509-19153,37509,FE,17754,KENT LOPEZ,Employer,19153,WA RURAL ELECTRIC CO-OP ASSN,17-Oct,11/7/2017,17181.0,WA RURAL ELECTRIC CO-OP ASSN,1500.0,0.0,1500.0,0.0,0.0,0.0,0.0,0.0,0.0,0.0,1500.0,19153.0,Direct,,,View report (https://accesshub.pdc.wa.gov/node/37509),Energy and utilities,Fuel Mix Disclosure Report Update,Dept. of Commerce
25153,37477-19870,37477,FE,18074,Waypoint Consulting Group,Employer,19870,WA WILDLIFE & RECREATION COALITION ACTION FUND,17-Oct,11/7/2017,17213.0,WA WILDLIFE & RECREATION COALITION ACTION FUND,4600.0,0.0,4600.0,0.0,0.0,0.0,0.0,0.0,0.0,0.0,4600.0,19870.0,Direct,,,View report (https://accesshub.pdc.wa.gov/node/37477),Environmental Affairs - natural resources - parks,Capital Budget,"Capital Budget, W&M, Nat Res, RCO, WDFW, DNR, State Parks"
25154,37520-19872,37520,FE,18076,JOSH WEISS,Employer,19872,WA STATE ASSN OF COUNTIES (WSAC),17-Oct,11/7/2017,17215.0,WA STATE ASSN OF COUNTIES (WSAC),781.17,0.0,781.17,0.0,0.0,0.0,0.0,0.0,0.0,0.0,781.17,19872.0,Direct,,,View report (https://accesshub.pdc.wa.gov/node/37520),Local government,Various,Various
25155,37477-31282,37477,FE,18074,Waypoint Consulting Group,Employer,31282,Washington State Opportunity Scholarship,17-Oct,11/7/2017,30931.0,Washington State Opportunity Scholarship,2000.0,0.0,2000.0,0.0,0.0,0.0,0.0,0.0,0.0,0.0,2000.0,31282.0,Direct,,,View report (https://accesshub.pdc.wa.gov/node/37477),Higher education,Higher Education,"Higher Ed, W&M, Approps, WSAC, PESB"
25160,37540-26596,37540,FE,26595,STEVEN SCHULTZ,Employer,26596,ARTHRITIS FOUNDATION,17-Sep,11/8/2017,16140.0,ARTHRITIS FOUNDATION,5000.0,0.0,5000.0,0.0,0.0,0.0,0.0,0.0,0.0,0.0,5000.0,26596.0,Direct,,,View report (https://accesshub.pdc.wa.gov/node/37540),Health Care,Step Therapy,senate committee on health care
25162,37531-18488,37531,FE,17462,PATRICK CONNOR,Employer,18488,NATL FEDERATION OF INDEPENDENT BUSINESS,17-Oct,11/8/2017,16665.0,NATL FEDERATION OF INDEPENDENT BUSINESS,9030.0,0.0,9030.0,123.15,0.0,0.0,0.0,0.0,0.0,123.15,9153.15,18488.0,Direct,,,View report (https://accesshub.pdc.wa.gov/node/37531),Business and consumer affairs,,ALL HOU & SEN CMTES AGO DOR OFM ESD HCA LNI GOVERNOR'S POLICY OFFICE
25164,37529-29092,37529,FE,17542,JACK FIELD,Employer,29092,WA CATTLE FEEDERS ASSN,17-Oct,11/8/2017,17078.0,WA CATTLE FEEDERS ASSN,1500.0,0.0,1500.0,0.0,0.0,0.0,0.0,0.0,0.0,0.0,1500.0,29092.0,Direct,,,View report (https://accesshub.pdc.wa.gov/node/37529),Agriculture,"dust, beef checkoff, brand fees, water quality, air quality","DOE, WSDA"
25165,37529-18708,37529,FE,17542,JACK FIELD,Employer,18708,Northwest Aquaculture Alliance,17-Oct,11/8/2017,17115.0,Northwest Aquaculture Alliance,1000.0,0.0,1000.0,0.0,0.0,0.0,0.0,0.0,0.0,0.0,1000.0,18708.0,Direct,,,View report (https://accesshub.pdc.wa.gov/node/37529),Environmental Affairs - natural resources - parks,WSU Cap Budget Support and net pen issues,net pen issues
25166,37542-28244,37542,FE,17359,CHRISTOPHER BANDOLI,Employer,28244,WA ST HOSPITAL ASSN,17-Oct,11/8/2017,17252.0,WA ST HOSPITAL ASSN,2500.0,0.0,2500.0,137.6,0.0,0.0,0.0,0.0,0.0,137.6,2637.6,28244.0,Direct,,,View report (https://accesshub.pdc.wa.gov/node/37542),Health Care,Health Care System Issues,"Health Care Committees, Insurance Commissioner, Department of Health"
25167,37590-28972,37590,FE,17339,Amber D Lewis Consulting LLC,Employer,28972,Aetna,17-Oct,11/9/2017,16073.0,Aetna,4000.0,0.0,4000.0,0.0,0.0,0.0,0.0,0.0,0.0,0.0,4000.0,28972.0,Direct,,,View report (https://accesshub.pdc.wa.gov/node/37590),Health Care,healthcare,"health care committees, DoH, OIC, HCA"
25168,37433-26630,37433,FE,17599,Grist Public Affairs LLC,Employer,26630,AARP WA ST OFFICE,17-Oct,11/9/2017,16121.0,AARP WA ST OFFICE,2000.0,0.0,2000.0,0.0,0.0,0.0,0.0,0.0,0.0,0.0,2000.0,26630.0,Direct,,,View report (https://accesshub.pdc.wa.gov/node/37433),Health Care,"Aging, disability, health care, guardianship, hearing aids, charity care, surprise billing, Rx drug pricing","Health Care, JLEC on Aging & Disability"
25171,37577-19578,37577,FE,17944,MICHAEL V SCHWISOW,Employer,19578,COLUMBIA BASIN DEVELOPMENT LEAGUE,17-Oct,11/9/2017,16335.0,COLUMBIA BASIN DEVELOPMENT LEAGUE,4166.66,0.0,4166.66,0.0,0.0,0.0,0.0,0.0,0.0,0.0,4166.66,19578.0,Direct,,,View report (https://accesshub.pdc.wa.gov/node/37577),Fiscal,Capital budget,House of Representatives & Senate
25174,37590-18147,37590,FE,17339,Amber D Lewis Consulting LLC,Employer,18147,DB3,17-Oct,11/9/2017,16382.0,DB3,1000.0,0.0,1000.0,0.0,0.0,0.0,0.0,0.0,0.0,0.0,1000.0,18147.0,Direct,,,View report (https://accesshub.pdc.wa.gov/node/37590),Business and consumer affairs,cannabis,"WA LCB,Dept of Ag"
25175,37551-19496,37551,FE,17903,PRINCIPLED SOLUTIONS*,Employer,19496,EASTERN WA GATEWAY RAILROAD CO,16-Dec,11/9/2017,16399.0,EASTERN WA GATEWAY RAILROAD CO,2250.0,0.0,2250.0,0.0,0.0,0.0,0.0,0.0,0.0,0.0,2250.0,19496.0,Direct,,,View report (https://accesshub.pdc.wa.gov/node/37551),Transportation,Railroad Issues,Various Legislative Committees
25176,37551-19497,37551,FE,17903,PRINCIPLED SOLUTIONS*,Employer,19497,HIGHLINE GRAIN LLC,16-Dec,11/9/2017,16501.0,HIGHLINE GRAIN LLC,5000.0,0.0,5000.0,0.0,0.0,0.0,0.0,0.0,0.0,0.0,5000.0,19497.0,Direct,,,View report (https://accesshub.pdc.wa.gov/node/37551),Transportation,Railroad Issues,"WSDOT, legislative committees"
25177,37590-18148,37590,FE,17339,Amber D Lewis Consulting LLC,Employer,18148,HUDSON GOVT AFFAIRS LLC,17-Oct,11/9/2017,16512.0,HUDSON GOVT AFFAIRS LLC,4000.0,0.0,4000.0,0.0,0.0,0.0,0.0,0.0,0.0,0.0,4000.0,18148.0,Direct,,,View report (https://accesshub.pdc.wa.gov/node/37590),Health Care,dental,health care committees
25178,37433-25575,37433,FE,17599,Grist Public Affairs LLC,Employer,25575,INTERCITY TRANSIT,17-Oct,11/9/2017,16542.0,INTERCITY TRANSIT,1750.0,0.0,1750.0,0.0,0.0,0.0,0.0,0.0,0.0,0.0,1750.0,25575.0,Direct,,,View report (https://accesshub.pdc.wa.gov/node/37433),,,
25179,37590-18149,37590,FE,17339,Amber D Lewis Consulting LLC,Employer,18149,LEWIS CO FIRE DIST 1,17-Oct,11/9/2017,16600.0,LEWIS CO FIRE DIST 1,1350.0,0.0,1350.0,0.0,0.0,0.0,0.0,0.0,0.0,0.0,1350.0,18149.0,Direct,,,View report (https://accesshub.pdc.wa.gov/node/37590),Fiscal,capital request,Capital Budget
25180,37590-26759,37590,FE,17339,Amber D Lewis Consulting LLC,Employer,26759,March of Dimes,17-Oct,11/9/2017,16616.0,March of Dimes,1000.0,0.0,1000.0,0.0,0.0,0.0,0.0,0.0,0.0,0.0,1000.0,26759.0,Direct,,,View report (https://accesshub.pdc.wa.gov/node/37590),Health Care,health care,"health care committees, DoH, OIC, HCA"
25181,37590-19948,37590,FE,17339,Amber D Lewis Consulting LLC,Employer,19948,"NATIONAL GUARD ASSOC OF WA (Advocates, Inc.)",17-Oct,11/9/2017,16666.0,NATIONAL GUARD ASSOC OF WA,416.67,0.0,416.67,0.0,0.0,0.0,0.0,0.0,0.0,0.0,416.67,19948.0,Subcontract,17329.0,"Advocates, Inc.",View report (https://accesshub.pdc.wa.gov/node/37590),,,
25182,37590-18150,37590,FE,17339,Amber D Lewis Consulting LLC,Employer,18150,NATURAL EXTRACTIONS INC,17-Oct,11/9/2017,16678.0,NATURAL EXTRACTIONS INC,1000.0,0.0,1000.0,0.0,0.0,0.0,0.0,0.0,0.0,0.0,1000.0,18150.0,Direct,,,View report (https://accesshub.pdc.wa.gov/node/37590),Business and consumer affairs,cannabis,WA LCB
25183,37551-19499,37551,FE,17903,PRINCIPLED SOLUTIONS*,Employer,19499,NORTHSTAR CONTRACTING GROUP LP,16-Dec,11/9/2017,16702.0,NORTHSTAR CONTRACTING GROUP LP,2000.0,0.0,2000.0,0.0,0.0,0.0,0.0,0.0,0.0,0.0,2000.0,19499.0,Direct,,,View report (https://accesshub.pdc.wa.gov/node/37551),Environmental Affairs - natural resources - parks,Various,Various
25184,37590-18151,37590,FE,17339,Amber D Lewis Consulting LLC,Employer,18151,PORT OF CENTRALIA,17-Oct,11/9/2017,16795.0,PORT OF CENTRALIA,2500.0,0.0,2500.0,0.0,0.0,0.0,0.0,0.0,0.0,0.0,2500.0,18151.0,Direct,,,View report (https://accesshub.pdc.wa.gov/node/37590),Transportation,budget,Transportation and fiscal committees
25185,37590-28146,37590,FE,17339,Amber D Lewis Consulting LLC,Employer,28146,PORT MADISON ENTERPRISES AN AGENCY OF THE SUQUAMISH TRIBE,17-Oct,11/9/2017,16801.0,PORT MADISON ENTERPRISES AN AGENCY OF THE SUQUAMISH TRIBE,4000.0,0.0,4000.0,0.0,0.0,0.0,0.0,0.0,0.0,0.0,4000.0,28146.0,Direct,,,View report (https://accesshub.pdc.wa.gov/node/37590),Environmental Affairs - natural resources - parks,tribal matters,"Commerce and Gaming, Tribal Affairs, Environment"
25186,37433-24774,37433,FE,17599,Grist Public Affairs LLC,Employer,24774,PUGET SOUND CLEAN AIR AGENCY,17-Oct,11/9/2017,16826.0,PUGET SOUND CLEAN AIR AGENCY,2400.0,0.0,2400.0,0.0,0.0,0.0,0.0,0.0,0.0,0.0,2400.0,24774.0,Direct,,,View report (https://accesshub.pdc.wa.gov/node/37433),Transportation,"vehicle emissions, VW settlement, electric vehicles","Transportation, Technology & Economic Development"
25188,37590-18154,37590,FE,17339,Amber D Lewis Consulting LLC,Employer,18154,WA ASSN FOR MARRIAGE & FAMILY THERAPY,17-Oct,11/9/2017,17150.0,WA ASSN FOR MARRIAGE & FAMILY THERAPY,1180.0,0.0,1180.0,0.0,0.0,0.0,0.0,0.0,0.0,0.0,1180.0,18154.0,Direct,,,View report (https://accesshub.pdc.wa.gov/node/37590),Health Care,health care,"health care committees, DoH, OIC"
25189,37577-19579,37577,FE,17944,MICHAEL V SCHWISOW,Employer,19579,Washington Winegrowers Association,17-Oct,11/9/2017,17210.0,Washington Winegrowers Association,2500.0,0.0,2500.0,0.0,0.0,0.0,0.0,0.0,0.0,0.0,2500.0,19579.0,Direct,,,View report (https://accesshub.pdc.wa.gov/node/37577),,,
25190,37587-19037,37587,FE,17676,ERIC B JOHNSON,Employer,19037,WA STATE ASSN OF COUNTIES (WSAC),17-Oct,11/9/2017,17215.0,WA STATE ASSN OF COUNTIES (WSAC),518.49,0.0,518.49,0.0,0.0,0.0,0.0,0.0,0.0,0.0,518.49,19037.0,Direct,,,View report (https://accesshub.pdc.wa.gov/node/37587),Local government,Various,Various
25192,37574-19654,37574,FE,17982,ZOSIA E STANLEY,Employer,19654,WA ST HOSPITAL ASSN,17-Oct,11/9/2017,17252.0,WA ST HOSPITAL ASSN,375.0,0.0,375.0,240.0,0.0,0.0,0.0,0.0,0.0,240.0,615.0,19654.0,Direct,,,View report (https://accesshub.pdc.wa.gov/node/37574),Health Care,DOH rulemaking,"DOH, governor's office"
25193,37577-19580,37577,FE,17944,MICHAEL V SCHWISOW,Employer,19580,WA ST WATER RESOURCES ASSN,17-Oct,11/9/2017,17292.0,WA ST WATER RESOURCES ASSN,4561.66,0.0,4561.66,0.0,0.0,0.0,0.0,0.0,0.0,0.0,4561.66,19580.0,Direct,,,View report (https://accesshub.pdc.wa.gov/node/37577),Fiscal,Capital Budget,House of Representative & Senate
25194,37590-29348,37590,FE,17339,Amber D Lewis Consulting LLC,Employer,29348,Solstice,17-Oct,11/9/2017,29347.0,Solstice,3000.0,0.0,3000.0,0.0,0.0,0.0,0.0,0.0,0.0,0.0,3000.0,29348.0,Direct,,,View report (https://accesshub.pdc.wa.gov/node/37590),Business and consumer affairs,cannabis,"Commerce committees, LCB, Dept of Ag, DoH"
25195,37551-34442,37551,FE,17903,PRINCIPLED SOLUTIONS*,Employer,34442,Cigar Assn of WA,16-Dec,11/9/2017,34441.0,Cigar Assn of WA,2000.0,0.0,2000.0,0.0,0.0,0.0,0.0,0.0,0.0,0.0,2000.0,34442.0,Direct,,,View report (https://accesshub.pdc.wa.gov/node/37551),Business and consumer affairs,Cigar Related Issues,Various Legislative Committees
25196,37557-36156,37557,FE,28950,Philip Dawdy,Employer,36156,Have A Heart CC,17-Oct,11/9/2017,36154.0,Have A Heart CC,5000.0,0.0,5000.0,0.0,0.0,0.0,0.0,0.0,0.0,0.0,5000.0,36156.0,Direct,,,View report (https://accesshub.pdc.wa.gov/node/37557),,,
25197,37433-36421,37433,FE,17599,Grist Public Affairs LLC,Employer,36421,Friends of Lopez Island Pool,17-Oct,11/9/2017,36414.0,Friends of Lopez Island Pool,1000.0,0.0,1000.0,0.0,0.0,0.0,0.0,0.0,0.0,0.0,1000.0,36421.0,Direct,,,View report (https://accesshub.pdc.wa.gov/node/37433),Fiscal,capital construction project funds,"Capital Budget, Ways & Means"
25208,37601-18216,37601,FE,17367,ROBERT A BATTLES,Employer,18216,ASSN OF WA BUSINESS,17-Sep,11/10/2017,16167.0,ASSN OF WA BUSINESS,6973.96,0.0,6973.96,0.0,0.0,0.0,0.0,0.0,0.0,0.0,6973.96,18216.0,Direct,,,View report (https://accesshub.pdc.wa.gov/node/37601),Law and justice,Paid family leave,L&I ESD House & Senate Commerce
25209,37603-18428,37603,FE,17440,GARY CHANDLER,Employer,18428,ASSN OF WA BUSINESS,17-Sep,11/10/2017,16167.0,ASSN OF WA BUSINESS,7420.0,0.0,7420.0,0.0,0.0,0.0,0.0,0.0,0.0,0.0,7420.0,18428.0,Direct,,,View report (https://accesshub.pdc.wa.gov/node/37603),Fiscal,Budget,Legislative Leadership Agency Directors
25210,37595-18670,37595,FE,17525,MICHAEL W ENNIS,Employer,18670,ASSN OF WA BUSINESS,17-Aug,11/10/2017,16167.0,ASSN OF WA BUSINESS,7278.67,0.0,7278.67,0.0,0.0,0.0,0.0,0.0,0.0,0.0,7278.67,18670.0,Direct,,,View report (https://accesshub.pdc.wa.gov/node/37595),Business and consumer affairs,Rural jobs,House and Senate Commerce Labor Committee
25211,37600-18670,37600,FE,17525,MICHAEL W ENNIS,Employer,18670,ASSN OF WA BUSINESS,17-Sep,11/10/2017,16167.0,ASSN OF WA BUSINESS,6823.75,0.0,6823.75,0.0,0.0,0.0,0.0,0.0,0.0,0.0,6823.75,18670.0,Direct,,,View report (https://accesshub.pdc.wa.gov/node/37600),Business and consumer affairs,Rural jobs,House & Senate Commerce Labor
25212,37598-19041,37598,FE,17680,KRISTOFER T JOHNSON,Employer,19041,ASSN OF WA BUSINESS,17-Aug,11/10/2017,16167.0,ASSN OF WA BUSINESS,500.0,0.0,500.0,0.0,0.0,0.0,0.0,0.0,0.0,0.0,500.0,19041.0,Direct,,,View report (https://accesshub.pdc.wa.gov/node/37598),Fiscal,Budget,Governors office
25213,37604-19151,37604,FE,17752,ERIC LOHNES,Employer,19151,ASSN OF WA BUSINESS,17-Aug,11/10/2017,16167.0,ASSN OF WA BUSINESS,3776.67,0.0,3776.67,0.0,0.0,0.0,0.0,0.0,0.0,0.0,3776.67,19151.0,Direct,,,View report (https://accesshub.pdc.wa.gov/node/37604),Fiscal,Budget,Dept of Rev House & Senate Ways & Means
25214,37606-19151,37606,FE,17752,ERIC LOHNES,Employer,19151,ASSN OF WA BUSINESS,17-Sep,11/10/2017,16167.0,ASSN OF WA BUSINESS,4720.84,0.0,4720.84,0.0,0.0,0.0,0.0,0.0,0.0,0.0,4720.84,19151.0,Direct,,,View report (https://accesshub.pdc.wa.gov/node/37606),Fiscal,Budget,House & Senate Ways & Means
25215,37608-19151,37608,FE,17752,ERIC LOHNES,Employer,19151,ASSN OF WA BUSINESS,17-Jun,11/10/2017,16167.0,ASSN OF WA BUSINESS,8025.42,0.0,8025.42,0.0,0.0,0.0,0.0,0.0,0.0,0.0,8025.42,19151.0,Direct,,,View report (https://accesshub.pdc.wa.gov/node/37608),Fiscal,Budget,Dept of Rev House & Senate Ways & Means
25216,37609-19151,37609,FE,17752,ERIC LOHNES,Employer,19151,ASSN OF WA BUSINESS,17-Jul,11/10/2017,16167.0,ASSN OF WA BUSINESS,6609.17,0.0,6609.17,0.0,0.0,0.0,0.0,0.0,0.0,0.0,6609.17,19151.0,Direct,,,View report (https://accesshub.pdc.wa.gov/node/37609),Fiscal,Budget & Taxes,House and Senate Ways & Means Dept of Rev
25217,37254-29963,37254,FE,29962,Mary Catherine McAleer,Employer,29963,ASSN OF WA BUSINESS,17-Jul,11/10/2017,16167.0,ASSN OF WA BUSINESS,3958.34,0.0,3958.34,0.0,0.0,0.0,0.0,0.0,0.0,0.0,3958.34,29963.0,Direct,,,View report (https://accesshub.pdc.wa.gov/node/37254),Environmental Affairs - natural resources - parks,Cannabis regulation,Liquor cannabis board
25218,37596-29963,37596,FE,29962,Mary Catherine McAleer,Employer,29963,ASSN OF WA BUSINESS,17-Aug,11/10/2017,16167.0,ASSN OF WA BUSINESS,1979.17,0.0,1979.17,0.0,0.0,0.0,0.0,0.0,0.0,0.0,1979.17,29963.0,Direct,,,View report (https://accesshub.pdc.wa.gov/node/37596),Environmental Affairs - natural resources - parks,Climate Change,Climate Coalition Dept of Ecology
25219,37597-29963,37597,FE,29962,Mary Catherine McAleer,Employer,29963,ASSN OF WA BUSINESS,17-Sep,11/10/2017,16167.0,ASSN OF WA BUSINESS,1979.17,0.0,1979.17,0.0,0.0,0.0,0.0,0.0,0.0,0.0,1979.17,29963.0,Direct,,,View report (https://accesshub.pdc.wa.gov/node/37597),Environmental Affairs - natural resources - parks,Climate Change,Climate Coalition Dept of Ecology
25220,37618-19359,37618,FE,17848,THE NEXUS GROUP LLC*,Employer,19359,ASSN OF WA SCHOOL PRINCIPALS,17-Oct,11/10/2017,16173.0,ASSN OF WA SCHOOL PRINCIPALS,1373.0,0.0,1373.0,0.0,0.0,0.0,0.0,0.0,0.0,0.0,1373.0,19359.0,Direct,,,View report (https://accesshub.pdc.wa.gov/node/37618),Fiscal,Pension/Health Care/Compensation,SCPP PFC APP DRS
25221,37593-19555,37593,FE,17926,JOHN ROTHLIN,Employer,19555,AVISTA CORP,17-Oct,11/10/2017,16180.0,AVISTA CORP,11430.6,0.0,11430.6,763.37,69.4,2000.0,0.0,0.0,0.0,2832.77,14263.37,19555.0,Direct,,,View report (https://accesshub.pdc.wa.gov/node/37593),Energy and utilities,Emissions rulemaking,Department of Ecology
25222,37622-18878,37622,FE,17589,GOVERNMENT RELATIONS SERVICES*,Employer,18878,IRON WORKERS DIST CNCL OF THE PNW,17-Oct,11/10/2017,16547.0,IRON WORKERS DIST CNCL OF THE PNW,2000.0,0.0,2000.0,0.0,0.0,0.0,0.0,0.0,0.0,0.0,2000.0,18878.0,Direct,,,View report (https://accesshub.pdc.wa.gov/node/37622),Transportation,TRANPORTATION,TRANSPORATION
25224,37618-19360,37618,FE,17848,THE NEXUS GROUP LLC*,Employer,19360,NW NATURAL GAS,17-Oct,11/10/2017,16715.0,NW NATURAL GAS,3000.0,0.0,3000.0,0.0,0.0,0.0,0.0,0.0,0.0,0.0,3000.0,19360.0,Direct,,,View report (https://accesshub.pdc.wa.gov/node/37618),Energy and utilities,ENERGY AND UTILITIES,ENERGY
25226,37376-27140,37376,FE,17372,BRUCE K BECKETT,Employer,27140,PORT OF MOSES LAKE,17-Oct,11/10/2017,16802.0,PORT OF MOSES LAKE,3000.0,0.0,3000.0,195.81,22923.0,0.0,0.0,0.0,0.0,23118.81,26118.81,27140.0,Direct,,,View report (https://accesshub.pdc.wa.gov/node/37376),State government,workforce development; transportation,WSDOT; House/Senate fiscal committees; Dept of Commerce
25227,37610-19492,37610,FE,17901,K & L GATES*,Employer,19492,School Alliance,17-Oct,11/10/2017,16879.0,School Alliance,1534.5,0.0,1534.5,0.0,0.0,0.0,0.0,0.0,0.0,0.0,1534.5,19492.0,Direct,,,View report (https://accesshub.pdc.wa.gov/node/37610),Education,EHB 2242,State Legislators
25228,37626-18225,37626,FE,17369,DAVID S BEARD,Employer,18225,SCHOOLS OUT WA,17-Oct,11/10/2017,16883.0,SCHOOLS OUT WA,221.85,0.0,221.85,181.9,0.0,0.0,0.0,0.0,0.0,181.9,403.75,18225.0,Direct,,,View report (https://accesshub.pdc.wa.gov/node/37626),Education,Expanded Learning Opportunities,"House Education, House Appropriations, Senate K12 and Early Learning, Senate Ways and Means Committees"
25230,37622-18879,37622,FE,17589,GOVERNMENT RELATIONS SERVICES*,Employer,18879,"GB AUCTIONS, INC",17-Oct,11/10/2017,16940.0,"GB AUCTIONS, INC",1250.0,0.0,1250.0,0.0,0.0,0.0,0.0,0.0,0.0,0.0,1250.0,18879.0,Direct,,,View report (https://accesshub.pdc.wa.gov/node/37622),Business and consumer affairs,AUTOMOTIVE BUSINESS,CAPITAL BUDGET
25232,37607-18476,37607,FE,17457,MONTY COBB,Employer,18476,WA ASSN OF COUNTY OFFICIALS,17-Oct,11/10/2017,17085.0,WA ASSN OF COUNTY OFFICIALS,4000.0,0.0,4000.0,0.0,0.0,0.0,0.0,0.0,0.0,0.0,4000.0,18476.0,Direct,,,View report (https://accesshub.pdc.wa.gov/node/37607),Local government,multiple,Local and State Govt Committees
25233,37613-19733,37613,FE,18013,DANIEL P SWECKER,Employer,19733,Northwest Aquaculture Alliance,17-Oct,11/10/2017,17115.0,Northwest Aquaculture Alliance,3800.0,0.0,3800.0,0.0,0.0,0.0,0.0,0.0,0.0,0.0,3800.0,19733.0,Direct,,,View report (https://accesshub.pdc.wa.gov/node/37613),Agriculture,Aquaculture,Washington State Dept. of Agriculture
25234,37618-19362,37618,FE,17848,THE NEXUS GROUP LLC*,Employer,19362,WA ASSN OF SCHOOL ADMINISTRATORS,17-Oct,11/10/2017,17186.0,WA ASSN OF SCHOOL ADMINISTRATORS,1893.0,0.0,1893.0,0.0,0.0,0.0,0.0,0.0,0.0,0.0,1893.0,19362.0,Direct,,,View report (https://accesshub.pdc.wa.gov/node/37618),Fiscal,RETIREMENT HEALTH COMPENSATION,SCPP DRS PFC APPROPRIATIONS
25237,37618-19363,37618,FE,17848,THE NEXUS GROUP LLC*,Employer,19363,WA ST SCHOOL RETIREES ASSN,17-Oct,11/10/2017,17286.0,WA ST SCHOOL RETIREES ASSN,5100.0,0.0,5100.0,0.0,0.0,0.0,0.0,0.0,0.0,0.0,5100.0,19363.0,Direct,,,View report (https://accesshub.pdc.wa.gov/node/37618),Fiscal,Pension/Health Care,SCPP DRS PFC APPROPRIATIOINS
25238,37376-26835,37376,FE,17372,BRUCE K BECKETT,Employer,26835,WA Hospitality Assn,17-Oct,11/10/2017,26557.0,WA Hospitality Assn,3750.0,0.0,3750.0,0.0,0.0,0.0,0.0,0.0,0.0,0.0,3750.0,26835.0,Direct,,,View report (https://accesshub.pdc.wa.gov/node/37376),Labor,1433 rulemaking,Dept of L&I
25239,37622-27526,37622,FE,17589,GOVERNMENT RELATIONS SERVICES*,Employer,27526,ACTION DD,17-Oct,11/10/2017,27525.0,ACTION DD,3000.0,0.0,3000.0,0.0,0.0,0.0,0.0,0.0,1500.0,1500.0,4500.0,27526.0,Direct,,,View report (https://accesshub.pdc.wa.gov/node/37622),Human services,DEVELOPMENTALLY DISABLED ISSUES,CAPITAL BUDGET OTHER FISCALS
25240,37376-29456,37376,FE,17372,BRUCE K BECKETT,Employer,29456,Wenatchee Valley Chamber of Commerce,17-Oct,11/10/2017,28448.0,Wenatchee Valley Chamber of Commerce,1000.0,0.0,1000.0,0.0,0.0,0.0,0.0,0.0,0.0,0.0,1000.0,29456.0,Direct,,,View report (https://accesshub.pdc.wa.gov/node/37376),Local government,tourism; econ development,House/Senate fiscal committees; Dept of Commerce
25241,37619-29731,37619,FE,29728,Steven Gerber,Employer,29731,"Charter Communications, Inc.",17-Oct,11/10/2017,29730.0,"Charter Communications, Inc.",260.0,0.0,260.0,41.99,0.0,10500.0,0.0,0.0,0.0,10541.99,10801.99,29731.0,Direct,,,View report (https://accesshub.pdc.wa.gov/node/37619),Technology,"Privacy, rural broadband",Gina McCabe
25243,37376-32598,37376,FE,17372,BRUCE K BECKETT,Employer,32598,Port of Port Angeles,17-Oct,11/10/2017,32592.0,Port of Port Angeles,3000.0,0.0,3000.0,148.73,0.0,0.0,0.0,0.0,0.0,148.73,3148.73,32598.0,Direct,,,View report (https://accesshub.pdc.wa.gov/node/37376),State government,stormwater; airport issues,24th district legislators; House/Senate capital and environment
25244,37628-18759,37628,FE,17565,GANO & ASSOC*,Employer,18759,Chubb,17-Oct,11/11/2017,16063.0,Chubb,3500.0,0.0,3500.0,0.0,0.0,0.0,0.0,0.0,462.25,462.25,3962.25,18759.0,Direct,,,View report (https://accesshub.pdc.wa.gov/node/37628),Financial institutions and insurance,Insurance,H S Finacial Inst and Insurance
25245,37628-18760,37628,FE,17565,GANO & ASSOC*,Employer,18760,AT&T SERVICES INC,17-Oct,11/11/2017,16175.0,AT&T SERVICES INC,6000.0,0.0,6000.0,0.0,0.0,0.0,0.0,0.0,792.43,792.43,6792.43,18760.0,Direct,,,View report (https://accesshub.pdc.wa.gov/node/37628),Technology,Cell Phone,"H Tech, Sen Tech"
25246,37628-18761,37628,FE,17565,GANO & ASSOC*,Employer,18761,AVIATION TECHNICAL SERVICES INC,17-Oct,11/11/2017,16179.0,AVIATION TECHNICAL SERVICES INC,4000.0,0.0,4000.0,0.0,0.0,0.0,0.0,0.0,528.29,528.29,4528.29,18761.0,Direct,,,View report (https://accesshub.pdc.wa.gov/node/37628),Business and consumer affairs,Airplane Repair,H S Ways Means
25247,37628-18762,37628,FE,17565,GANO & ASSOC*,Employer,18762,BUILDING INDUSTRY ASSN OF WA,17-Oct,11/11/2017,16215.0,BUILDING INDUSTRY ASSN OF WA,6000.0,0.0,6000.0,0.0,0.0,0.0,0.0,0.0,792.43,792.43,6792.43,18762.0,Direct,,,View report (https://accesshub.pdc.wa.gov/node/37628),Local government,Home Building,"H S Local Gov, Commerce Labor"
25248,37628-18763,37628,FE,17565,GANO & ASSOC*,Employer,18763,CONTINENTAL CASUALTY COMPANY (CNA Insurance Companies),17-Oct,11/11/2017,16363.0,CONTINENTAL CASUALTY COMPANY (CNA Insurance Companies),3500.0,0.0,3500.0,0.0,0.0,0.0,0.0,0.0,462.25,462.25,3962.25,18763.0,Direct,,,View report (https://accesshub.pdc.wa.gov/node/37628),Financial institutions and insurance,Insurance,H S Financial Inst and Insurance
25249,37628-18764,37628,FE,17565,GANO & ASSOC*,Employer,18764,Molson Coors Beverage Company USA LLC,17-Oct,11/11/2017,16366.0,Molson Coors Beverage Company USA LLC,4000.0,0.0,4000.0,0.0,0.0,0.0,0.0,0.0,528.29,528.29,4528.29,18764.0,Direct,,,View report (https://accesshub.pdc.wa.gov/node/37628),Business and consumer affairs,Beer,H S Commerce
25250,37628-18765,37628,FE,17565,GANO & ASSOC*,Employer,18765,Expedia Group,17-Oct,11/11/2017,16427.0,Expedia Group,4500.0,0.0,4500.0,0.0,0.0,10000.0,0.0,0.0,400.0,10400.0,14900.0,18765.0,Direct,,,View report (https://accesshub.pdc.wa.gov/node/37628),Technology,Travel Agent,"H S Tech, Local Gov Business and Consumer"
25251,37628-18767,37628,FE,17565,GANO & ASSOC*,Employer,18767,CAL PORTLAND COMPANY,17-Oct,11/11/2017,16472.0,CAL PORTLAND COMPANY,4000.0,0.0,4000.0,83.34,0.0,0.0,0.0,0.0,528.29,611.63,4611.63,18767.0,Direct,,,View report (https://accesshub.pdc.wa.gov/node/37628),Agriculture,Construction Materials,"H S Ag, HS Transportation"
25252,37628-18769,37628,FE,17565,GANO & ASSOC*,Employer,18769,Kapstone Paper and Packaging d/b/a WestRock,17-Oct,11/11/2017,16571.0,Kapstone Paper and Packaging d/b/a WestRock,5000.0,0.0,5000.0,0.0,0.0,0.0,0.0,0.0,660.36,660.36,5660.36,18769.0,Direct,,,View report (https://accesshub.pdc.wa.gov/node/37628),Energy and utilities,Biomass,H S Tech Sen Energy
25253,37628-18770,37628,FE,17565,GANO & ASSOC*,Employer,18770,KEYBANK,17-Oct,11/11/2017,16574.0,KEYBANK,1800.0,0.0,1800.0,0.0,0.0,0.0,0.0,0.0,237.73,237.73,2037.73,18770.0,Direct,,,View report (https://accesshub.pdc.wa.gov/node/37628),Financial institutions and insurance,Banking,H S Financial Inst
25254,37628-18771,37628,FE,17565,GANO & ASSOC*,Employer,18771,MCNA HEALTH CARE HOLDINGS,17-Oct,11/11/2017,16627.0,MCNA HEALTH CARE HOLDINGS,6500.0,0.0,6500.0,0.0,0.0,0.0,0.0,0.0,0.0,0.0,6500.0,18771.0,Direct,,,View report (https://accesshub.pdc.wa.gov/node/37628),Health Care,Medicaid Dental,H S Health Care
25255,37628-18772,37628,FE,17565,GANO & ASSOC*,Employer,18772,ALTRIA CLIENT SERVICES LLC & ITS AFFILIATES,17-Oct,11/11/2017,16778.0,ALTRIA CLIENT SERVICES LLC & ITS AFFILIATES,6666.67,0.0,6666.67,0.0,0.0,57000.0,0.0,0.0,480.48,57480.48,64147.15,18772.0,Direct,,,View report (https://accesshub.pdc.wa.gov/node/37628),Business and consumer affairs,Tobacco,"H Commerce, Sen Commerce"
25256,37628-18773,37628,FE,17565,GANO & ASSOC*,Employer,18773,PREMERA BLUE CROSS,17-Oct,11/11/2017,16812.0,PREMERA BLUE CROSS,10084.0,0.0,10084.0,398.91,20.95,0.0,0.0,0.0,0.0,419.86,10503.86,18773.0,Direct,,,View report (https://accesshub.pdc.wa.gov/node/37628),Health Care,Health Care,H S Healthcare
25257,37628-18774,37628,FE,17565,GANO & ASSOC*,Employer,18774,SCI Shared Resources LLC,17-Oct,11/11/2017,16884.0,SCI Shared Resources LLC,4000.0,0.0,4000.0,0.0,0.0,0.0,0.0,0.0,528.29,528.29,4528.29,18774.0,Direct,,,View report (https://accesshub.pdc.wa.gov/node/37628),Business and consumer affairs,Funeral business,H S Business and Consumer Affairs
25258,37628-18775,37628,FE,17565,GANO & ASSOC*,Employer,18775,SCIENTIFIC GAMES CORPORATION,17-Oct,11/11/2017,16885.0,SCIENTIFIC GAMES CORPORATION,3000.0,0.0,3000.0,0.0,0.0,0.0,0.0,0.0,0.0,0.0,3000.0,18775.0,Direct,,,View report (https://accesshub.pdc.wa.gov/node/37628),Fiscal,Lottery Scratch Tickets,WA Lottery H S Commerce
25259,37628-18776,37628,FE,17565,GANO & ASSOC*,Employer,18776,SHELL OIL CO,17-Oct,11/11/2017,16911.0,SHELL OIL CO,5000.0,0.0,5000.0,0.0,0.0,0.0,0.0,0.0,660.36,660.36,5660.36,18776.0,Direct,,,View report (https://accesshub.pdc.wa.gov/node/37628),Transportation,Oil Refinery,H S Trans H S Business Fiscal
25260,37628-18777,37628,FE,17565,GANO & ASSOC*,Employer,18777,STE MICHELLE WINE ESTATES LLC,17-Oct,11/11/2017,16948.0,STE MICHELLE WINE ESTATES LLC,4500.0,0.0,4500.0,0.0,0.0,0.0,0.0,0.0,594.32,594.32,5094.32,18777.0,Direct,,,View report (https://accesshub.pdc.wa.gov/node/37628),Business and consumer affairs,Wine,H S Commerce
25261,37628-18780,37628,FE,17565,GANO & ASSOC*,Employer,18780,Uber Technologies Inc and Affiliates,17-Oct,11/11/2017,17001.0,Uber Technologies Inc and Affiliates,7500.0,0.0,7500.0,0.0,0.0,0.0,0.0,0.0,500.0,500.0,8000.0,18780.0,Direct,,,View report (https://accesshub.pdc.wa.gov/node/37628),Technology,Rideshare,H S Transport H S Commerce
25262,37628-18781,37628,FE,17565,GANO & ASSOC*,Employer,18781,WALMART INC.,17-Oct,11/11/2017,17042.0,WALMART INC.,8000.0,0.0,8000.0,0.0,0.0,0.0,0.0,0.0,924.5,924.5,8924.5,18781.0,Direct,,,View report (https://accesshub.pdc.wa.gov/node/37628),Business and consumer affairs,Retail Stores,H S Business H S Commerce
25263,37628-18782,37628,FE,17565,GANO & ASSOC*,Employer,18782,WELLS FARGO & CO,17-Oct,11/11/2017,17296.0,WELLS FARGO & CO,3250.0,0.0,3250.0,0.0,0.0,0.0,0.0,0.0,429.23,429.23,3679.23,18782.0,Direct,,,View report (https://accesshub.pdc.wa.gov/node/37628),Financial institutions and insurance,Banking,H S Financial Inst
25264,37628-26763,37628,FE,17565,GANO & ASSOC*,Employer,26763,Advantage Capital,17-Oct,11/11/2017,26331.0,Advantage Capital,3000.0,0.0,3000.0,0.0,0.0,0.0,0.0,0.0,490.53,490.53,3490.53,26763.0,Direct,,,View report (https://accesshub.pdc.wa.gov/node/37628),Fiscal,Rural Eco Develop,"H Tech Eco Develop, Sen Ag Eco Develp"
25265,37628-35899,37628,FE,17565,GANO & ASSOC*,Employer,35899,Global Discoveries LTD,17-Oct,11/11/2017,35897.0,Global Discoveries LTD,5000.0,0.0,5000.0,0.0,0.0,0.0,0.0,0.0,2500.0,2500.0,7500.0,35899.0,Direct,,,View report (https://accesshub.pdc.wa.gov/node/37628),Financial institutions and insurance,Unclaimed property,H and S Financial Institutions
25266,37644-18709,37644,FE,17543,H2 Government Relations,Employer,18709,ASSN OF WA ST PUBLIC FACILITIES DISTS,17-Oct,11/12/2017,16171.0,ASSN OF WA ST PUBLIC FACILITIES DISTS,1000.0,0.0,1000.0,0.0,0.0,0.0,0.0,0.0,0.0,0.0,1000.0,18709.0,Direct,,,View report (https://accesshub.pdc.wa.gov/node/37644),Fiscal,Taxes,"H Finance, S W&M"
25267,37634-19108,37634,FE,17723,THOMAS W KWIECIAK,Employer,19108,BUILDING INDUSTRY ASSN OF WA,17-Oct,11/12/2017,16215.0,BUILDING INDUSTRY ASSN OF WA,6054.0,0.0,6054.0,0.0,0.0,0.0,0.0,0.0,0.0,0.0,6054.0,19108.0,Direct,,,View report (https://accesshub.pdc.wa.gov/node/37634),Labor,Workers's compensation,House Labor and Senate Commerce & Labor
25268,37634-19109,37634,FE,17723,THOMAS W KWIECIAK,Employer,19109,CAPITAL BENEFIT SERVICES,17-Oct,11/12/2017,16226.0,CAPITAL BENEFIT SERVICES,4050.0,0.0,4050.0,0.0,0.0,0.0,0.0,0.0,0.0,0.0,4050.0,19109.0,Direct,,,View report (https://accesshub.pdc.wa.gov/node/37634),Health Care,WA State High Risk Pool,House Health Care Committee
25269,37635-25642,37635,FE,18088,White Tudor LLC,Employer,25642,CENTER FOR DIAGNOSTIC IMAGING,17-Oct,11/12/2017,16242.0,CENTER FOR DIAGNOSTIC IMAGING,2000.0,0.0,2000.0,0.0,0.0,0.0,0.0,0.0,0.0,0.0,2000.0,25642.0,Direct,,,View report (https://accesshub.pdc.wa.gov/node/37635),Health Care,balance billing,"legislature, OIC"
25270,37644-20013,37644,FE,17543,H2 Government Relations,Employer,20013,CITY OF EVERETT (Leonard A Mc Comb),17-Oct,11/12/2017,16281.0,CITY OF EVERETT,2000.0,0.0,2000.0,0.0,0.0,0.0,0.0,0.0,0.0,0.0,2000.0,20013.0,Subcontract,17786.0,Leonard A Mc Comb,View report (https://accesshub.pdc.wa.gov/node/37644),,,
25271,37644-18710,37644,FE,17543,H2 Government Relations,Employer,18710,City of Maple Valley,17-Oct,11/12/2017,16300.0,City of Maple Valley,3000.0,0.0,3000.0,0.0,0.0,0.0,0.0,0.0,0.0,0.0,3000.0,18710.0,Direct,,,View report (https://accesshub.pdc.wa.gov/node/37644),Local government,Transportation and Land Use,"H Local Government, S Gov Ops, H Trans, S Trans"
25272,37644-18711,37644,FE,17543,H2 Government Relations,Employer,18711,COMMUNITY ASSOC INSTITUTE,17-Oct,11/12/2017,16346.0,COMMUNITY ASSOC INSTITUTE,5000.0,0.0,5000.0,0.0,0.0,0.0,0.0,0.0,0.0,0.0,5000.0,18711.0,Direct,,,View report (https://accesshub.pdc.wa.gov/node/37644),Business and consumer affairs,Condo and Homeowner,"House Judiciary, Senate FII, Ways & Means, Senate Judiciary"
25273,37644-29219,37644,FE,17543,H2 Government Relations,Employer,29219,MUCKLESHOOT INDIAN TRIBE,17-Oct,11/12/2017,16650.0,MUCKLESHOOT INDIAN TRIBE,6000.0,0.0,6000.0,0.0,0.0,0.0,0.0,0.0,0.0,0.0,6000.0,29219.0,Direct,,,View report (https://accesshub.pdc.wa.gov/node/37644),Local government,Natural Resources,"Senate Natural Resources & Parks, House Environment, Senate Agriculture, Water & Rural Economic Development"
25274,37644-18714,37644,FE,17543,H2 Government Relations,Employer,18714,NORTHWEST YACHT BROKERS ASSN,17-Oct,11/12/2017,16724.0,NORTHWEST YACHT BROKERS ASSN,1100.0,0.0,1100.0,0.0,0.0,0.0,0.0,0.0,0.0,0.0,1100.0,18714.0,Direct,,,View report (https://accesshub.pdc.wa.gov/node/37644),Fiscal,Taxes,"S W&M, H Finance"
25275,37637-18523,37637,FE,17477,JOE C DANIELS,Employer,18523,ALTRIA CLIENT SERVICES LLC & ITS AFFILIATES,17-Oct,11/12/2017,16778.0,ALTRIA CLIENT SERVICES LLC & ITS AFFILIATES,7500.0,0.0,7500.0,0.0,0.0,5000.0,0.0,0.0,0.0,5000.0,12500.0,18523.0,Direct,,,View report (https://accesshub.pdc.wa.gov/node/37637),Business and consumer affairs,tobacco business issues,legislative fiscal & policy committees
25276,37644-20011,37644,FE,17543,H2 Government Relations,Employer,20011,PORT OF EVERETT (Leonard A Mc Comb),17-Oct,11/12/2017,16797.0,PORT OF EVERETT,2000.0,0.0,2000.0,0.0,0.0,0.0,0.0,0.0,0.0,0.0,2000.0,20011.0,Subcontract,17786.0,Leonard A Mc Comb,View report (https://accesshub.pdc.wa.gov/node/37644),,,
25277,37644-18715,37644,FE,17543,H2 Government Relations,Employer,18715,PROLIANCE SURGEONS,17-Oct,11/12/2017,16817.0,PROLIANCE SURGEONS,3500.0,0.0,3500.0,0.0,0.0,0.0,0.0,0.0,0.0,0.0,3500.0,18715.0,Direct,,,View report (https://accesshub.pdc.wa.gov/node/37644),Health Care,Health Care,"H Health Care, S Health Care"
25278,37644-18716,37644,FE,17543,H2 Government Relations,Employer,18716,GREATER SPOKANE INC,17-Oct,11/12/2017,16938.0,GREATER SPOKANE INC,4000.0,0.0,4000.0,0.0,0.0,0.0,0.0,0.0,0.0,0.0,4000.0,18716.0,Direct,,,View report (https://accesshub.pdc.wa.gov/node/37644),Higher education,"Capital, Higher Education","H Cap, H Approps, H Finance, S W&M, H Higher Ed, S Higher Ed"
25279,37644-18717,37644,FE,17543,H2 Government Relations,Employer,18717,WALGREENS,17-Oct,11/12/2017,17040.0,WALGREENS,4750.0,0.0,4750.0,0.0,0.0,0.0,0.0,0.0,0.0,0.0,4750.0,18717.0,Direct,,,View report (https://accesshub.pdc.wa.gov/node/37644),Health Care,Health Care,"H Health Care, S Health Care"
25280,37635-24893,37635,FE,18088,White Tudor LLC,Employer,24893,WA ASSN OF AREA AGENCIES ON AGING,17-Oct,11/12/2017,17044.0,WA ASSN OF AREA AGENCIES ON AGING,3000.0,0.0,3000.0,0.0,0.0,0.0,0.0,0.0,0.0,0.0,3000.0,24893.0,Direct,,,View report (https://accesshub.pdc.wa.gov/node/37635),Health Care,many,"DSHS, HCA, legislature"
25281,37635-19886,37635,FE,18088,White Tudor LLC,Employer,19886,WA ACADEMY OF PHYSICIAN ASSISTANTS,17-Oct,11/12/2017,17058.0,WA ACADEMY OF PHYSICIAN ASSISTANTS,3000.0,0.0,3000.0,0.0,0.0,0.0,0.0,0.0,0.0,0.0,3000.0,19886.0,Direct,,,View report (https://accesshub.pdc.wa.gov/node/37635),Health Care,many,"L&I, HCA, Medical Commission, legislature"
25282,37635-19887,37635,FE,18088,White Tudor LLC,Employer,19887,WA ASSN FOR COMMUNITY HEALTH,17-Oct,11/12/2017,17084.0,WA ASSN FOR COMMUNITY HEALTH,5751.0,0.0,5751.0,0.0,0.0,0.0,0.0,0.0,0.0,0.0,5751.0,19887.0,Direct,,,View report (https://accesshub.pdc.wa.gov/node/37635),Health Care,many,"HCA, DOH, legislature"
25283,37644-18718,37644,FE,17543,H2 Government Relations,Employer,18718,WA DISTILLERS GUILD,17-Oct,11/12/2017,17095.0,WA DISTILLERS GUILD,1500.0,0.0,1500.0,0.0,0.0,0.0,0.0,0.0,0.0,0.0,1500.0,18718.0,Direct,,,View report (https://accesshub.pdc.wa.gov/node/37644),Fiscal,Distilling,"House Commerce, Senate Ways & Means"
25284,37644-18719,37644,FE,17543,H2 Government Relations,Employer,18719,Washington Multi Family Housing Association,17-Oct,11/12/2017,17149.0,Washington Multi Family Housing Association,3500.0,0.0,3500.0,0.0,0.0,0.0,0.0,0.0,0.0,0.0,3500.0,18719.0,Direct,,,View report (https://accesshub.pdc.wa.gov/node/37644),Business and consumer affairs,Landlord Tenant Act,"House Judiciary, House CTHTA, Senate FII, S Ways & Means"
25285,37635-19888,37635,FE,18088,White Tudor LLC,Employer,19888,WA OCCUPATIONAL THERAPY ASSN,17-Oct,11/12/2017,17161.0,WA OCCUPATIONAL THERAPY ASSN,2700.0,0.0,2700.0,0.0,0.0,0.0,0.0,0.0,0.0,0.0,2700.0,19888.0,Direct,,,View report (https://accesshub.pdc.wa.gov/node/37635),Health Care,many,"HCA, L&I, OT Practice Board, OIC"
25287,37637-18524,37637,FE,17477,JOE C DANIELS,Employer,18524,WA ASSN OF SEWER & WATER DISTRICTS,17-Oct,11/12/2017,17198.0,WA ASSN OF SEWER & WATER DISTRICTS,3000.0,0.0,3000.0,0.0,0.0,0.0,0.0,0.0,0.0,0.0,3000.0,18524.0,Direct,,,View report (https://accesshub.pdc.wa.gov/node/37637),Local government,water/sewer district issues,legislative fiscal & policy committees
25288,37644-28144,37644,FE,17543,H2 Government Relations,Employer,28144,WA ST RADIOLOGICAL SOCIETY,17-Oct,11/12/2017,17281.0,WA ST RADIOLOGICAL SOCIETY,2500.0,0.0,2500.0,0.0,0.0,0.0,0.0,0.0,0.0,0.0,2500.0,28144.0,Direct,,,View report (https://accesshub.pdc.wa.gov/node/37644),Health Care,Health Care,"H Health Care, S Health Care"
25289,37637-18525,37637,FE,17477,JOE C DANIELS,Employer,18525,Republic National Distributing Company,17-Oct,11/12/2017,17324.0,Republic National Distributing Company,6000.0,0.0,6000.0,0.0,0.0,0.0,0.0,0.0,0.0,0.0,6000.0,18525.0,Direct,,,View report (https://accesshub.pdc.wa.gov/node/37637),Business and consumer affairs,liquor distribution issues,LEGISLATIVE POLICY FISCAL COMMITTEES
25290,37641-32974,37641,FE,30839,Brian Sims,Employer,32974,Washington State School Directors Association,17-Aug,11/12/2017,31150.0,Washington State School Directors Association,272.0,0.0,272.0,0.0,0.0,0.0,0.0,0.0,0.0,0.0,272.0,32974.0,Direct,,,View report (https://accesshub.pdc.wa.gov/node/37641),Education,school construction funding,Senate Ways and Means and House Capital
25291,37642-32974,37642,FE,30839,Brian Sims,Employer,32974,Washington State School Directors Association,17-Sep,11/12/2017,31150.0,Washington State School Directors Association,450.0,0.0,450.0,0.0,0.0,0.0,0.0,0.0,0.0,0.0,450.0,32974.0,Direct,,,View report (https://accesshub.pdc.wa.gov/node/37642),Education,school construction funding,Senate Ways and Means and House Capital
25292,37643-32974,37643,FE,30839,Brian Sims,Employer,32974,Washington State School Directors Association,17-Oct,11/12/2017,31150.0,Washington State School Directors Association,994.0,0.0,994.0,0.0,0.0,0.0,0.0,0.0,0.0,0.0,994.0,32974.0,Direct,,,View report (https://accesshub.pdc.wa.gov/node/37643),Education,school construction funding,Senate Ways and Means and House Capital
25307,37651-18730,37651,FE,17553,JESSICA FORTESCUE,Employer,18730,ABBVIE INC,17-Oct,11/13/2017,16061.0,ABBVIE INC,2500.0,0.0,2500.0,0.0,38.85,0.0,0.0,0.0,0.0,38.85,2538.85,18730.0,Direct,,,View report (https://accesshub.pdc.wa.gov/node/37651),Health Care,Health,"Health, FII, DOH, OIC"
25310,37662-18283,37662,FE,17398,BOSWELL CONSULTING*,Employer,18283,AMERICAN INSTITUTE OF ARCHITECTS WA COUNCIL,17-Oct,11/13/2017,16076.0,AMERICAN INSTITUTE OF ARCHITECTS WA COUNCIL,1500.0,0.0,1500.0,0.0,0.0,0.0,0.0,0.0,93.75,93.75,1593.75,18283.0,Direct,,,View report (https://accesshub.pdc.wa.gov/node/37662),Business and consumer affairs,various,various
25311,37534-19743,37534,FE,18021,LISA THATCHER,Employer,19743,ASSN OF DENTAL SUPPORT ORGANIZATIONS,17-Oct,11/13/2017,16153.0,ASSN OF DENTAL SUPPORT ORGANIZATIONS,5000.0,0.0,5000.0,81.69,0.0,0.0,0.0,0.0,0.0,81.69,5081.69,19743.0,Direct,,,View report (https://accesshub.pdc.wa.gov/node/37534),Health Care,Support services offered to dentists,Dept of Health
25312,37651-27763,37651,FE,17553,JESSICA FORTESCUE,Employer,27763,ASSN of WA Housing Authorities,17-Oct,11/13/2017,16155.0,ASSN of WA Housing Authorities,1400.0,0.0,1400.0,0.0,0.0,0.0,0.0,0.0,0.0,0.0,1400.0,27763.0,Direct,,,View report (https://accesshub.pdc.wa.gov/node/37651),Human services,"Housing, local government","Housing, Local Government, fiscal"
25313,37690-28314,37690,FE,28313,Matthew Morrow,Employer,28314,ASSOC STUDENTS OF WA ST UNIVERSITY,17-Oct,11/13/2017,16162.0,ASSOC STUDENTS OF WA ST UNIVERSITY,265.0,0.0,265.0,135.0,0.0,0.0,0.0,0.0,0.0,135.0,400.0,28314.0,Direct,,,View report (https://accesshub.pdc.wa.gov/node/37690),Law and justice,H.B. 1440,Washington Student Associate
25314,37534-19744,37534,FE,18021,LISA THATCHER,Employer,19744,ASSN OF WA PUBLIC HOSPITAL DISTRICTS,17-Oct,11/13/2017,16170.0,ASSN OF WA PUBLIC HOSPITAL DISTRICTS,4500.0,0.0,4500.0,136.68,0.0,0.0,0.0,0.0,0.0,136.68,4636.68,19744.0,Direct,,,View report (https://accesshub.pdc.wa.gov/node/37534),Fiscal,Public bidding issues,CPARB
25315,37681-18790,37681,FE,17573,CARL GIPSON,Employer,18790,AT&T SERVICES INC,17-Oct,11/13/2017,16175.0,AT&T SERVICES INC,1000.0,0.0,1000.0,0.0,0.0,0.0,0.0,0.0,0.0,0.0,1000.0,18790.0,Direct,,,View report (https://accesshub.pdc.wa.gov/node/37681),Technology,5711,House Senate Telecom Committees/WUTC
25316,37662-18284,37662,FE,17398,BOSWELL CONSULTING*,Employer,18284,WA ALLIANCE OF BOYS & GIRLS CLUB,17-Oct,11/13/2017,16204.0,WA ALLIANCE OF BOYS & GIRLS CLUB,2000.0,0.0,2000.0,0.0,0.0,0.0,0.0,0.0,93.75,93.75,2093.75,18284.0,Direct,,,View report (https://accesshub.pdc.wa.gov/node/37662),Human services,various,various
25317,37655-18423,37655,FE,17436,ART CASTLE,Employer,18423,BUILDING INDUSTRY ASSN OF WA,17-Oct,11/13/2017,16215.0,BUILDING INDUSTRY ASSN OF WA,500.0,0.0,500.0,0.0,0.0,0.0,0.0,0.0,0.0,0.0,500.0,18423.0,Direct,,,View report (https://accesshub.pdc.wa.gov/node/37655),State government,Hirst,"Senate, House"
25318,37656-18970,37656,FE,17642,JAN HIMEBAUGH,Employer,18970,BUILDING INDUSTRY ASSN OF WA,17-Oct,11/13/2017,16215.0,BUILDING INDUSTRY ASSN OF WA,500.0,0.0,500.0,0.0,0.0,0.0,0.0,0.0,0.0,0.0,500.0,18970.0,Direct,,,View report (https://accesshub.pdc.wa.gov/node/37656),State government,Hirst/Water,"Senate, House, Governor's Office, DOE"
25321,37698-28370,37698,FE,17828,"Debora Munguia, Capitol Consulting",Employer,28370,CITY OF CHENEY (JENNIFER ZIEGLER),17-Oct,11/13/2017,16277.0,CITY OF CHENEY,1000.0,0.0,1000.0,0.0,0.0,0.0,0.0,0.0,0.0,0.0,1000.0,28370.0,Subcontract,18108.0,JENNIFER ZIEGLER,View report (https://accesshub.pdc.wa.gov/node/37698),,,
25322,37680-18540,37680,FE,17480,SARAH M DAVENPORT-SMITH,Employer,18540,CITY OF GRANITE FALLS,16-Oct,11/13/2017,16285.0,CITY OF GRANITE FALLS,886.0,0.0,886.0,0.0,0.0,0.0,0.0,0.0,0.0,0.0,886.0,18540.0,Direct,,,View report (https://accesshub.pdc.wa.gov/node/37680),Local government,Capital Budget,39th District Legislators
25323,37691-18424,37691,FE,17437,Scott Cave,Employer,18424,CITY OF QUINCY,17-Oct,11/13/2017,16305.0,CITY OF QUINCY,832.5,0.0,832.5,0.0,0.0,0.0,0.0,0.0,0.0,0.0,832.5,18424.0,Direct,,,View report (https://accesshub.pdc.wa.gov/node/37691),Environmental Affairs - natural resources - parks,Allow publicly owned industrial wastewater facilities to compete for SRF,Sen Warnick
25324,37534-19748,37534,FE,18021,LISA THATCHER,Employer,19748,CLARK PUBLIC UTILITIES,17-Oct,11/13/2017,16324.0,CLARK PUBLIC UTILITIES,4500.0,0.0,4500.0,39.32,0.0,0.0,0.0,0.0,0.0,39.32,4539.32,19748.0,Direct,,,View report (https://accesshub.pdc.wa.gov/node/37534),Energy and utilities,Energy and Utility issues,Dept of Commerce; Dept of Ecology
25325,37534-19749,37534,FE,18021,LISA THATCHER,Employer,19749,CLIPPER NAVIGATION,17-Oct,11/13/2017,16328.0,CLIPPER NAVIGATION,2000.0,0.0,2000.0,39.32,0.0,0.0,0.0,0.0,0.0,39.32,2039.32,19749.0,Direct,,,View report (https://accesshub.pdc.wa.gov/node/37534),,,
25326,37651-19950,37651,FE,17553,JESSICA FORTESCUE,Employer,19950,CNSI (PIERCE CONSULTING SVCS LLC*),17-Oct,11/13/2017,16330.0,CNSI,281.91,0.0,281.91,0.0,0.0,0.0,0.0,0.0,0.0,0.0,281.91,19950.0,Subcontract,17597.0,PIERCE CONSULTING SVCS LLC*,View report (https://accesshub.pdc.wa.gov/node/37651),,,
25327,37676-18141,37676,FE,17337,MICHAEL ALTHAUSER,Employer,18141,COLUMBIA LEGAL SERVICES,17-Oct,11/13/2017,16338.0,COLUMBIA LEGAL SERVICES,982.5,0.0,982.5,0.0,0.0,0.0,0.0,0.0,0.0,0.0,982.5,18141.0,Direct,,,View report (https://accesshub.pdc.wa.gov/node/37676),Human services,Public benefits issues including TANF and HEN/ABD,"Rep. Sullivan, both chambers legislative committees for human services, Economic Services Administration"
25328,37651-19984,37651,FE,17553,JESSICA FORTESCUE,Employer,19984,COMCAST CABLE COMMUNICATIONS (PIERCE CONSULTING SVCS LLC*),17-Oct,11/13/2017,16344.0,COMCAST CABLE COMMUNICATIONS,375.88,0.0,375.88,0.0,0.0,0.0,0.0,0.0,0.0,0.0,375.88,19984.0,Subcontract,17597.0,PIERCE CONSULTING SVCS LLC*,View report (https://accesshub.pdc.wa.gov/node/37651),,,
25330,37534-19750,37534,FE,18021,LISA THATCHER,Employer,19750,DENTA QUEST,17-Oct,11/13/2017,16386.0,DENTA QUEST,5859.99,0.0,5859.99,140.01,0.0,0.0,0.0,0.0,0.0,140.01,6000.0,19750.0,Direct,,,View report (https://accesshub.pdc.wa.gov/node/37534),Fiscal,Dental Medicaid,HCA
25332,37651-19975,37651,FE,17553,JESSICA FORTESCUE,Employer,19975,RUSSELL INVESTMENT GROUP (PIERCE CONSULTING SVCS LLC*),17-Oct,11/13/2017,16456.0,RUSSELL INVESTMENT GROUP,281.91,0.0,281.91,0.0,0.0,0.0,0.0,0.0,0.0,0.0,281.91,19975.0,Subcontract,17597.0,PIERCE CONSULTING SVCS LLC*,View report (https://accesshub.pdc.wa.gov/node/37651),,,
25333,37534-19751,37534,FE,18021,LISA THATCHER,Employer,19751,GLAXO SMITHKLINE,17-Oct,11/13/2017,16473.0,GLAXO SMITHKLINE,4448.04,0.0,4448.04,42.37,0.0,0.0,0.0,0.0,0.0,42.37,4490.41,19751.0,Direct,,,View report (https://accesshub.pdc.wa.gov/node/37534),Environmental Affairs - natural resources - parks,Healthcare and pharma issues,Dept of Health; HCA
25334,37662-18285,37662,FE,17398,BOSWELL CONSULTING*,Employer,18285,GREATER SEATTLE CHAMBER OF COMMERCE,17-Oct,11/13/2017,16483.0,GREATER SEATTLE CHAMBER OF COMMERCE,5000.0,0.0,5000.0,0.0,0.0,0.0,0.0,0.0,93.75,93.75,5093.75,18285.0,Direct,,,View report (https://accesshub.pdc.wa.gov/node/37662),Local government,various,various
25335,37651-20053,37651,FE,17553,JESSICA FORTESCUE,Employer,20053,HONDA NORTH AMERICA (THRU MULTISTATE ASSOCIATES LLC) (MCBRIDE PUBLIC AFFAIRS LLC*),17-Oct,11/13/2017,16510.0,HONDA NORTH AMERICA (THRU MULTISTATE ASSOCIATES LLC),1167.0,0.0,1167.0,0.0,0.0,0.0,0.0,0.0,0.0,0.0,1167.0,20053.0,Subcontract,17779.0,MCBRIDE PUBLIC AFFAIRS LLC*,View report (https://accesshub.pdc.wa.gov/node/37651),,,
25336,37665-19444,37665,FE,17880,Maxima Patashnik,Employer,19444,JEWISH FEDERATION OF GREATER SEATTLE,17-Oct,11/13/2017,16559.0,JEWISH FEDERATION OF GREATER SEATTLE,5583.0,0.0,5583.0,0.0,0.0,0.0,0.0,0.0,0.0,0.0,5583.0,19444.0,Direct,,,View report (https://accesshub.pdc.wa.gov/node/37665),Law and justice,anti-Semitism,Puget Sound Legislators - Leading Roundtable Meetings with Community Members
25337,37651-19965,37651,FE,17553,JESSICA FORTESCUE,Employer,19965,McDonalds Corporation (MCBRIDE PUBLIC AFFAIRS LLC*),17-Oct,11/13/2017,16625.0,McDonalds Corporation,1167.0,0.0,1167.0,0.0,0.0,0.0,0.0,0.0,0.0,0.0,1167.0,19965.0,Subcontract,17779.0,MCBRIDE PUBLIC AFFAIRS LLC*,View report (https://accesshub.pdc.wa.gov/node/37651),,,
25338,37651-20041,37651,FE,17553,JESSICA FORTESCUE,Employer,20041,MICROSOFT CORP (PIERCE CONSULTING SVCS LLC*),17-Oct,11/13/2017,16636.0,MICROSOFT CORP,375.88,0.0,375.88,0.0,0.0,0.0,0.0,0.0,0.0,0.0,375.88,20041.0,Subcontract,17597.0,PIERCE CONSULTING SVCS LLC*,View report (https://accesshub.pdc.wa.gov/node/37651),,,
25339,37652-19587,37652,FE,17950,SEIB POLICY & PUBLIC AFFAIRS*,Employer,19587,Molina Healthcare Inc,17-Oct,11/13/2017,16641.0,Molina Healthcare Inc,9000.0,0.0,9000.0,618.82,0.0,2000.0,0.0,0.0,0.0,2618.82,11618.82,19587.0,Direct,,,View report (https://accesshub.pdc.wa.gov/node/37652),Health Care,various,various
25340,37662-18287,37662,FE,17398,BOSWELL CONSULTING*,Employer,18287,NORTHWEST AUTOMATIC VENDING ASSN,17-Oct,11/13/2017,16699.0,NORTHWEST AUTOMATIC VENDING ASSN,1500.0,0.0,1500.0,0.0,0.0,0.0,0.0,0.0,93.75,93.75,1593.75,18287.0,Direct,,,View report (https://accesshub.pdc.wa.gov/node/37662),Business and consumer affairs,various,various
25341,37662-18288,37662,FE,17398,BOSWELL CONSULTING*,Employer,18288,NUCOR STEEL SEATTLE INC,17-Oct,11/13/2017,16727.0,NUCOR STEEL SEATTLE INC,4000.0,0.0,4000.0,0.0,0.0,0.0,0.0,0.0,93.75,93.75,4093.75,18288.0,Direct,,,View report (https://accesshub.pdc.wa.gov/node/37662),Business and consumer affairs,various,various
25342,37658-18921,37658,FE,17606,TOM GURR,Employer,18921,PACIFIC TECHNOLOGY ALLIANCE,17-Oct,11/13/2017,16759.0,PACIFIC TECHNOLOGY ALLIANCE,1320.0,0.0,1320.0,0.0,0.0,0.0,0.0,0.0,0.0,0.0,1320.0,18921.0,Direct,,,View report (https://accesshub.pdc.wa.gov/node/37658),Technology,Telecommunications,"House Technology & Economic Development Committee, Senate Energy, Environment & Telecommunications Committee"
25343,37652-19588,37652,FE,17950,SEIB POLICY & PUBLIC AFFAIRS*,Employer,19588,Paradigm Outcomes,17-Oct,11/13/2017,16761.0,Paradigm Outcomes,1500.0,0.0,1500.0,39.14,0.0,0.0,0.0,0.0,0.0,39.14,1539.14,19588.0,Direct,,,View report (https://accesshub.pdc.wa.gov/node/37652),,,
25344,37662-18289,37662,FE,17398,BOSWELL CONSULTING*,Employer,18289,MC Construction,17-Oct,11/13/2017,16790.0,MC Construction,4000.0,0.0,4000.0,0.0,0.0,0.0,0.0,0.0,93.75,93.75,4093.75,18289.0,Direct,,,View report (https://accesshub.pdc.wa.gov/node/37662),Business and consumer affairs,various,various
25345,37534-19753,37534,FE,18021,LISA THATCHER,Employer,19753,PORT OF TACOMA,17-Oct,11/13/2017,16806.0,PORT OF TACOMA,2957.63,0.0,2957.63,42.37,0.0,0.0,0.0,0.0,0.0,42.37,3000.0,19753.0,Direct,,,View report (https://accesshub.pdc.wa.gov/node/37534),Fiscal,MTCA Funding,Department of Ecology
25346,37699-19126,37699,FE,17738,WALTRAUT B LEHMANN,Employer,19126,PREMERA BLUE CROSS,17-Oct,11/13/2017,16812.0,PREMERA BLUE CROSS,868.0,0.0,868.0,165.86,0.0,0.0,0.0,0.0,0.0,165.86,1033.86,19126.0,Direct,,,View report (https://accesshub.pdc.wa.gov/node/37699),Health Care,Misc Regulatory Issues,Office of the Insurance Commissioner
25348,37652-19589,37652,FE,17950,SEIB POLICY & PUBLIC AFFAIRS*,Employer,19589,RURAL HEALTH CLINIC ASSN,17-Oct,11/13/2017,16866.0,RURAL HEALTH CLINIC ASSN,2000.0,0.0,2000.0,0.0,0.0,0.0,0.0,0.0,0.0,0.0,2000.0,19589.0,Direct,,,View report (https://accesshub.pdc.wa.gov/node/37652),Health Care,various,various
25349,37511-19775,37511,FE,18034,The Nichols Group Government Relations LLC,Employer,19775,SCHNITZER STEEL INDUSTRIES INC,17-Oct,11/13/2017,16878.0,SCHNITZER STEEL INDUSTRIES INC,3804.0,0.0,3804.0,0.0,0.0,0.0,0.0,0.0,0.0,0.0,3804.0,19775.0,Direct,,,View report (https://accesshub.pdc.wa.gov/node/37511),Environmental Affairs - natural resources - parks,"Recycling, manufacturing","Environmental committees, Dept of Ecology"
25350,37662-18290,37662,FE,17398,BOSWELL CONSULTING*,Employer,18290,Washington Solar Energy Industries Association,17-Oct,11/13/2017,16929.0,Washington Solar Energy Industries Association,4000.0,0.0,4000.0,0.0,0.0,0.0,0.0,0.0,93.75,93.75,4093.75,18290.0,Direct,,,View report (https://accesshub.pdc.wa.gov/node/37662),Energy and utilities,various,various
25351,37511-27887,37511,FE,18034,The Nichols Group Government Relations LLC,Employer,27887,Toy Association (GRANT NELSON),17-Oct,11/13/2017,16988.0,Toy Association,2500.0,0.0,2500.0,0.0,0.0,0.0,0.0,0.0,0.0,0.0,2500.0,27887.0,Subcontract,17840.0,GRANT NELSON,View report (https://accesshub.pdc.wa.gov/node/37511),,,
25352,37662-18291,37662,FE,17398,BOSWELL CONSULTING*,Employer,18291,Uber Technologies Inc and Affiliates,17-Oct,11/13/2017,17001.0,Uber Technologies Inc and Affiliates,5000.0,0.0,5000.0,0.0,0.0,0.0,0.0,0.0,93.75,93.75,5093.75,18291.0,Direct,,,View report (https://accesshub.pdc.wa.gov/node/37662),Transportation,various,various
25353,37662-28159,37662,FE,17398,BOSWELL CONSULTING*,Employer,28159,VALLEY MEDICAL CENTER,17-Oct,11/13/2017,17027.0,VALLEY MEDICAL CENTER,7000.0,0.0,7000.0,0.0,0.0,0.0,0.0,0.0,93.75,93.75,7093.75,28159.0,Direct,,,View report (https://accesshub.pdc.wa.gov/node/37662),Health Care,various,various
25354,37511-19776,37511,FE,18034,The Nichols Group Government Relations LLC,Employer,19776,ARROW LAUNCH SERVICES INC,17-Oct,11/13/2017,17034.0,ARROW LAUNCH SERVICES INC,1000.0,0.0,1000.0,0.0,0.0,0.0,0.0,0.0,0.0,0.0,1000.0,19776.0,Direct,,,View report (https://accesshub.pdc.wa.gov/node/37511),Transportation,Marine transportation / services,Transportation / environmental committees
25355,37662-18292,37662,FE,17398,BOSWELL CONSULTING*,Employer,18292,VIGOR INDUSTRIAL,17-Oct,11/13/2017,17035.0,VIGOR INDUSTRIAL,4500.0,0.0,4500.0,65.88,0.0,0.0,0.0,0.0,93.75,159.63,4659.63,18292.0,Direct,,,View report (https://accesshub.pdc.wa.gov/node/37662),Business and consumer affairs,various,various
25356,37651-20007,37651,FE,17553,JESSICA FORTESCUE,Employer,20007,VULCAN INC (PIERCE CONSULTING SVCS LLC*),17-Oct,11/13/2017,17039.0,VULCAN INC,375.88,0.0,375.88,0.0,0.0,0.0,0.0,0.0,0.0,0.0,375.88,20007.0,Subcontract,17597.0,PIERCE CONSULTING SVCS LLC*,View report (https://accesshub.pdc.wa.gov/node/37651),,,
25357,37652-19591,37652,FE,17950,SEIB POLICY & PUBLIC AFFAIRS*,Employer,19591,WA ACADEMY OF FAMILY PHYSICIANS,17-Oct,11/13/2017,17052.0,WA ACADEMY OF FAMILY PHYSICIANS,3000.0,0.0,3000.0,0.0,0.0,0.0,0.0,0.0,0.0,0.0,3000.0,19591.0,Direct,,,View report (https://accesshub.pdc.wa.gov/node/37652),Health Care,various,various
25358,37534-19756,37534,FE,18021,LISA THATCHER,Employer,19756,WA CITIES INSURANCE AUTHORITY,17-Oct,11/13/2017,17081.0,WA CITIES INSURANCE AUTHORITY,2000.0,0.0,2000.0,0.0,0.0,0.0,0.0,0.0,0.0,0.0,2000.0,19756.0,Direct,,,View report (https://accesshub.pdc.wa.gov/node/37534),,,
25359,37662-18293,37662,FE,17398,BOSWELL CONSULTING*,Employer,18293,CLEANTECH ALLIANCE,17-Oct,11/13/2017,17088.0,CLEANTECH ALLIANCE,4000.0,0.0,4000.0,0.0,0.0,0.0,0.0,0.0,93.75,93.75,4093.75,18293.0,Direct,,,View report (https://accesshub.pdc.wa.gov/node/37662),Energy and utilities,various,various
25360,37511-19778,37511,FE,18034,The Nichols Group Government Relations LLC,Employer,19778,WA CHRISTMAS TREE GROWERS,17-Oct,11/13/2017,17090.0,WA CHRISTMAS TREE GROWERS,750.0,0.0,750.0,0.0,0.0,0.0,0.0,0.0,0.0,0.0,750.0,19778.0,Direct,,,View report (https://accesshub.pdc.wa.gov/node/37511),Agriculture,"Land use, taxation","Agricultural committees, Dept of Agriculture"
25361,37651-20010,37651,FE,17553,JESSICA FORTESCUE,Employer,20010,Delta Dental of WA (PIERCE CONSULTING SVCS LLC*),17-Oct,11/13/2017,17096.0,Delta Dental of WA,281.91,0.0,281.91,0.0,0.0,0.0,0.0,0.0,0.0,0.0,281.91,20010.0,Subcontract,17597.0,PIERCE CONSULTING SVCS LLC*,View report (https://accesshub.pdc.wa.gov/node/37651),,,
25362,37534-19758,37534,FE,18021,LISA THATCHER,Employer,19758,WA INTERSCHOLASTIC ACTIVITIES ASSN,17-Oct,11/13/2017,17131.0,WA INTERSCHOLASTIC ACTIVITIES ASSN,5000.0,0.0,5000.0,276.43,11.55,0.0,0.0,0.0,0.0,287.98,5287.98,19758.0,Direct,,,View report (https://accesshub.pdc.wa.gov/node/37534),Education,Issues that impact student athletes and activities,Education
25363,37511-19779,37511,FE,18034,The Nichols Group Government Relations LLC,Employer,19779,COMMUNITY BANKERS OF WA,17-Oct,11/13/2017,17132.0,COMMUNITY BANKERS OF WA,3000.0,0.0,3000.0,0.0,0.0,0.0,0.0,0.0,0.0,0.0,3000.0,19779.0,Direct,,,View report (https://accesshub.pdc.wa.gov/node/37511),Financial institutions and insurance,"Banking, business environment","Financial institutions committees, Dept of Financial Institutions, Office of State Treasurer"
25364,37651-27760,37651,FE,17553,JESSICA FORTESCUE,Employer,27760,Washington Mortgage Bankers Association,17-Oct,11/13/2017,17147.0,Washington Mortgage Bankers Association,2500.0,0.0,2500.0,0.0,0.0,0.0,0.0,0.0,0.0,0.0,2500.0,27760.0,Direct,,,View report (https://accesshub.pdc.wa.gov/node/37651),Financial institutions and insurance,"Banking, Housing","Fiscal, DFI, DOR"
25366,37671-19038,37671,FE,17677,ERIC D JOHNSON,Employer,19038,Washington Public Ports Association,17-Oct,11/13/2017,17174.0,Washington Public Ports Association,1366.67,0.0,1366.67,0.0,0.0,0.0,0.0,0.0,0.0,0.0,1366.67,19038.0,Direct,,,View report (https://accesshub.pdc.wa.gov/node/37671),Local government,Port Governance,Governmental Operations
25367,37672-19379,37672,FE,17859,GERALD J O'KEEFE,Employer,19379,Washington Public Ports Association,17-Oct,11/13/2017,17174.0,Washington Public Ports Association,987.08,0.0,987.08,0.0,0.0,0.0,0.0,0.0,0.0,0.0,987.08,19379.0,Direct,,,View report (https://accesshub.pdc.wa.gov/node/37672),Local government,Port Governance,Governmental Operations
25368,37674-19763,37674,FE,18025,JAMES THOMPSON,Employer,19763,Washington Public Ports Association,17-Oct,11/13/2017,17174.0,Washington Public Ports Association,995.67,0.0,995.67,0.0,294.05,0.0,0.0,0.0,0.0,294.05,1289.72,19763.0,Direct,,,View report (https://accesshub.pdc.wa.gov/node/37674),Local government,Port Governance,Governmental Operations
25369,37669-27537,37669,FE,27536,Christopher Herman,Employer,27537,Washington Public Ports Association,17-Oct,11/13/2017,17174.0,Washington Public Ports Association,854.17,0.0,854.17,0.0,0.0,0.0,0.0,0.0,0.0,0.0,854.17,27537.0,Direct,,,View report (https://accesshub.pdc.wa.gov/node/37669),Local government,Port Governance,Governmental Operations
25370,37651-19949,37651,FE,17553,JESSICA FORTESCUE,Employer,19949,WA ROUNDTABLE (PIERCE CONSULTING SVCS LLC*),17-Oct,11/13/2017,17178.0,WA ROUNDTABLE,204.39,0.0,204.39,0.0,0.0,0.0,0.0,0.0,0.0,0.0,204.39,19949.0,Subcontract,17597.0,PIERCE CONSULTING SVCS LLC*,View report (https://accesshub.pdc.wa.gov/node/37651),,,
25371,37534-19759,37534,FE,18021,LISA THATCHER,Employer,19759,WA SOCIETY OF CPA'S,17-Oct,11/13/2017,17188.0,WA SOCIETY OF CPA'S,6000.0,0.0,6000.0,81.69,0.0,0.0,0.0,0.0,0.0,81.69,6081.69,19759.0,Direct,,,View report (https://accesshub.pdc.wa.gov/node/37534),Business and consumer affairs,professional issues that impact CPA's,Department of Revenue
25372,37662-18294,37662,FE,17398,BOSWELL CONSULTING*,Employer,18294,WA BEVERAGE ASSN,17-Oct,11/13/2017,17190.0,WA BEVERAGE ASSN,5000.0,0.0,5000.0,2454.16,0.0,0.0,0.0,0.0,93.75,2547.91,7547.91,18294.0,Direct,,,View report (https://accesshub.pdc.wa.gov/node/37662),Business and consumer affairs,various,various
25373,37654-19738,37654,FE,18018,KRISTOPHER I TEFFT,Employer,19738,WSIA,17-Oct,11/13/2017,17194.0,WSIA,4000.0,0.0,4000.0,0.0,0.0,0.0,0.0,0.0,0.0,0.0,4000.0,19738.0,Direct,,,View report (https://accesshub.pdc.wa.gov/node/37654),Labor,Workers Comp & Safety,House and Senate Labor Committees
25374,37651-19995,37651,FE,17553,JESSICA FORTESCUE,Employer,19995,WA WHOLESALE DRUGGIST ASSN (PIERCE CONSULTING SVCS LLC*),17-Oct,11/13/2017,17208.0,WA WHOLESALE DRUGGIST ASSN,258.42,0.0,258.42,0.0,0.0,0.0,0.0,0.0,0.0,0.0,258.42,19995.0,Subcontract,17597.0,PIERCE CONSULTING SVCS LLC*,View report (https://accesshub.pdc.wa.gov/node/37651),,,
25375,37703-18868,37703,FE,17583,JAY GORDON,Employer,18868,WA ST DAIRY FEDERATION,17-Oct,11/13/2017,17239.0,WA ST DAIRY FEDERATION,5000.0,0.0,5000.0,0.0,0.0,0.0,0.0,0.0,0.0,0.0,5000.0,18868.0,Direct,,,View report (https://accesshub.pdc.wa.gov/node/37703),Agriculture,All dairy issues,Legislature and State Agencies
25376,37700-19906,37700,FE,18099,DAN WOOD,Employer,19906,WA ST DAIRY FEDERATION,17-Oct,11/13/2017,17239.0,WA ST DAIRY FEDERATION,5000.0,0.0,5000.0,0.0,0.0,0.0,0.0,0.0,0.0,0.0,5000.0,19906.0,Direct,,,View report (https://accesshub.pdc.wa.gov/node/37700),Agriculture,All dairy issues,Legislature and State Agencies
25378,37534-19760,37534,FE,18021,LISA THATCHER,Employer,19760,WA ST HOSPITAL ASSN,17-Oct,11/13/2017,17252.0,WA ST HOSPITAL ASSN,10500.0,0.0,10500.0,232.74,0.0,0.0,0.0,0.0,0.0,232.74,10732.74,19760.0,Direct,,,View report (https://accesshub.pdc.wa.gov/node/37534),Health Care,Hospital specific issues,Dept of Health; Dept of Ecology; Dept of L&I; HCA
25379,37662-28160,37662,FE,17398,BOSWELL CONSULTING*,Employer,28160,"WASTE MANAGEMENT OF WASHINGTON, INC.",17-Oct,11/13/2017,17260.0,"WASTE MANAGEMENT OF WASHINGTON, INC.",5850.0,0.0,5850.0,0.0,0.0,0.0,0.0,0.0,93.75,93.75,5943.75,28160.0,Direct,,,View report (https://accesshub.pdc.wa.gov/node/37662),Energy and utilities,various,various
25380,37698-28371,37698,FE,17828,"Debora Munguia, Capitol Consulting",Employer,28371,WA ST PATROL LIEUTENANTS AND CAPTAINS ASSN (JENNIFER ZIEGLER),17-Oct,11/13/2017,17274.0,WA ST PATROL LIEUTENANTS AND CAPTAINS ASSN,1000.0,0.0,1000.0,0.0,0.0,0.0,0.0,0.0,0.0,0.0,1000.0,28371.0,Subcontract,18108.0,JENNIFER ZIEGLER,View report (https://accesshub.pdc.wa.gov/node/37698),,,
25381,37649-19019,37649,FE,17671,CATHERINE E JACOY,Employer,19019,WINE INSTITUTE,17-Oct,11/13/2017,17312.0,WINE INSTITUTE,1500.0,0.0,1500.0,0.0,0.0,0.0,0.0,0.0,0.0,0.0,1500.0,19019.0,Direct,,,View report (https://accesshub.pdc.wa.gov/node/37649),Business and consumer affairs,Wine related rule changes,Washington State Liquor and Canibus Board
25382,37698-23618,37698,FE,17828,"Debora Munguia, Capitol Consulting",Employer,23618,BIG BROTHERS BIG SISTERS,17-Oct,11/13/2017,23606.0,BIG BROTHERS BIG SISTERS,4167.0,0.0,4167.0,0.0,0.0,0.0,0.0,0.0,0.0,0.0,4167.0,23618.0,Direct,,,View report (https://accesshub.pdc.wa.gov/node/37698),Human services,At risk children,OSPI
25383,37698-25044,37698,FE,17828,"Debora Munguia, Capitol Consulting",Employer,25044,Pacific Education Institute,17-Oct,11/13/2017,25039.0,Pacific Education Institute,1500.0,0.0,1500.0,0.0,0.0,0.0,0.0,0.0,0.0,0.0,1500.0,25044.0,Direct,,,View report (https://accesshub.pdc.wa.gov/node/37698),,,
25384,37651-27754,37651,FE,17553,JESSICA FORTESCUE,Employer,27754,American Rental Assn (Thru MultiState) (MCBRIDE PUBLIC AFFAIRS LLC*),17-Oct,11/13/2017,25595.0,American Rental Assn (Thru MultiState),1166.0,0.0,1166.0,0.0,0.0,0.0,0.0,0.0,0.0,0.0,1166.0,27754.0,Subcontract,17779.0,MCBRIDE PUBLIC AFFAIRS LLC*,View report (https://accesshub.pdc.wa.gov/node/37651),,,
25385,37662-26487,37662,FE,17398,BOSWELL CONSULTING*,Employer,26487,Advantage Capital,17-Oct,11/13/2017,26331.0,Advantage Capital,3000.0,0.0,3000.0,0.0,0.0,0.0,0.0,0.0,93.75,93.75,3093.75,26487.0,Direct,,,View report (https://accesshub.pdc.wa.gov/node/37662),Business and consumer affairs,various,various
25386,37534-26749,37534,FE,18021,LISA THATCHER,Employer,26749,The Northwest Seaport Alliance,17-Oct,11/13/2017,28007.0,The Northwest Seaport Alliance,5000.0,0.0,5000.0,0.0,0.0,0.0,0.0,0.0,0.0,0.0,5000.0,26749.0,Direct,,,View report (https://accesshub.pdc.wa.gov/node/37534),Fiscal,MTCA Funding,Department of Ecology
25387,37698-29216,37698,FE,17828,"Debora Munguia, Capitol Consulting",Employer,29216,Thurston County (JENNIFER ZIEGLER),17-Oct,11/13/2017,29205.0,Thurston County,1500.0,0.0,1500.0,0.0,0.0,0.0,0.0,0.0,0.0,0.0,1500.0,29216.0,Subcontract,18108.0,JENNIFER ZIEGLER,View report (https://accesshub.pdc.wa.gov/node/37698),,,
25388,37662-31406,37662,FE,17398,BOSWELL CONSULTING*,Employer,31406,Nippon Paper Industries USA,17-Oct,11/13/2017,31405.0,Nippon Paper Industries USA,3125.0,0.0,3125.0,0.0,0.0,0.0,0.0,0.0,93.75,93.75,3218.75,31406.0,Direct,,,View report (https://accesshub.pdc.wa.gov/node/37662),Agriculture,various,various
25389,37466-33644,37466,FE,17787,Patricia McDaid-O'Neill,Employer,33644,Sunovion Pharmaceuticals Inc.,17-Oct,11/13/2017,33133.0,Sunovion Pharmaceuticals Inc.,2000.0,0.0,2000.0,0.0,116.82,2000.0,0.0,0.0,0.0,2116.82,4116.82,33644.0,Direct,,,View report (https://accesshub.pdc.wa.gov/node/37466),Health Care,Access to Care,Legislature
25390,37652-34245,37652,FE,17950,SEIB POLICY & PUBLIC AFFAIRS*,Employer,34245,Avesis Incorporated,17-Oct,11/13/2017,34212.0,Avesis Incorporated,6000.0,0.0,6000.0,128.22,0.0,0.0,0.0,0.0,0.0,128.22,6128.22,34245.0,Direct,,,View report (https://accesshub.pdc.wa.gov/node/37652),Health Care,various,various
