,id,report_number,origin,filer_id,filer_name,type,funding_source_id,funding_source_name,filing_period,receipt_date,employer_id,employer_name,compensation,sub_lobbyist_compensation,net_compensation,personal_expenses,entertainment,contributions,advertising,political_ads,other,total_expenses,net_total,employment_registration_id,employment_type,contractor_id,contractor_name,url,legislation_subject_matter,issue_bill_number,committee_lobbied
35000,43941-19019,43941,FE,17671,CATHERINE E JACOY,Employer,19019,WINE INSTITUTE,18-Apr,5/15/2018,17312.0,WINE INSTITUTE,1500.0,0.0,1500.0,31.07,0.0,0.0,0.0,0.0,0.0,31.07,1531.07,19019.0,Direct,,,View report (https://accesshub.pdc.wa.gov/node/43941),Business and consumer affairs,Washington State Liquor and Cannabis Board proposed rules relating to domestic wineries,Staff of Washington State Liquor and Cannabis Board
35001,43931-18440,43931,FE,17448,"DONNA CHRISTENSEN, PACIFIC GOVERNMENT AFFAIRS",Employer,18440,Washington State Alliance of YMCAs,18-Apr,5/15/2018,17323.0,Washington State Alliance of YMCAs,3200.0,0.0,3200.0,0.0,0.0,0.0,0.0,0.0,0.0,0.0,3200.0,18440.0,Direct,,,View report (https://accesshub.pdc.wa.gov/node/43931),Human services,Budget,Appropriations
35002,43986-25311,43986,FE,25302,Northwest Solutions,Employer,25311,Public Works  Board,18-Apr,5/15/2018,25309.0,Public Works  Board,4000.0,0.0,4000.0,0.0,0.0,0.0,0.0,0.0,0.0,0.0,4000.0,25311.0,Direct,,,View report (https://accesshub.pdc.wa.gov/node/43986),,,
35003,43942-25407,43942,FE,17964,SCOTT C SIGMON,Employer,25407,"bluebird bio, Inc.",18-Apr,5/15/2018,25383.0,"bluebird bio, Inc.",4000.0,0.0,4000.0,0.0,0.0,0.0,0.0,0.0,0.0,0.0,4000.0,25407.0,Direct,,,View report (https://accesshub.pdc.wa.gov/node/43942),Health Care,Gene Therapy,House and Senate Health Care Committee Members
35004,43921-36623,43921,FE,27377,Ludeman Public Affairs,Employer,36623,Advantage Capital (GANO & ASSOC*),18-Apr,5/15/2018,26331.0,Advantage Capital,1500.0,0.0,1500.0,0.0,0.0,0.0,0.0,0.0,0.0,0.0,1500.0,36623.0,Subcontract,17565.0,GANO & ASSOC*,View report (https://accesshub.pdc.wa.gov/node/43921),,,
35005,43956-26837,43956,FE,17638,MORGAN HICKEL,Employer,26837,WA Hospitality Assn,18-Apr,5/15/2018,26557.0,WA Hospitality Assn,2800.0,0.0,2800.0,0.0,0.0,0.0,0.0,0.0,0.0,0.0,2800.0,26837.0,Direct,,,View report (https://accesshub.pdc.wa.gov/node/43956),State government,Tourism,All - Legislature
35006,43931-28248,43931,FE,17448,"DONNA CHRISTENSEN, PACIFIC GOVERNMENT AFFAIRS",Employer,28248,Washington Continuing Care Residents Association,18-Apr,5/15/2018,27296.0,Washington Continuing Care Residents Association,1000.0,0.0,1000.0,0.0,0.0,0.0,0.0,0.0,0.0,0.0,1000.0,28248.0,Direct,,,View report (https://accesshub.pdc.wa.gov/node/43931),Health Care,aging,Health Care
35007,43593-27670,43593,FE,17813,MILLENNIA PUBLIC AFFAIRS INC*,Employer,27670,"Jazz Pharmaceuticals, Inc. and its subsidiaries, including Greenwich Biosciences, Inc.",18-Apr,5/15/2018,27659.0,"Jazz Pharmaceuticals, Inc. and its subsidiaries, including Greenwich Biosciences, Inc.",3500.0,0.0,3500.0,0.0,0.0,0.0,0.0,0.0,0.0,0.0,3500.0,27670.0,Direct,,,View report (https://accesshub.pdc.wa.gov/node/43593),Business and consumer affairs,Business & Consumer Affairs,House Senate All
35008,43723-26749,43723,FE,18021,LISA THATCHER,Employer,26749,The Northwest Seaport Alliance,18-Apr,5/15/2018,28007.0,The Northwest Seaport Alliance,5000.0,0.0,5000.0,0.0,0.0,0.0,0.0,0.0,0.0,0.0,5000.0,26749.0,Direct,,,View report (https://accesshub.pdc.wa.gov/node/43723),Fiscal,MTCA Funding,Department of Ecology
35009,43666-28185,43666,FE,17885,Thomas A Perrick,Employer,28185,JPMorgan Chase Holdings LLC,18-Apr,5/15/2018,28184.0,JPMorgan Chase Holdings LLC,595.0,0.0,595.0,0.0,0.0,0.0,0.0,0.0,0.0,0.0,595.0,28185.0,Direct,,,View report (https://accesshub.pdc.wa.gov/node/43666),Financial institutions and insurance,,Economic Development
35010,43765-31391,43765,FE,17472,AHNE PLLC*,Employer,31391,Snoqualmie Tribe  (DAVOR GJURASIC),18-Apr,5/15/2018,31273.0,Snoqualmie Tribe,3541.66,0.0,3541.66,227.71,0.0,0.0,0.0,0.0,0.0,227.71,3769.37,31391.0,Subcontract,17575.0,DAVOR GJURASIC,View report (https://accesshub.pdc.wa.gov/node/43765),,,
35011,43959-37393,43959,FE,17659,HOLLY CHISA,Employer,37393,ChargePoint Inc,18-Mar,5/15/2018,37392.0,ChargePoint Inc,5000.0,0.0,5000.0,0.0,0.0,0.0,0.0,0.0,0.0,0.0,5000.0,37393.0,Direct,,,View report (https://accesshub.pdc.wa.gov/node/43959),Energy and utilities,Electric vehicles,"Legislature, Executive Office"
35012,43960-37393,43960,FE,17659,HOLLY CHISA,Employer,37393,ChargePoint Inc,18-Apr,5/15/2018,37392.0,ChargePoint Inc,5000.0,0.0,5000.0,0.0,0.0,0.0,0.0,0.0,0.0,0.0,5000.0,37393.0,Direct,,,View report (https://accesshub.pdc.wa.gov/node/43960),Energy and utilities,Electric vehicles,"Legislature, Executive Office"
35013,43992-38782,43992,FE,33757,Guillermo Rogel,Employer,38782,WA Student Association,18-Mar,5/15/2018,38781.0,WA Student Association,760.0,0.0,760.0,0.0,0.0,0.0,0.0,0.0,0.0,0.0,760.0,38782.0,Direct,,,View report (https://accesshub.pdc.wa.gov/node/43992),Education,SB 6514 (mental health) SB 6029 (Bill of Rights) SB 6593 (SNG Entitlement) ESHB 1513 (Pre-Reg 16-17) HB 2595 (AVR) HB 2367 (Child Care Taskforce) HB 1488 (Undoc) HB 1561 (OER) HB 1433 (S&A) HB 1169 (SOAR) SB 6021 (Same Day Vote) SB 6002 (VRA),"House Higher Education, Senate Higher Education, House Appropriations, and Senate Ways and Mean"
35014,43926-39087,43926,FE,36433,Sermonti Public Affairs,Employer,39087,"ReviverMx, Inc. (Bogard & Johnson LLC)",18-Apr,5/15/2018,39083.0,"ReviverMx, Inc.",2000.0,0.0,2000.0,0.0,0.0,0.0,0.0,0.0,0.0,0.0,2000.0,39087.0,Subcontract,17393.0,Bogard & Johnson LLC,View report (https://accesshub.pdc.wa.gov/node/43926),,,
35015,43877-39803,43877,FE,18100,KYLE WOODRING,Employer,39803,Affordable Communities Coalition,18-Apr,5/15/2018,39315.0,Affordable Communities Coalition,500.0,0.0,500.0,0.0,0.0,0.0,0.0,0.0,0.0,0.0,500.0,39803.0,Direct,,,View report (https://accesshub.pdc.wa.gov/node/43877),Business and consumer affairs,Manufactured Housing/Mobile Home Parks,Senate Ways & Means
35016,43723-42127,43723,FE,18021,LISA THATCHER,Employer,42127,Spark Therapeutics Inc.,18-Apr,5/15/2018,42126.0,Spark Therapeutics Inc.,6250.0,0.0,6250.0,0.0,0.0,0.0,0.0,0.0,0.0,0.0,6250.0,42127.0,Direct,,,View report (https://accesshub.pdc.wa.gov/node/43723),,,
35026,42221-29275,42221,FE,17693,Water Street Public Affairs LLC,Employer,29275,ABBOTT LABORATORIES,18-Feb,5/16/2018,16060.0,ABBOTT LABORATORIES,3333.33,0.0,3333.33,0.0,0.0,0.0,0.0,0.0,0.0,0.0,3333.33,29275.0,Direct,,,View report (https://accesshub.pdc.wa.gov/node/42221),Health Care,"Aging and Disability Task Force, Repairing Electronic Devices",House Technology & Economic Development Committee
35027,44020-29275,44020,FE,17693,Water Street Public Affairs LLC,Employer,29275,ABBOTT LABORATORIES,18-Apr,5/16/2018,16060.0,ABBOTT LABORATORIES,3333.33,-1549.85,1783.48,0.0,0.0,0.0,0.0,0.0,0.0,0.0,1783.48,29275.0,Direct,,,View report (https://accesshub.pdc.wa.gov/node/44020),Health Care,Senior malnutrtional issues,Aging and Disability Task Force
35028,44038-24862,44038,FE,18045,Amber Ulvenes,Employer,24862,ALZHEIMERS ASSN WA ST CHAPTER,18-Apr,5/16/2018,16086.0,ALZHEIMERS ASSN WA ST CHAPTER,1000.0,0.0,1000.0,0.0,0.0,0.0,0.0,0.0,0.0,0.0,1000.0,24862.0,Direct,,,View report (https://accesshub.pdc.wa.gov/node/44038),Health Care,FTE funding to support DAC,"Health Care & Appropriations Committees, Jt Selected Comm on Aging & Disability"
35029,44017-18131,44017,FE,17336,ALLIANCES NORTHWEST*,Employer,18131,AMAZON.COM SERVICES LLC,18-Apr,5/16/2018,16088.0,AMAZON.COM SERVICES LLC,10000.0,0.0,10000.0,0.0,0.0,0.0,0.0,0.0,0.0,0.0,10000.0,18131.0,Direct,,,View report (https://accesshub.pdc.wa.gov/node/44017),Technology,"Subject Matter, Issue, or Bill Number -- All matters relating to business, commercial development, the environment, internet, insurance, finance, retail, tax and transportation issues.","2) Legislative Committee or State Agency Considering Matter -- All committees of the Legislature, the Executive, CTED, DOE, DOH, DOR, DFI, DOT, DSHS, DNR, GA, the and the Secretary of State."
35030,44038-35034,44038,FE,18045,Amber Ulvenes,Employer,35034,AMERICAN ACADEMY OF PEDIATRICS-WA CHAPTER,18-Apr,5/16/2018,16090.0,AMERICAN ACADEMY OF PEDIATRICS-WA CHAPTER,2916.67,0.0,2916.67,0.0,0.0,0.0,0.0,0.0,0.0,0.0,2916.67,35034.0,Direct,,,View report (https://accesshub.pdc.wa.gov/node/44038),Health Care,"Medicaid reimbursement, children's mental health","HCA, Health Care Committees"
35035,44017-18132,44017,FE,17336,ALLIANCES NORTHWEST*,Employer,18132,BP AMERICA INC,18-Apr,5/16/2018,16139.0,BP AMERICA INC,8000.0,0.0,8000.0,185.74,142.96,0.0,0.0,0.0,0.0,328.7,8328.7,18132.0,Direct,,,View report (https://accesshub.pdc.wa.gov/node/44017),Business and consumer affairs,"Subject Matter, Issue, or Bill Number -- All matters relating to business, commercial development, the environment, energy, Hanford, health care, insurance, finance, retail, tax and transportation issues.","Legislative Committee or State Agency Considering Matter -- All committees of the Legislature, the Executive, DOE, DOH, DOR, DFI, DOT, DSHS, DNR, GA, the Insurance Commissioner, the Treasurer, and the Secretary of State."
35037,44018-35477,44018,FE,35236,Meg L Jones,Employer,35477,Association of Washington Healthcare Plans,18-Apr,5/16/2018,16169.0,Association of Washington Healthcare Plans,1500.0,0.0,1500.0,0.0,0.0,0.0,0.0,0.0,0.0,0.0,1500.0,35477.0,Direct,,,View report (https://accesshub.pdc.wa.gov/node/44018),Health Care,health care legislation implementation,Office of the Insurance Commissioner
35038,44004-27112,44004,FE,17338,AMBER CARTER GOVT RELATIONS LLC*,Employer,27112,BASEBALL CLUB OF SEATTLE (SEATTLE MARINERS) (RICK L WICKMAN),18-Apr,5/16/2018,16182.0,BASEBALL CLUB OF SEATTLE (SEATTLE MARINERS),2167.0,0.0,2167.0,0.0,0.0,0.0,0.0,0.0,0.0,0.0,2167.0,27112.0,Subcontract,18089.0,RICK L WICKMAN,View report (https://accesshub.pdc.wa.gov/node/44004),,,
35039,42221-26056,42221,FE,17693,Water Street Public Affairs LLC,Employer,26056,BENTON PUD,18-Feb,5/16/2018,16188.0,BENTON PUD,5100.0,0.0,5100.0,0.0,0.0,0.0,0.0,0.0,0.0,0.0,5100.0,26056.0,Direct,,,View report (https://accesshub.pdc.wa.gov/node/42221),Energy and utilities,"Broadband, Energy Independence Act, Carbon","House Technology & Economic Development Committee, Senate Energy Environment & Telecommunications"
35040,44020-26056,44020,FE,17693,Water Street Public Affairs LLC,Employer,26056,BENTON PUD,18-Apr,5/16/2018,16188.0,BENTON PUD,5100.0,0.0,5100.0,0.0,0.0,0.0,0.0,0.0,0.0,0.0,5100.0,26056.0,Direct,,,View report (https://accesshub.pdc.wa.gov/node/44020),Energy and utilities,"Broadband, Energy Independence Act, Carbon","House Technology & Economic Development Committee, Senate Energy Environment & Telecommunications"
35041,44009-18454,44009,FE,17453,Bill Clarke,Employer,18454,BIOTECHNOLOGY INNOVATION ORGANIZATION,18-Apr,5/16/2018,16193.0,BIOTECHNOLOGY INNOVATION ORGANIZATION,5000.0,0.0,5000.0,0.0,0.0,0.0,0.0,0.0,0.0,0.0,5000.0,18454.0,Direct,,,View report (https://accesshub.pdc.wa.gov/node/44009),Health Care,Drug pricing; drug takeback,H. Health Care; S. Health Care
35042,43999-18442,43999,FE,17450,CIVIC GROUP*,Employer,18442,CADMAN INC,18-Apr,5/16/2018,16218.0,CADMAN INC,1500.0,0.0,1500.0,0.0,0.0,0.0,0.0,0.0,0.0,0.0,1500.0,18442.0,Direct,,,View report (https://accesshub.pdc.wa.gov/node/43999),Transportation,Transportation,Transportation Committee
35043,43924-18158,43924,FE,17342,DAVID C ARBAUGH,Employer,18158,CHELAN CO PUBLIC UTILITY DIST #1,18-Apr,5/16/2018,16254.0,CHELAN CO PUBLIC UTILITY DIST #1,9000.0,0.0,9000.0,290.49,47.33,0.0,0.0,0.0,0.0,337.82,9337.82,18158.0,Direct,,,View report (https://accesshub.pdc.wa.gov/node/43924),Energy and utilities,Energy and Water,EWE
35044,43999-18443,43999,FE,17450,CIVIC GROUP*,Employer,18443,"CISCO SYSTEMS, INC.",18-Apr,5/16/2018,16265.0,"CISCO SYSTEMS, INC.",1500.0,0.0,1500.0,0.0,0.0,0.0,0.0,0.0,0.0,0.0,1500.0,18443.0,Direct,,,View report (https://accesshub.pdc.wa.gov/node/43999),Fiscal,Budget,Ways & Means Committee AND Capital Budget Committee
35045,43924-18159,43924,FE,17342,DAVID C ARBAUGH,Employer,18159,CITY OF RICHLAND,18-Apr,5/16/2018,16308.0,CITY OF RICHLAND,3000.0,0.0,3000.0,65.94,0.0,0.0,0.0,0.0,0.0,65.94,3065.94,18159.0,Direct,,,View report (https://accesshub.pdc.wa.gov/node/43924),Local government,Local Government,Government Operations Local
35046,44005-26311,44005,FE,17528,LUKE ESSER,Employer,26311,CITY OF SPOKANE,18-Apr,5/16/2018,16314.0,CITY OF SPOKANE,2500.0,0.0,2500.0,0.0,0.0,0.0,0.0,0.0,0.0,0.0,2500.0,26311.0,Direct,,,View report (https://accesshub.pdc.wa.gov/node/44005),Environmental Affairs - natural resources - parks,Parks,Sen. Ways & Means; House Capital Budget
35047,44009-38377,44009,FE,17453,Bill Clarke,Employer,38377,CITY OF SUMNER (WASHINGTON 2 ADVOCATES*),18-Apr,5/16/2018,16315.0,CITY OF SUMNER,5000.0,0.0,5000.0,0.0,0.0,0.0,0.0,0.0,0.0,0.0,5000.0,38377.0,Subcontract,18068.0,WASHINGTON 2 ADVOCATES*,View report (https://accesshub.pdc.wa.gov/node/44009),,,
35048,44004-27091,44004,FE,17338,AMBER CARTER GOVT RELATIONS LLC*,Employer,27091,COLUMBIA RIVER STEAMSHIP OPERATORS ASSN,18-Apr,5/16/2018,16341.0,COLUMBIA RIVER STEAMSHIP OPERATORS ASSN,1667.17,0.0,1667.17,0.0,0.0,0.0,0.0,0.0,0.0,0.0,1667.17,27091.0,Direct,,,View report (https://accesshub.pdc.wa.gov/node/44004),Environmental Affairs - natural resources - parks,various,"House Environment Comm., House Ag Comm., Senate Environment Comm, Senate Ag Comm"
35049,44009-18455,44009,FE,17453,Bill Clarke,Employer,18455,The Trust for Public Land,18-Apr,5/16/2018,16358.0,The Trust for Public Land,2750.0,0.0,2750.0,0.0,0.0,0.0,0.0,0.0,0.0,0.0,2750.0,18455.0,Direct,,,View report (https://accesshub.pdc.wa.gov/node/44009),Environmental Affairs - natural resources - parks,Parks; recreation; farm/forest preservation,H. Capital Budget; S. Ways & Means; H. Enviro; S. Local Gov; S. Nat. Resources
35050,43907-18480,43907,FE,17460,COMMUNICO*,Employer,18480,COSTCO WHOLESALE,18-Apr,5/16/2018,16370.0,COSTCO WHOLESALE,5000.0,0.0,5000.0,0.0,0.0,0.0,0.0,0.0,0.0,0.0,5000.0,18480.0,Direct,,,View report (https://accesshub.pdc.wa.gov/node/43907),Business and consumer affairs,Liquor,"S - Commerce, Labor & Sports and H- Commerce & Gaming"
35051,44017-18133,44017,FE,17336,ALLIANCES NORTHWEST*,Employer,18133,Delta Air Lines,18-Apr,5/16/2018,16385.0,Delta Air Lines,5000.0,0.0,5000.0,139.19,38.71,0.0,0.0,0.0,0.0,177.9,5177.9,18133.0,Direct,,,View report (https://accesshub.pdc.wa.gov/node/44017),Transportation,"Subject Matter, Issue, or Bill Number -- All matters relating to business, commercial development, the environment, energy, health care, insurance, finance, retail, tax and transportation issues.","Legislative Committee or State Agency Considering Matter -- All committees of the Legislature, the Executive, DOE, DOH, DOR, DFI, DOT, DSHS, DNR, GA, the Insurance Commissioner, the Treasurer, and the Secretary of State."
35052,43999-18444,43999,FE,17450,CIVIC GROUP*,Employer,18444,EBAY INC,18-Apr,5/16/2018,16402.0,EBAY INC,5500.0,0.0,5500.0,0.0,0.0,0.0,0.0,0.0,0.0,0.0,5500.0,18444.0,Direct,,,View report (https://accesshub.pdc.wa.gov/node/43999),Fiscal,Tax issues,Ways & Means Committee AND Appropriations Committee
35053,43998-19271,43998,FE,17808,NATE MILES,Employer,19271,ELI LILLY & COMPANY,18-Apr,5/16/2018,16410.0,ELI LILLY & COMPANY,1500.0,0.0,1500.0,0.0,0.0,0.0,0.0,0.0,0.0,0.0,1500.0,19271.0,Direct,,,View report (https://accesshub.pdc.wa.gov/node/43998),Human services,Drug Take back & Transparency,House & Senate
35054,44033-40561,44033,FE,17522,ENGAGE STRATEGIES SPC*,Employer,40561,Expedia Group,18-Apr,5/16/2018,16427.0,Expedia Group,3000.0,0.0,3000.0,0.0,0.0,0.0,0.0,0.0,0.0,0.0,3000.0,40561.0,Direct,,,View report (https://accesshub.pdc.wa.gov/node/44033),,,
35055,42221-25369,42221,FE,17693,Water Street Public Affairs LLC,Employer,25369,FRANKLIN CO PUBLIC UTILITY DIST,18-Feb,5/16/2018,16454.0,FRANKLIN CO PUBLIC UTILITY DIST,3250.0,0.0,3250.0,0.0,0.0,0.0,0.0,0.0,0.0,0.0,3250.0,25369.0,Direct,,,View report (https://accesshub.pdc.wa.gov/node/42221),Energy and utilities,"Broadband, Energy Independence Act, Carbon","House Technology & Economic Development Committee, Senate Energy Environment & Telecommunications"
35056,44020-25369,44020,FE,17693,Water Street Public Affairs LLC,Employer,25369,FRANKLIN CO PUBLIC UTILITY DIST,18-Apr,5/16/2018,16454.0,FRANKLIN CO PUBLIC UTILITY DIST,3250.0,0.0,3250.0,0.0,0.0,0.0,0.0,0.0,0.0,0.0,3250.0,25369.0,Direct,,,View report (https://accesshub.pdc.wa.gov/node/44020),Energy and utilities,"Broadband, Energy Independence Act, Carbon","House Technology & Economic Development Committee, Senate Energy Environment & Telecommunications"
35057,44004-27294,44004,FE,17338,AMBER CARTER GOVT RELATIONS LLC*,Employer,27294,IDENTITY CLARK CO,18-Apr,5/16/2018,16520.0,IDENTITY CLARK CO,1816.66,0.0,1816.66,0.0,0.0,0.0,0.0,0.0,0.0,0.0,1816.66,27294.0,Direct,,,View report (https://accesshub.pdc.wa.gov/node/44004),Transportation,various,House and Senate Transportation Committee
35059,44033-18662,44033,FE,17522,ENGAGE STRATEGIES SPC*,Employer,18662,ISLANDWOOD,18-Apr,5/16/2018,16549.0,ISLANDWOOD,2000.0,0.0,2000.0,0.0,0.0,0.0,0.0,0.0,0.0,0.0,2000.0,18662.0,Direct,,,View report (https://accesshub.pdc.wa.gov/node/44033),Education,Outdoore ed and rec funding; env education funding,Sen Ways and Means; House Approps; Cap budget; OFM; RCO; OSPI
35060,43281-19145,43281,FE,17751,CAROLYN LOGUE,Employer,19145,"Stride, Inc.",18-Mar,5/16/2018,16567.0,"Stride, Inc.",5500.0,0.0,5500.0,0.0,0.0,0.0,0.0,0.0,0.0,0.0,5500.0,19145.0,Direct,,,View report (https://accesshub.pdc.wa.gov/node/43281),Education,Online learning/ALE,"House and Senate Education Committees, OSPI"
35061,44016-19145,44016,FE,17751,CAROLYN LOGUE,Employer,19145,"Stride, Inc.",18-Apr,5/16/2018,16567.0,"Stride, Inc.",5500.0,0.0,5500.0,0.0,0.0,0.0,0.0,0.0,0.0,0.0,5500.0,19145.0,Direct,,,View report (https://accesshub.pdc.wa.gov/node/44016),Education,Online learning/ALE,"House and Senate Education Committees, OSPI"
35062,44038-28555,44038,FE,18045,Amber Ulvenes,Employer,28555,Kaiser Foundation Health Plan of the Northwest,18-Apr,5/16/2018,16569.0,Kaiser Foundation Health Plan of the Northwest,1350.0,0.0,1350.0,0.0,0.0,0.0,0.0,0.0,0.0,0.0,1350.0,28555.0,Direct,,,View report (https://accesshub.pdc.wa.gov/node/44038),Health Care,Various health care issues,"Health Care Committees, HCA, OFM"
35063,44005-18675,44005,FE,17528,LUKE ESSER,Employer,18675,KALISPEL TRIBE,18-Apr,5/16/2018,16570.0,KALISPEL TRIBE,5000.0,0.0,5000.0,0.0,0.0,0.0,0.0,0.0,0.0,0.0,5000.0,18675.0,Direct,,,View report (https://accesshub.pdc.wa.gov/node/44005),Environmental Affairs - natural resources - parks,Natural Resources,Sen. Natural Resources & Parks; House Environment
35065,44033-18663,44033,FE,17522,ENGAGE STRATEGIES SPC*,Employer,18663,LUMMI TRIBE,18-Apr,5/16/2018,16610.0,LUMMI TRIBE,4300.0,0.0,4300.0,0.0,0.0,0.0,0.0,0.0,0.0,0.0,4300.0,18663.0,Direct,,,View report (https://accesshub.pdc.wa.gov/node/44033),Environmental Affairs - natural resources - parks,Water; natural resources; taxes; transportation; human services; education,House AGNR; Sen AG; Sen Natural Res. OFM; RCO; WDFW
35066,44004-27441,44004,FE,17338,AMBER CARTER GOVT RELATIONS LLC*,Employer,27441,MARITIME FIRE & SAFETY ASSN,18-Apr,5/16/2018,16617.0,MARITIME FIRE & SAFETY ASSN,1250.0,0.0,1250.0,0.0,0.0,0.0,0.0,0.0,0.0,0.0,1250.0,27441.0,Direct,,,View report (https://accesshub.pdc.wa.gov/node/44004),Environmental Affairs - natural resources - parks,various,"House Environment Comm., House Ag Comm., Senate Environment Comm, Senate Ag Comm"
35067,43281-19146,43281,FE,17751,CAROLYN LOGUE,Employer,19146,WA INDEPENDENT MEDICAL EXAM COALITION,18-Mar,5/16/2018,16630.0,WA INDEPENDENT MEDICAL EXAM COALITION,2500.0,0.0,2500.0,0.0,0.0,0.0,0.0,0.0,0.0,0.0,2500.0,19146.0,Direct,,,View report (https://accesshub.pdc.wa.gov/node/43281),Labor,IME Issues/Workers Comp,"House and Senate Labor Committees, L&I"
35068,44016-19146,44016,FE,17751,CAROLYN LOGUE,Employer,19146,WA INDEPENDENT MEDICAL EXAM COALITION,18-Apr,5/16/2018,16630.0,WA INDEPENDENT MEDICAL EXAM COALITION,2500.0,0.0,2500.0,0.0,0.0,0.0,0.0,0.0,0.0,0.0,2500.0,19146.0,Direct,,,View report (https://accesshub.pdc.wa.gov/node/44016),Labor,IME Issues/Workers Comp,"House and Senate Labor Committees, L&I"
35069,44038-19818,44038,FE,18045,Amber Ulvenes,Employer,19818,MIDWIVES ASSOCIATION OF WA STATE,18-Apr,5/16/2018,16637.0,MIDWIVES ASSOCIATION OF WA STATE,1200.0,0.0,1200.0,0.0,0.0,0.0,0.0,0.0,0.0,0.0,1200.0,19818.0,Direct,,,View report (https://accesshub.pdc.wa.gov/node/44038),Health Care,licensing fees,dept of health
35070,43999-18445,43999,FE,17450,CIVIC GROUP*,Employer,18445,MILLENNIUM BULK TERMINALS,18-Apr,5/16/2018,16638.0,MILLENNIUM BULK TERMINALS,5500.0,0.0,5500.0,0.0,0.0,0.0,0.0,0.0,0.0,0.0,5500.0,18445.0,Direct,,,View report (https://accesshub.pdc.wa.gov/node/43999),Environmental Affairs - natural resources - parks,Climate change,"Environment Committee, Transportation Committee, Agriculture, Water, Trade & Economic Development Commmittee"
35071,44006-19204,44006,FE,17776,TRENT MATSON,Employer,19204,"Moneytree, Inc.",18-Apr,5/16/2018,16643.0,"Moneytree, Inc.",2500.0,0.0,2500.0,0.0,0.0,0.0,0.0,0.0,0.0,0.0,2500.0,19204.0,Direct,,,View report (https://accesshub.pdc.wa.gov/node/44006),Financial institutions and insurance,financial,Financial committees and state legislators
35072,43907-18481,43907,FE,17460,COMMUNICO*,Employer,18481,MONSANTO,18-Apr,5/16/2018,16644.0,MONSANTO,3333.33,0.0,3333.33,0.0,0.0,0.0,0.0,0.0,0.0,0.0,3333.33,18481.0,Direct,,,View report (https://accesshub.pdc.wa.gov/node/43907),Agriculture,Seeds,"S - Agriculture & Natural Resources, H - Agriculture, Water, Trade & Econ. Dev."
35073,43907-18482,43907,FE,17460,COMMUNICO*,Employer,18482,NAIOP Washington State,18-Apr,5/16/2018,16669.0,NAIOP Washington State,7083.33,0.0,7083.33,0.0,0.0,0.0,0.0,0.0,0.0,0.0,7083.33,18482.0,Direct,,,View report (https://accesshub.pdc.wa.gov/node/43907),Environmental Affairs - natural resources - parks,"SEPA, GMA & Housing Taxes","H and S Environment Cmtes., H and S Local Government, H and S State Government"
35074,44017-18134,44017,FE,17336,ALLIANCES NORTHWEST*,Employer,18134,NINTENDO OF AMERICA,18-Apr,5/16/2018,16686.0,NINTENDO OF AMERICA,5850.0,0.0,5850.0,103.41,38.72,0.0,0.0,0.0,0.0,142.13,5992.13,18134.0,Direct,,,View report (https://accesshub.pdc.wa.gov/node/44017),Technology,"Subject Matter, Issue, or Bill Number -- All matters relating to business, commercial development, the environment, health care, insurance, finance, technology, retail, tax and transportation issues.","Legislative Committee or State Agency Considering Matter -- All committees of the Legislature, the Executive, CTED, DOE, DOH, DOR, DFI, DOT, DSHS, DNR, GA, L&I, and the Secretary of State."
35075,44033-23615,44033,FE,17522,ENGAGE STRATEGIES SPC*,Employer,23615,NORTHWEST ENERGY COALITION,18-Apr,5/16/2018,16700.0,NORTHWEST ENERGY COALITION,1667.0,0.0,1667.0,0.0,0.0,0.0,0.0,0.0,0.0,0.0,1667.0,23615.0,Direct,,,View report (https://accesshub.pdc.wa.gov/node/44033),Energy and utilities,"Energy Ind. Act; renewable energy, energy efficiency; capital budget; 100% clean legislation","House TED; Senate Energy, Commer, OFM; WSU Energy"
35076,44020-41874,44020,FE,17693,Water Street Public Affairs LLC,Employer,41874,GoWest Credit Union Association,18-Apr,5/16/2018,16703.0,GoWest Credit Union Association,4500.0,0.0,4500.0,165.25,0.0,0.0,0.0,0.0,0.0,165.25,4665.25,41874.0,Direct,,,View report (https://accesshub.pdc.wa.gov/node/44020),,,
35077,43999-18446,43999,FE,17450,CIVIC GROUP*,Employer,18446,PACIFIC MERCHANT SHIPPING ASSN,18-Apr,5/16/2018,16752.0,PACIFIC MERCHANT SHIPPING ASSN,4500.0,0.0,4500.0,0.0,0.0,0.0,0.0,0.0,0.0,0.0,4500.0,18446.0,Direct,,,View report (https://accesshub.pdc.wa.gov/node/43999),Transportation,Transportation,Transportation Committee
35078,42732-19770,42732,FE,18031,TERRY R TILTON,Employer,19770,PACIFIC NORTHWEST REGIONAL COUNCIL OF CARPENTERS,18-Apr,5/16/2018,16754.0,PACIFIC NORTHWEST REGIONAL COUNCIL OF CARPENTERS,4700.0,0.0,4700.0,0.0,0.0,0.0,0.0,0.0,0.0,0.0,4700.0,19770.0,Direct,,,View report (https://accesshub.pdc.wa.gov/node/42732),,,
35080,44004-28199,44004,FE,17338,AMBER CARTER GOVT RELATIONS LLC*,Employer,28199,PORT OF VANCOUVER,18-Apr,5/16/2018,16807.0,PORT OF VANCOUVER,4250.0,0.0,4250.0,0.0,0.0,0.0,0.0,0.0,0.0,0.0,4250.0,28199.0,Direct,,,View report (https://accesshub.pdc.wa.gov/node/44004),Fiscal,Budget,House Capital Budget Committee and Senate Ways and Means Committee
35081,44004-18143,44004,FE,17338,AMBER CARTER GOVT RELATIONS LLC*,Employer,18143,PORTLAND VANCOUVER JUNCTION RAILROAD,18-Apr,5/16/2018,16808.0,PORTLAND VANCOUVER JUNCTION RAILROAD,3000.0,0.0,3000.0,0.0,0.0,0.0,0.0,0.0,0.0,0.0,3000.0,18143.0,Direct,,,View report (https://accesshub.pdc.wa.gov/node/44004),Transportation,Budget,House and Senate Transportation Committee
35082,44017-18135,44017,FE,17336,ALLIANCES NORTHWEST*,Employer,18135,PUGET SOUND ENERGY INC,18-Apr,5/16/2018,16828.0,PUGET SOUND ENERGY INC,10000.0,0.0,10000.0,85.29,57.53,0.0,0.0,0.0,0.0,142.82,10142.82,18135.0,Direct,,,View report (https://accesshub.pdc.wa.gov/node/44017),Energy and utilities,"Subject Matter, Issue, or Bill Number -- All matters relating to business, commercial development, the environment, energy, Hanford, insurance, finance, local government, retail, tax and transportation issues.","Legislative Committee or State Agency Considering Matter -- All committees of the Legislature, the Executive, CTED, DOE, DOH, DOR, DFI, DOT, DSHS, DNR, GA, the UTC, the Treasurer, and the Secretary of State."
35084,44038-19820,44038,FE,18045,Amber Ulvenes,Employer,19820,RESOLUTION WA,18-Apr,5/16/2018,16856.0,RESOLUTION WA,750.0,0.0,750.0,0.0,0.0,0.0,0.0,0.0,0.0,0.0,750.0,19820.0,Direct,,,View report (https://accesshub.pdc.wa.gov/node/44038),Law and justice,DRC funding,"Dept of Commerce, Law & Justice and Judiciary Committees"
35085,44005-18676,44005,FE,17528,LUKE ESSER,Employer,18676,SEIU 775,18-Apr,5/16/2018,16905.0,SEIU 775,4500.0,0.0,4500.0,0.0,0.0,0.0,0.0,0.0,0.0,0.0,4500.0,18676.0,Direct,,,View report (https://accesshub.pdc.wa.gov/node/44005),Fiscal,Medicaid,Sen. Ways & Means; House Appropriations
35086,44005-40644,44005,FE,17528,LUKE ESSER,Employer,40644,SIGNATURE HEALTHCARE SERVICES LLC,18-Apr,5/16/2018,16917.0,SIGNATURE HEALTHCARE SERVICES LLC,4000.0,-2000.0,2000.0,0.0,0.0,0.0,0.0,0.0,0.0,0.0,2000.0,40644.0,Direct,,,View report (https://accesshub.pdc.wa.gov/node/44005),Health Care,Mental Health,"Senate Health & Long Term Care; House Health Care & Wellness, Dept. of Health"
35087,43924-18162,43924,FE,17342,DAVID C ARBAUGH,Employer,18162,SNOHOMISH CO PUBLIC UTILITY DIST #1,18-Apr,5/16/2018,16926.0,SNOHOMISH CO PUBLIC UTILITY DIST #1,6500.0,0.0,6500.0,0.0,0.0,0.0,0.0,0.0,0.0,0.0,6500.0,18162.0,Direct,,,View report (https://accesshub.pdc.wa.gov/node/43924),Energy and utilities,Energy/Water,TEC EWE
35088,43281-19147,43281,FE,17751,CAROLYN LOGUE,Employer,19147,SOUTH SOUND CHAMBERS OF COMMERCE LEG COMM,18-Mar,5/16/2018,16933.0,SOUTH SOUND CHAMBERS OF COMMERCE LEG COMM,2000.0,0.0,2000.0,0.0,0.0,0.0,0.0,0.0,0.0,0.0,2000.0,19147.0,Direct,,,View report (https://accesshub.pdc.wa.gov/node/43281),Transportation,Connecting Washington Projects -- budget,"DOT, House Transportation Committee, Senate Transportation Committee"
35089,44016-19147,44016,FE,17751,CAROLYN LOGUE,Employer,19147,SOUTH SOUND CHAMBERS OF COMMERCE LEG COMM,18-Apr,5/16/2018,16933.0,SOUTH SOUND CHAMBERS OF COMMERCE LEG COMM,2000.0,0.0,2000.0,0.0,0.0,0.0,0.0,0.0,0.0,0.0,2000.0,19147.0,Direct,,,View report (https://accesshub.pdc.wa.gov/node/44016),Transportation,Connecting Washington Projects -- budget,"DOT, House Transportation Committee, Senate Transportation Committee"
35090,44017-18137,44017,FE,17336,ALLIANCES NORTHWEST*,Employer,18137,STARBUCKS,18-Apr,5/16/2018,16950.0,STARBUCKS,5000.0,0.0,5000.0,138.66,45.76,0.0,0.0,0.0,0.0,184.42,5184.42,18137.0,Direct,,,View report (https://accesshub.pdc.wa.gov/node/44017),Business and consumer affairs,"Subject Matter, Issue, or Bill Number -- All matters relating to business, commercial development, the environment, health care, insurance, finance, restaurant, retail, tax and transportation issues.","Legislative Committee or State Agency Considering Matter -- All committees of the Legislature, the Executive, DOE, DOH, DOR, DOR, DFI, DOT, DSHS, GA, the Insurance Commissioner, the Treasurer, and the Secretary of State."
35092,44009-18458,44009,FE,17453,Bill Clarke,Employer,18458,TROUT UNLIMITED,18-Apr,5/16/2018,16995.0,TROUT UNLIMITED,3500.0,0.0,3500.0,0.0,0.0,0.0,0.0,0.0,0.0,0.0,3500.0,18458.0,Direct,,,View report (https://accesshub.pdc.wa.gov/node/44009),Environmental Affairs - natural resources - parks,Fishery management; habitat; budget,S. Natural Resources; H. Ag & Natural Res
35094,44017-27286,44017,FE,17336,ALLIANCES NORTHWEST*,Employer,27286,VERIZON,18-Apr,5/16/2018,17030.0,VERIZON,6000.0,0.0,6000.0,170.08,34.09,0.0,0.0,0.0,0.0,204.17,6204.17,27286.0,Direct,,,View report (https://accesshub.pdc.wa.gov/node/44017),Technology,"Subject Matter, Issue, or Bill Number -- All matters relating to business, commercial development, the environment, energy, Hanford, insurance, finance, local government, retail, tax, telecommunications, and transportation issues.","Legislative Committee or State Agency Considering Matter -- All committees of the Legislature, the Executive, CTED, DOE, DOH, DOR, DFI, DOT, DSHS, DNR, GA, the UTC, the Treasurer, and the Secretary of State."
35095,43907-18483,43907,FE,17460,COMMUNICO*,Employer,18483,T-MOBILE USA INC,18-Apr,5/16/2018,17038.0,T-MOBILE USA INC,7000.0,0.0,7000.0,0.0,0.0,0.0,0.0,0.0,0.0,0.0,7000.0,18483.0,Direct,,,View report (https://accesshub.pdc.wa.gov/node/43907),Energy and utilities,Telecommunications,"S - Energy, Environment & Telecom H - Technology Econ & Dev."
35096,44009-18459,44009,FE,17453,Bill Clarke,Employer,18459,WA ASSN OF REALTORS,18-Apr,5/16/2018,17059.0,WA ASSN OF REALTORS,5000.0,0.0,5000.0,0.0,0.0,0.0,0.0,0.0,0.0,0.0,5000.0,18459.0,Direct,,,View report (https://accesshub.pdc.wa.gov/node/44009),Business and consumer affairs,Growth Management; taxation; housing; water,S. Local Gov; H. Enviro; S. Finance; S. Ways & Means
35097,44026-19251,44026,FE,17794,JEANETTE MCKAGUE,Employer,19251,WA ASSN OF REALTORS,18-May,5/16/2018,17059.0,WA ASSN OF REALTORS,4500.0,0.0,4500.0,0.0,0.0,250.0,0.0,0.0,0.0,250.0,4750.0,19251.0,Direct,,,View report (https://accesshub.pdc.wa.gov/node/44026),Local government,Buildable Lands,"Dept of Commerce, Local Government Division"
35098,44017-38837,44017,FE,17336,ALLIANCES NORTHWEST*,Employer,38837,WA ASSN OF REALTORS,18-Apr,5/16/2018,17059.0,WA ASSN OF REALTORS,9000.0,0.0,9000.0,222.81,87.86,0.0,0.0,0.0,0.0,310.67,9310.67,38837.0,Direct,,,View report (https://accesshub.pdc.wa.gov/node/44017),Business and consumer affairs,"Subject Matter, Issue, or Bill Number -- All matters relating to financial institutions, business, commercial development, the environment, health care, , housing, insurance, finance, licensing, retail, tax and transportation issues.","Legislative Committee or State Agency Considering Matter -- All committees of the Legislature, the Executive, DOE, DOH, DOR, DFI, DOL, DOT, DSHS, DNR, GA, the Insurance Commissioner, the Treasurer, and the Secretary of State."
35099,42221-19065,42221,FE,17693,Water Street Public Affairs LLC,Employer,19065,WA Business Alliance Fund,18-Feb,5/16/2018,17062.0,WA Business Alliance Fund,2500.0,0.0,2500.0,0.0,0.0,0.0,0.0,0.0,0.0,0.0,2500.0,19065.0,Direct,,,View report (https://accesshub.pdc.wa.gov/node/42221),Energy and utilities,Carbon,"House Environment, Senate Energy Environment & Telecommunications"
35100,44020-19065,44020,FE,17693,Water Street Public Affairs LLC,Employer,19065,WA Business Alliance Fund,18-Apr,5/16/2018,17062.0,WA Business Alliance Fund,2250.0,0.0,2250.0,0.0,0.0,0.0,0.0,0.0,0.0,0.0,2250.0,19065.0,Direct,,,View report (https://accesshub.pdc.wa.gov/node/44020),Energy and utilities,Carbon,"House Environment, Senate Energy Environment & Telecommunications"
35101,43999-18447,43999,FE,17450,CIVIC GROUP*,Employer,18447,WA BEER & WINE DISTRIBUTORS ASSN,18-Apr,5/16/2018,17067.0,WA BEER & WINE DISTRIBUTORS ASSN,12500.0,-7500.0,5000.0,0.0,0.0,0.0,0.0,0.0,0.0,0.0,5000.0,18447.0,Direct,,,View report (https://accesshub.pdc.wa.gov/node/43999),Fiscal,taxes,"Finance Committee, Appropriations Committee, Ways & Means Committee"
35103,43281-19148,43281,FE,17751,CAROLYN LOGUE,Employer,19148,WA DENTURIST ASSN,18-Mar,5/16/2018,17093.0,WA DENTURIST ASSN,1600.0,0.0,1600.0,0.0,0.0,0.0,0.0,0.0,0.0,0.0,1600.0,19148.0,Direct,,,View report (https://accesshub.pdc.wa.gov/node/43281),Health Care,Dental/Denturist Issues,"House and Senate Health Care, DOH, HCA"
35104,44016-19148,44016,FE,17751,CAROLYN LOGUE,Employer,19148,WA DENTURIST ASSN,18-Apr,5/16/2018,17093.0,WA DENTURIST ASSN,1600.0,0.0,1600.0,0.0,0.0,0.0,0.0,0.0,0.0,0.0,1600.0,19148.0,Direct,,,View report (https://accesshub.pdc.wa.gov/node/44016),Health Care,Dental/Denturist Issues,"House and Senate Health Care, DOH, HCA"
35105,44017-18139,44017,FE,17336,ALLIANCES NORTHWEST*,Employer,18139,Delta Dental of WA,18-Apr,5/16/2018,17096.0,Delta Dental of WA,10000.0,0.0,10000.0,152.5,129.41,0.0,0.0,0.0,0.0,281.91,10281.91,18139.0,Direct,,,View report (https://accesshub.pdc.wa.gov/node/44017),Health Care,"Subject Matter, Issue, or Bill Number -- All matters relating to business, the environment, health care, insurance, finance, and tax issues.","2) Legislative Committee or State Agency Considering Matter -- All committees of the Legislature, the Executive, DOH, DOR, DFI, DSHS, the Insurance Commissioner, the Treasurer, and the Secretary of State."
35107,43281-19149,43281,FE,17751,CAROLYN LOGUE,Employer,19149,WA FOOD INDUSTRY,18-Mar,5/16/2018,17117.0,WA FOOD INDUSTRY,3530.0,0.0,3530.0,0.0,0.0,0.0,0.0,0.0,0.0,0.0,3530.0,19149.0,Direct,,,View report (https://accesshub.pdc.wa.gov/node/43281),Labor,"General business workforce issues -- Paid family leave, equal Pay, employment law, workers comp, unemployment insurance","House Labor & Workplace Standards, Senate Commerce, Labor & Sports, L&I, ESD"
35108,44016-19149,44016,FE,17751,CAROLYN LOGUE,Employer,19149,WA FOOD INDUSTRY,18-Apr,5/16/2018,17117.0,WA FOOD INDUSTRY,3530.0,0.0,3530.0,0.0,0.0,0.0,0.0,0.0,0.0,0.0,3530.0,19149.0,Direct,,,View report (https://accesshub.pdc.wa.gov/node/44016),Labor,"General business workforce issues -- Paid family leave, equal Pay, employment law, workers comp, unemployment insurance","House Labor & Workplace Standards, Senate Commerce, Labor & Sports, L&I, ESD"
35109,43281-24891,43281,FE,17751,CAROLYN LOGUE,Employer,24891,Washington Library Association,18-Mar,5/16/2018,17140.0,Washington Library Association,2500.0,0.0,2500.0,0.0,0.0,0.0,0.0,0.0,0.0,0.0,2500.0,24891.0,Direct,,,View report (https://accesshub.pdc.wa.gov/node/43281),Education,Public Library issues and School Library Issues,"House and Senate Education, Early Learning, State Government, OSPI, SOS"
35110,44016-24891,44016,FE,17751,CAROLYN LOGUE,Employer,24891,Washington Library Association,18-Apr,5/16/2018,17140.0,Washington Library Association,2500.0,0.0,2500.0,0.0,0.0,0.0,0.0,0.0,0.0,0.0,2500.0,24891.0,Direct,,,View report (https://accesshub.pdc.wa.gov/node/44016),Education,Public Library issues and School Library Issues,"House and Senate Education, Early Learning, State Government, OSPI, SOS"
35111,44009-18460,44009,FE,17453,Bill Clarke,Employer,18460,WA PUBLIC UTILITIES DISTS ASSN,18-Apr,5/16/2018,17176.0,WA PUBLIC UTILITIES DISTS ASSN,5750.0,0.0,5750.0,100.0,0.0,0.0,0.0,0.0,0.0,100.0,5850.0,18460.0,Direct,,,View report (https://accesshub.pdc.wa.gov/node/44009),Energy and utilities,Water rights; energy; telecommunications; infrastructure,S. Ag & Water; H. Ag & Nat. Resources; S. Enviro; H. Cap. Budget; S. Ways & Means
35113,43999-18448,43999,FE,17450,CIVIC GROUP*,Employer,18448,WA ASSN OF SEWER & WATER DISTRICTS,18-Apr,5/16/2018,17198.0,WA ASSN OF SEWER & WATER DISTRICTS,3000.0,0.0,3000.0,0.0,0.0,0.0,0.0,0.0,0.0,0.0,3000.0,18448.0,Direct,,,View report (https://accesshub.pdc.wa.gov/node/43999),Environmental Affairs - natural resources - parks,"Water issues, water quality","Environment Committee; Ag & Natural Resources Committee; Agriculture, Water, Trade & Economic Development Committee"
35114,43999-18449,43999,FE,17450,CIVIC GROUP*,Employer,18449,WA ST AUTO DEALERS ASSN INC,18-Apr,5/16/2018,17216.0,WA ST AUTO DEALERS ASSN INC,9282.88,0.0,9282.88,0.0,0.0,0.0,0.0,0.0,0.0,0.0,9282.88,18449.0,Direct,,,View report (https://accesshub.pdc.wa.gov/node/43999),Fiscal,Tax & Finance,Ways & Means Committee
35118,43907-18484,43907,FE,17460,COMMUNICO*,Employer,18484,Washington State Veterinary Medical Association,18-Apr,5/16/2018,17291.0,Washington State Veterinary Medical Association,5000.0,0.0,5000.0,16.0,0.0,0.0,0.0,0.0,0.0,16.0,5016.0,18484.0,Direct,,,View report (https://accesshub.pdc.wa.gov/node/43907),Health Care,"Health Care, Taxes and Animal Cruelty","S - Agriculture& Natural Resources, H - Agriculture, Water, Trade & Econ. Dev,S - Law & Justice, H - Judiciary, S - Health Care and H - Health Care & Wellness"
35119,44009-18461,44009,FE,17453,Bill Clarke,Employer,18461,REGIONAL WATER COOPERATIVE OF PIERCE CO,18-Apr,5/16/2018,17293.0,REGIONAL WATER COOPERATIVE OF PIERCE CO,3750.0,0.0,3750.0,100.0,0.0,0.0,0.0,0.0,0.0,100.0,3850.0,18461.0,Direct,,,View report (https://accesshub.pdc.wa.gov/node/44009),Energy and utilities,Water rights; infrastructure,S. Ag & Water; H. Ag & Natural Resources; H. Capital Budget; S. Ways & Means
35120,43907-18485,43907,FE,17460,COMMUNICO*,Employer,18485,Western States Petroleum Assn.,18-Apr,5/16/2018,17302.0,Western States Petroleum Assn.,33333.33,0.0,33333.33,440.08,0.0,2499.96,0.0,0.0,0.0,2940.04,36273.37,18485.0,Direct,,,View report (https://accesshub.pdc.wa.gov/node/43907),Energy and utilities,"Petroleumn Issues, Transportation, Marine Safety and Taxes","H - Environment and S - Energy, Environment & Telecommunications"
35121,43999-18450,43999,FE,17450,CIVIC GROUP*,Employer,18450,WEYERHAEUSER CO,18-Apr,5/16/2018,17305.0,WEYERHAEUSER CO,5916.67,0.0,5916.67,0.0,0.0,0.0,0.0,0.0,0.0,0.0,5916.67,18450.0,Direct,,,View report (https://accesshub.pdc.wa.gov/node/43999),Fiscal,Tax issues,Ways & Means Committee; Finance Committee
35122,44009-18462,44009,FE,17453,Bill Clarke,Employer,18462,AG WATER BOARD OF WHATCOM COUNTY,18-Apr,5/16/2018,17306.0,AG WATER BOARD OF WHATCOM COUNTY,1500.0,0.0,1500.0,0.0,0.0,0.0,0.0,0.0,0.0,0.0,1500.0,18462.0,Direct,,,View report (https://accesshub.pdc.wa.gov/node/44009),Environmental Affairs - natural resources - parks,Water and Infrastructure,S. Ag Water; H. Ag Natural Resources
35123,43907-18486,43907,FE,17460,COMMUNICO*,Employer,18486,The Williams Companies,18-Apr,5/16/2018,17311.0,The Williams Companies,2500.0,0.0,2500.0,0.0,0.0,0.0,0.0,0.0,0.0,0.0,2500.0,18486.0,Direct,,,View report (https://accesshub.pdc.wa.gov/node/43907),Environmental Affairs - natural resources - parks,Pipeline,"H - Environment and S - Energy, Environment & Telecommunications"
35124,43924-35158,43924,FE,17342,DAVID C ARBAUGH,Employer,35158,Public Works  Board,18-Apr,5/16/2018,25309.0,Public Works  Board,1000.0,0.0,1000.0,0.0,0.0,0.0,0.0,0.0,0.0,0.0,1000.0,35158.0,Direct,,,View report (https://accesshub.pdc.wa.gov/node/43924),,,
35125,44033-26485,44033,FE,17522,ENGAGE STRATEGIES SPC*,Employer,26485,Tiny Trees,18-Apr,5/16/2018,26484.0,Tiny Trees,450.0,0.0,450.0,0.0,0.0,0.0,0.0,0.0,0.0,0.0,450.0,26485.0,Direct,,,View report (https://accesshub.pdc.wa.gov/node/44033),Education,Outdoor preschool pilot,"DEL, Sen Early Learning, House Early Learning"
35126,44033-26489,44033,FE,17522,ENGAGE STRATEGIES SPC*,Employer,26489,Opportunity Council,18-Apr,5/16/2018,26488.0,Opportunity Council,2250.0,0.0,2250.0,0.0,0.0,0.0,0.0,0.0,0.0,0.0,2250.0,26489.0,Direct,,,View report (https://accesshub.pdc.wa.gov/node/44033),Human services,Capital budget funding; affordable housing,House Cap Budget; Sen Ways and Means; Gov's office; Commerce
35127,44017-26591,44017,FE,17336,ALLIANCES NORTHWEST*,Employer,26591,WA Hospitality Assn,18-Apr,5/16/2018,26557.0,WA Hospitality Assn,9192.75,0.0,9192.75,283.3,48.49,0.0,0.0,0.0,0.0,331.79,9524.54,26591.0,Direct,,,View report (https://accesshub.pdc.wa.gov/node/44017),Business and consumer affairs,"Subject Matter, Issue, or Bill Number -- All matters relating to business, commercial development, the environment, health care, insurance, finance, restaurant, retail, tax and transportation issues.","Legislative Committee or State Agency Considering Matter -- All committees of the Legislature, the Executive, DOE, DOH, DOR, DOR, DFI, DOT, DSHS, GA, the Insurance Commissioner, the Treasurer, and the Secretary of State."
35129,44038-42464,44038,FE,18045,Amber Ulvenes,Employer,42464,Kaiser Foundation Health Plan of Washington (CHRIS MARR),18-Apr,5/16/2018,30206.0,Kaiser Foundation Health Plan of Washington,5250.0,0.0,5250.0,0.0,0.0,0.0,0.0,0.0,0.0,0.0,5250.0,42464.0,Subcontract,17773.0,CHRIS MARR,View report (https://accesshub.pdc.wa.gov/node/44038),,,
35130,44009-32049,44009,FE,17453,Bill Clarke,Employer,32049,Renewable Energy Group,18-Apr,5/16/2018,30764.0,Renewable Energy Group,8000.0,0.0,8000.0,0.0,0.0,0.0,0.0,0.0,0.0,0.0,8000.0,32049.0,Direct,,,View report (https://accesshub.pdc.wa.gov/node/44009),Environmental Affairs - natural resources - parks,Environmental,S. Environment Energy & Telecom; H. Environment
35131,43999-32211,43999,FE,17450,CIVIC GROUP*,Employer,32211,"CA, Inc.",18-Apr,5/16/2018,32194.0,"CA, Inc.",4000.0,0.0,4000.0,0.0,0.0,0.0,0.0,0.0,0.0,0.0,4000.0,32211.0,Direct,,,View report (https://accesshub.pdc.wa.gov/node/43999),Fiscal,budget,"Senate Ways & Means, House Appropriations, House Finance"
35132,43924-36523,43924,FE,17342,DAVID C ARBAUGH,Employer,36523,OCHIN Inc.,18-Apr,5/16/2018,35865.0,OCHIN Inc.,2500.0,0.0,2500.0,0.0,0.0,0.0,0.0,0.0,0.0,0.0,2500.0,36523.0,Direct,,,View report (https://accesshub.pdc.wa.gov/node/43924),Health Care,Health Care Information Technology,Health care information technology.
35133,44055-18216,44055,FE,17367,ROBERT A BATTLES,Employer,18216,ASSN OF WA BUSINESS,18-Feb,5/17/2018,16167.0,ASSN OF WA BUSINESS,10600.42,0.0,10600.42,0.0,0.0,0.0,0.0,0.0,0.0,0.0,10600.42,18216.0,Direct,,,View report (https://accesshub.pdc.wa.gov/node/44055),Labor,Employment Law,House Senate Commerce Labor
35134,44064-18216,44064,FE,17367,ROBERT A BATTLES,Employer,18216,ASSN OF WA BUSINESS,18-Mar,5/17/2018,16167.0,ASSN OF WA BUSINESS,7810.84,0.0,7810.84,0.0,0.0,0.0,0.0,0.0,0.0,0.0,7810.84,18216.0,Direct,,,View report (https://accesshub.pdc.wa.gov/node/44064),Law and justice,Employment Law,House and Senate Commerce Labor ESD
35135,44056-18428,44056,FE,17440,GARY CHANDLER,Employer,18428,ASSN OF WA BUSINESS,18-Feb,5/17/2018,16167.0,ASSN OF WA BUSINESS,7666.67,0.0,7666.67,0.0,0.0,0.0,0.0,0.0,0.0,0.0,7666.67,18428.0,Direct,,,View report (https://accesshub.pdc.wa.gov/node/44056),Fiscal,Budget,Legislative and Agency leadership
35136,44065-18428,44065,FE,17440,GARY CHANDLER,Employer,18428,ASSN OF WA BUSINESS,18-Mar,5/17/2018,16167.0,ASSN OF WA BUSINESS,3833.34,0.0,3833.34,0.0,0.0,0.0,0.0,0.0,0.0,0.0,3833.34,18428.0,Direct,,,View report (https://accesshub.pdc.wa.gov/node/44065),Fiscal,Budget,Agency and legislative leadership
35137,44057-18670,44057,FE,17525,MICHAEL W ENNIS,Employer,18670,ASSN OF WA BUSINESS,18-Feb,5/17/2018,16167.0,ASSN OF WA BUSINESS,9462.25,0.0,9462.25,0.0,0.0,0.0,0.0,0.0,0.0,0.0,9462.25,18670.0,Direct,,,View report (https://accesshub.pdc.wa.gov/node/44057),Environmental Affairs - natural resources - parks,Hirst,House and Senate Water Committees
35138,44071-18670,44071,FE,17525,MICHAEL W ENNIS,Employer,18670,ASSN OF WA BUSINESS,18-Mar,5/17/2018,16167.0,ASSN OF WA BUSINESS,5677.35,0.0,5677.35,0.0,0.0,0.0,0.0,0.0,0.0,0.0,5677.35,18670.0,Direct,,,View report (https://accesshub.pdc.wa.gov/node/44071),Environmental Affairs - natural resources - parks,Hirst,House and Senate Water Committees
35139,44052-19021,44052,FE,17673,AMY ANDERSON,Employer,19021,ASSN OF WA BUSINESS,18-Feb,5/17/2018,16167.0,ASSN OF WA BUSINESS,6159.0,0.0,6159.0,0.0,0.0,0.0,0.0,0.0,0.0,0.0,6159.0,19021.0,Direct,,,View report (https://accesshub.pdc.wa.gov/node/44052),Education,Apprenticeship Programs,Workforce Board Senate House K-12 Ed Committees
35140,44063-19021,44063,FE,17673,AMY ANDERSON,Employer,19021,ASSN OF WA BUSINESS,18-Mar,5/17/2018,16167.0,ASSN OF WA BUSINESS,3849.38,0.0,3849.38,0.0,0.0,0.0,0.0,0.0,0.0,0.0,3849.38,19021.0,Direct,,,View report (https://accesshub.pdc.wa.gov/node/44063),Education,Workforce education,Workforce Board
35141,44050-19041,44050,FE,17680,KRISTOFER T JOHNSON,Employer,19041,ASSN OF WA BUSINESS,18-Feb,5/17/2018,16167.0,ASSN OF WA BUSINESS,787.5,0.0,787.5,0.0,0.0,0.0,0.0,0.0,0.0,0.0,787.5,19041.0,Direct,,,View report (https://accesshub.pdc.wa.gov/node/44050),Fiscal,Taxes,Legislative & Agency leadership Governors office
35142,44062-19041,44062,FE,17680,KRISTOFER T JOHNSON,Employer,19041,ASSN OF WA BUSINESS,18-Mar,5/17/2018,16167.0,ASSN OF WA BUSINESS,262.5,0.0,262.5,0.0,0.0,0.0,0.0,0.0,0.0,0.0,262.5,19041.0,Direct,,,View report (https://accesshub.pdc.wa.gov/node/44062),Fiscal,Budge,Legislative leadership
35143,44060-29963,44060,FE,29962,Mary Catherine McAleer,Employer,29963,ASSN OF WA BUSINESS,18-Feb,5/17/2018,16167.0,ASSN OF WA BUSINESS,10416.67,0.0,10416.67,0.0,0.0,0.0,0.0,0.0,0.0,0.0,10416.67,29963.0,Direct,,,View report (https://accesshub.pdc.wa.gov/node/44060),Environmental Affairs - natural resources - parks,Carbon Tax,House and Senate Environmental Committees
35144,44059-39852,44059,FE,39851,Clay Hill,Employer,39852,ASSN OF WA BUSINESS,18-Feb,5/17/2018,16167.0,ASSN OF WA BUSINESS,10416.67,0.0,10416.67,0.0,0.0,0.0,0.0,0.0,0.0,0.0,10416.67,39852.0,Direct,,,View report (https://accesshub.pdc.wa.gov/node/44059),Fiscal,Budget,House and Senate Ways and Means
35145,44074-39852,44074,FE,39851,Clay Hill,Employer,39852,ASSN OF WA BUSINESS,18-Mar,5/17/2018,16167.0,ASSN OF WA BUSINESS,5208.34,0.0,5208.34,0.0,0.0,0.0,0.0,0.0,0.0,0.0,5208.34,39852.0,Direct,,,View report (https://accesshub.pdc.wa.gov/node/44074),Fiscal,Taxes,House and Senate Ways and Means DOR
35146,39541-18169,39541,FE,17348,CHRISTOPHERSEN INC*,Employer,18169,ASSN OF WA SPIRITS & WINE DISTRIBUTORS,17-Dec,5/17/2018,16172.0,ASSN OF WA SPIRITS & WINE DISTRIBUTORS,5250.0,-115.38,5134.62,0.0,0.0,0.0,0.0,0.0,0.0,0.0,5134.62,18169.0,Direct,,,View report (https://accesshub.pdc.wa.gov/node/39541),Business and consumer affairs,various,various
35147,39541-18170,39541,FE,17348,CHRISTOPHERSEN INC*,Employer,18170,WA ALLIANCE OF BOYS & GIRLS CLUB,17-Dec,5/17/2018,16204.0,WA ALLIANCE OF BOYS & GIRLS CLUB,2000.0,-115.38,1884.62,0.0,0.0,0.0,0.0,0.0,0.0,0.0,1884.62,18170.0,Direct,,,View report (https://accesshub.pdc.wa.gov/node/39541),Human services,various,various
35148,44076-36579,44076,FE,36578,Lara Kaminsky,Employer,36579,CANNABIS ALLIANCE,18-Apr,5/17/2018,16222.0,CANNABIS ALLIANCE,200.0,0.0,200.0,0.0,0.0,0.0,0.0,0.0,0.0,0.0,200.0,36579.0,Direct,,,View report (https://accesshub.pdc.wa.gov/node/44076),State government,Rules,WSLCB
35149,39541-18172,39541,FE,17348,CHRISTOPHERSEN INC*,Employer,18172,THE COLLEGE BOARD,17-Dec,5/17/2018,16334.0,THE COLLEGE BOARD,4200.0,-115.38,4084.62,0.0,0.0,0.0,0.0,0.0,0.0,0.0,4084.62,18172.0,Direct,,,View report (https://accesshub.pdc.wa.gov/node/39541),Education,various,various
35150,44061-19089,44061,FE,17710,TERRY KOHL,Employer,19089,FAMILY WINERIES OF WA ST,18-Apr,5/17/2018,16434.0,FAMILY WINERIES OF WA ST,208.33,0.0,208.33,18.31,0.0,0.0,0.0,0.0,0.0,18.31,226.64,19089.0,Direct,,,View report (https://accesshub.pdc.wa.gov/node/44061),Business and consumer affairs,Washington Wineries,HS Senate Commerce Law
35151,39541-26030,39541,FE,17348,CHRISTOPHERSEN INC*,Employer,26030,HAMPTON TREE FARMS LLC,17-Dec,5/17/2018,16490.0,HAMPTON TREE FARMS LLC,4000.0,-115.38,3884.62,0.0,0.0,0.0,0.0,0.0,0.0,0.0,3884.62,26030.0,Direct,,,View report (https://accesshub.pdc.wa.gov/node/39541),Business and consumer affairs,various,various
35152,39541-18174,39541,FE,17348,CHRISTOPHERSEN INC*,Employer,18174,MERCK SHARP & DOHME LLC & AFFILIATES,17-Dec,5/17/2018,16632.0,MERCK SHARP & DOHME LLC & AFFILIATES,4000.0,-115.38,3884.62,0.0,0.0,0.0,0.0,0.0,0.0,0.0,3884.62,18174.0,Direct,,,View report (https://accesshub.pdc.wa.gov/node/39541),Business and consumer affairs,na,na
35154,39541-18175,39541,FE,17348,CHRISTOPHERSEN INC*,Employer,18175,NORTHWEST KIDNEY CENTERS,17-Dec,5/17/2018,16711.0,NORTHWEST KIDNEY CENTERS,2000.0,-115.38,1884.62,0.0,0.0,0.0,0.0,0.0,0.0,0.0,1884.62,18175.0,Direct,,,View report (https://accesshub.pdc.wa.gov/node/39541),Health Care,various,various
35155,39541-18176,39541,FE,17348,CHRISTOPHERSEN INC*,Employer,18176,Pediatrix Medical Group,17-Dec,5/17/2018,16769.0,Pediatrix Medical Group,5000.0,-115.38,4884.62,0.0,0.0,0.0,0.0,0.0,0.0,0.0,4884.62,18176.0,Direct,,,View report (https://accesshub.pdc.wa.gov/node/39541),Health Care,various,various
35156,39541-18178,39541,FE,17348,CHRISTOPHERSEN INC*,Employer,18178,"STAND FOR CHILDREN, INC.",17-Dec,5/17/2018,16949.0,"STAND FOR CHILDREN, INC.",6500.0,-115.38,6384.62,0.0,0.0,0.0,0.0,0.0,0.0,0.0,6384.62,18178.0,Direct,,,View report (https://accesshub.pdc.wa.gov/node/39541),Education,various,various
35157,39541-18180,39541,FE,17348,CHRISTOPHERSEN INC*,Employer,18180,WA CANNABUSINESS ASSN,17-Dec,5/17/2018,17073.0,WA CANNABUSINESS ASSN,6000.0,-115.38,5884.62,0.0,0.0,0.0,0.0,0.0,0.0,0.0,5884.62,18180.0,Direct,,,View report (https://accesshub.pdc.wa.gov/node/39541),Business and consumer affairs,various,various
35158,44042-19367,44042,FE,17852,DARCY A NONEMACHER,Employer,19367,Washington Conservation Action Education Fund,18-Mar,5/17/2018,17100.0,Washington Conservation Action Education Fund,1000.63,0.0,1000.63,0.0,0.0,0.0,0.0,0.0,0.0,0.0,1000.63,19367.0,Direct,,,View report (https://accesshub.pdc.wa.gov/node/44042),Environmental Affairs - natural resources - parks,Multiple,Multiple Legislative Committees
35159,44061-19091,44061,FE,17710,TERRY KOHL,Employer,19091,WA ASSN OF NATUROPATHIC PHYSICIANS,18-Apr,5/17/2018,17154.0,WA ASSN OF NATUROPATHIC PHYSICIANS,2000.0,0.0,2000.0,64.54,0.0,0.0,0.0,0.0,0.0,64.54,2064.54,19091.0,Direct,,,View report (https://accesshub.pdc.wa.gov/node/44061),Health Care,Naturopathic Health Care Insurance,HS SEN Healthcare
35160,39541-18181,39541,FE,17348,CHRISTOPHERSEN INC*,Employer,18181,WA REFUSE & RECYCLING ASSN,17-Dec,5/17/2018,17185.0,WA REFUSE & RECYCLING ASSN,5835.0,0.0,5835.0,0.0,0.0,0.0,0.0,0.0,0.0,0.0,5835.0,18181.0,Direct,,,View report (https://accesshub.pdc.wa.gov/node/39541),Business and consumer affairs,various,various
35161,44061-19093,44061,FE,17710,TERRY KOHL,Employer,19093,WA ST SNOWMOBILE ASSN,18-Apr,5/17/2018,17282.0,WA ST SNOWMOBILE ASSN,718.63,0.0,718.63,25.95,0.0,0.0,0.0,0.0,0.0,25.95,744.58,19093.0,Direct,,,View report (https://accesshub.pdc.wa.gov/node/44061),Environmental Affairs - natural resources - parks,Snowmobile Recreation,HS SEN Labor Commerce Healthcare DOL DOH
35162,44061-19094,44061,FE,17710,TERRY KOHL,Employer,19094,WA ST SELF STORAGE ASSN,18-Apr,5/17/2018,17287.0,WA ST SELF STORAGE ASSN,1245.83,0.0,1245.83,55.52,0.0,0.0,0.0,0.0,0.0,55.52,1301.35,19094.0,Direct,,,View report (https://accesshub.pdc.wa.gov/node/44061),Business and consumer affairs,Real Estate Self Storage Law,HS SEN Judicial Commerce Labor HS Business Finance
35163,39541-18182,39541,FE,17348,CHRISTOPHERSEN INC*,Employer,18182,WA ST UNIVERSITY,17-Dec,5/17/2018,17290.0,WA ST UNIVERSITY,4000.0,-115.44,3884.56,0.0,0.0,0.0,0.0,0.0,0.0,0.0,3884.56,18182.0,Direct,,,View report (https://accesshub.pdc.wa.gov/node/39541),Education,various,various
35164,39541-28550,39541,FE,17348,CHRISTOPHERSEN INC*,Employer,28550,Yoga Alliance (Insight Strategic Partners LLC),17-Dec,5/17/2018,28496.0,Yoga Alliance,3750.0,0.0,3750.0,0.0,0.0,0.0,0.0,0.0,0.0,0.0,3750.0,28550.0,Subcontract,25651.0,Insight Strategic Partners LLC,View report (https://accesshub.pdc.wa.gov/node/39541),,,
35165,39541-38319,39541,FE,17348,CHRISTOPHERSEN INC*,Employer,38319,Recompose,17-Dec,5/17/2018,38316.0,Recompose,1000.0,0.0,1000.0,0.0,0.0,0.0,0.0,0.0,0.0,0.0,1000.0,38319.0,Direct,,,View report (https://accesshub.pdc.wa.gov/node/39541),,,
35168,37720-19515,37720,FE,17906,PUBLIC AFFAIRS OF WA LLC*,Employer,19515,BLDG OWNERS & MANAGERS ASSN OF KING CO,17-Oct,5/18/2018,16216.0,BLDG OWNERS & MANAGERS ASSN OF KING CO,1633.09,0.0,1633.09,439.65,95.0,0.0,0.0,0.0,0.0,534.65,2167.74,19515.0,Direct,,,View report (https://accesshub.pdc.wa.gov/node/37720),Fiscal,Buildings,Hs Sen Fiscal
35169,38816-19515,38816,FE,17906,PUBLIC AFFAIRS OF WA LLC*,Employer,19515,BLDG OWNERS & MANAGERS ASSN OF KING CO,17-Nov,5/18/2018,16216.0,BLDG OWNERS & MANAGERS ASSN OF KING CO,1633.09,0.0,1633.09,18.52,0.0,0.0,0.0,0.0,0.0,18.52,1651.61,19515.0,Direct,,,View report (https://accesshub.pdc.wa.gov/node/38816),Fiscal,Buildings,Hs Sen Fiscal
35170,39659-19515,39659,FE,17906,PUBLIC AFFAIRS OF WA LLC*,Employer,19515,BLDG OWNERS & MANAGERS ASSN OF KING CO,17-Dec,5/18/2018,16216.0,BLDG OWNERS & MANAGERS ASSN OF KING CO,1633.09,0.0,1633.09,107.13,0.0,0.0,0.0,0.0,0.0,107.13,1740.22,19515.0,Direct,,,View report (https://accesshub.pdc.wa.gov/node/39659),Fiscal,Buildings,Hs Sen Fiscal
35171,40920-19515,40920,FE,17906,PUBLIC AFFAIRS OF WA LLC*,Employer,19515,BLDG OWNERS & MANAGERS ASSN OF KING CO,18-Jan,5/18/2018,16216.0,BLDG OWNERS & MANAGERS ASSN OF KING CO,1714.74,0.0,1714.74,101.39,0.0,0.0,0.0,0.0,0.0,101.39,1816.13,19515.0,Direct,,,View report (https://accesshub.pdc.wa.gov/node/40920),Fiscal,Buildings,Hs Sen Fiscal
35175,37720-19517,37720,FE,17906,PUBLIC AFFAIRS OF WA LLC*,Employer,19517,FAMILY WINERIES OF WA ST,17-Oct,5/18/2018,16434.0,FAMILY WINERIES OF WA ST,208.33,0.0,208.33,156.94,0.0,0.0,0.0,0.0,0.0,156.94,365.27,19517.0,Direct,,,View report (https://accesshub.pdc.wa.gov/node/37720),Labor,Wine,HS Sen Commerce
35176,38816-19517,38816,FE,17906,PUBLIC AFFAIRS OF WA LLC*,Employer,19517,FAMILY WINERIES OF WA ST,17-Nov,5/18/2018,16434.0,FAMILY WINERIES OF WA ST,208.33,0.0,208.33,100.75,0.0,0.0,0.0,0.0,0.0,100.75,309.08,19517.0,Direct,,,View report (https://accesshub.pdc.wa.gov/node/38816),Labor,Wine,HS Sen Commerce
35177,39659-19517,39659,FE,17906,PUBLIC AFFAIRS OF WA LLC*,Employer,19517,FAMILY WINERIES OF WA ST,17-Dec,5/18/2018,16434.0,FAMILY WINERIES OF WA ST,208.33,0.0,208.33,305.98,0.0,0.0,0.0,0.0,0.0,305.98,514.31,19517.0,Direct,,,View report (https://accesshub.pdc.wa.gov/node/39659),Labor,Wine,HS Sen Commerce
35178,40920-19517,40920,FE,17906,PUBLIC AFFAIRS OF WA LLC*,Employer,19517,FAMILY WINERIES OF WA ST,18-Jan,5/18/2018,16434.0,FAMILY WINERIES OF WA ST,208.33,0.0,208.33,212.68,0.0,0.0,0.0,0.0,0.0,212.68,421.01,19517.0,Direct,,,View report (https://accesshub.pdc.wa.gov/node/40920),Labor,Wine,HS Sen Commerce
35182,37720-19518,37720,FE,17906,PUBLIC AFFAIRS OF WA LLC*,Employer,19518,GOVT BLDG OWNERS & LESSORS ASSN,17-Oct,5/18/2018,16476.0,GOVT BLDG OWNERS & LESSORS ASSN,2916.66,0.0,2916.66,1.07,0.0,0.0,0.0,0.0,0.0,1.07,2917.73,19518.0,Direct,,,View report (https://accesshub.pdc.wa.gov/node/37720),Fiscal,Real Estate,"Department of Enterprise Services, HS Sen Capital"
35183,38816-19518,38816,FE,17906,PUBLIC AFFAIRS OF WA LLC*,Employer,19518,GOVT BLDG OWNERS & LESSORS ASSN,17-Nov,5/18/2018,16476.0,GOVT BLDG OWNERS & LESSORS ASSN,2916.66,0.0,2916.66,0.0,0.0,0.0,0.0,0.0,0.0,0.0,2916.66,19518.0,Direct,,,View report (https://accesshub.pdc.wa.gov/node/38816),Fiscal,Real Estate,"Department of Enterprise Services, HS Sen Capital"
35184,39659-19518,39659,FE,17906,PUBLIC AFFAIRS OF WA LLC*,Employer,19518,GOVT BLDG OWNERS & LESSORS ASSN,17-Dec,5/18/2018,16476.0,GOVT BLDG OWNERS & LESSORS ASSN,2916.66,0.0,2916.66,39.12,0.0,0.0,0.0,0.0,0.0,39.12,2955.78,19518.0,Direct,,,View report (https://accesshub.pdc.wa.gov/node/39659),Fiscal,Real Estate,"Department of Enterprise Services, HS Sen Capital"
35185,40920-19518,40920,FE,17906,PUBLIC AFFAIRS OF WA LLC*,Employer,19518,GOVT BLDG OWNERS & LESSORS ASSN,18-Jan,5/18/2018,16476.0,GOVT BLDG OWNERS & LESSORS ASSN,2916.66,0.0,2916.66,121.71,0.0,0.0,0.0,0.0,0.0,121.71,3038.37,19518.0,Direct,,,View report (https://accesshub.pdc.wa.gov/node/40920),Fiscal,Real Estate,"Department of Enterprise Services, HS Sen Capital"
35189,37720-19519,37720,FE,17906,PUBLIC AFFAIRS OF WA LLC*,Employer,19519,INSTITUTE OF REAL ESTATE MGMT,17-Oct,5/18/2018,16534.0,INSTITUTE OF REAL ESTATE MGMT,375.0,0.0,375.0,21.83,0.0,0.0,0.0,0.0,0.0,21.83,396.83,19519.0,Direct,,,View report (https://accesshub.pdc.wa.gov/node/37720),Business and consumer affairs,Real Estate,Hs Sen Fiscal and Housing
35190,38816-19519,38816,FE,17906,PUBLIC AFFAIRS OF WA LLC*,Employer,19519,INSTITUTE OF REAL ESTATE MGMT,17-Nov,5/18/2018,16534.0,INSTITUTE OF REAL ESTATE MGMT,375.0,0.0,375.0,37.83,0.0,0.0,0.0,0.0,0.0,37.83,412.83,19519.0,Direct,,,View report (https://accesshub.pdc.wa.gov/node/38816),Business and consumer affairs,Real Estate,Hs Sen Fiscal and Housing
35191,39659-19519,39659,FE,17906,PUBLIC AFFAIRS OF WA LLC*,Employer,19519,INSTITUTE OF REAL ESTATE MGMT,17-Dec,5/18/2018,16534.0,INSTITUTE OF REAL ESTATE MGMT,375.0,0.0,375.0,74.48,0.0,0.0,0.0,0.0,0.0,74.48,449.48,19519.0,Direct,,,View report (https://accesshub.pdc.wa.gov/node/39659),Business and consumer affairs,Real Estate,Hs Sen Fiscal and Housing
35192,40920-19519,40920,FE,17906,PUBLIC AFFAIRS OF WA LLC*,Employer,19519,INSTITUTE OF REAL ESTATE MGMT,18-Jan,5/18/2018,16534.0,INSTITUTE OF REAL ESTATE MGMT,375.0,0.0,375.0,150.75,0.0,0.0,0.0,0.0,0.0,150.75,525.75,19519.0,Direct,,,View report (https://accesshub.pdc.wa.gov/node/40920),Business and consumer affairs,Real Estate,Hs Sen Fiscal and Housing
35195,40920-19520,40920,FE,17906,PUBLIC AFFAIRS OF WA LLC*,Employer,19520,INTL COUNCIL OF SHOPPING CENTERS,18-Jan,5/18/2018,16540.0,INTL COUNCIL OF SHOPPING CENTERS,3750.0,0.0,3750.0,0.0,0.0,0.0,0.0,0.0,0.0,0.0,3750.0,19520.0,Direct,,,View report (https://accesshub.pdc.wa.gov/node/40920),,,
35197,37720-19521,37720,FE,17906,PUBLIC AFFAIRS OF WA LLC*,Employer,19521,Manufactured Housing Communities of WA,17-Oct,5/18/2018,16614.0,Manufactured Housing Communities of WA,1690.65,0.0,1690.65,24.82,0.0,0.0,0.0,0.0,0.0,24.82,1715.47,19521.0,Direct,,,View report (https://accesshub.pdc.wa.gov/node/37720),Financial institutions and insurance,Housing,Hs Sen Fiscal and Housing
35198,38816-19521,38816,FE,17906,PUBLIC AFFAIRS OF WA LLC*,Employer,19521,Manufactured Housing Communities of WA,17-Nov,5/18/2018,16614.0,Manufactured Housing Communities of WA,1690.65,0.0,1690.65,17.86,0.0,0.0,0.0,0.0,0.0,17.86,1708.51,19521.0,Direct,,,View report (https://accesshub.pdc.wa.gov/node/38816),Financial institutions and insurance,Housing,Hs Sen Fiscal and Housing
35199,39659-19521,39659,FE,17906,PUBLIC AFFAIRS OF WA LLC*,Employer,19521,Manufactured Housing Communities of WA,17-Dec,5/18/2018,16614.0,Manufactured Housing Communities of WA,1690.65,0.0,1690.65,148.85,0.0,0.0,0.0,0.0,0.0,148.85,1839.5,19521.0,Direct,,,View report (https://accesshub.pdc.wa.gov/node/39659),Financial institutions and insurance,Housing,Hs Sen Fiscal and Housing
35200,40920-19521,40920,FE,17906,PUBLIC AFFAIRS OF WA LLC*,Employer,19521,Manufactured Housing Communities of WA,18-Jan,5/18/2018,16614.0,Manufactured Housing Communities of WA,1690.65,0.0,1690.65,185.61,0.0,0.0,0.0,0.0,0.0,185.61,1876.26,19521.0,Direct,,,View report (https://accesshub.pdc.wa.gov/node/40920),Financial institutions and insurance,Housing,Hs Sen Fiscal and Housing
35204,37720-19523,37720,FE,17906,PUBLIC AFFAIRS OF WA LLC*,Employer,19523,NATL ASSN OF CREDIT MGMT,17-Oct,5/18/2018,16659.0,NATL ASSN OF CREDIT MGMT,604.0,0.0,604.0,63.18,0.0,0.0,0.0,0.0,0.0,63.18,667.18,19523.0,Direct,,,View report (https://accesshub.pdc.wa.gov/node/37720),Labor,Credit,Hs Sen Fiscal and Finance
35205,38816-19523,38816,FE,17906,PUBLIC AFFAIRS OF WA LLC*,Employer,19523,NATL ASSN OF CREDIT MGMT,17-Nov,5/18/2018,16659.0,NATL ASSN OF CREDIT MGMT,604.0,0.0,604.0,55.18,0.0,0.0,0.0,0.0,0.0,55.18,659.18,19523.0,Direct,,,View report (https://accesshub.pdc.wa.gov/node/38816),Labor,Credit,Hs Sen Fiscal and Finance
35206,39659-19523,39659,FE,17906,PUBLIC AFFAIRS OF WA LLC*,Employer,19523,NATL ASSN OF CREDIT MGMT,17-Dec,5/18/2018,16659.0,NATL ASSN OF CREDIT MGMT,604.0,0.0,604.0,43.68,0.0,0.0,0.0,0.0,0.0,43.68,647.68,19523.0,Direct,,,View report (https://accesshub.pdc.wa.gov/node/39659),Labor,Credit,Hs Sen Fiscal and Finance
35207,40920-19523,40920,FE,17906,PUBLIC AFFAIRS OF WA LLC*,Employer,19523,NATL ASSN OF CREDIT MGMT,18-Jan,5/18/2018,16659.0,NATL ASSN OF CREDIT MGMT,604.0,0.0,604.0,150.09,0.0,0.0,0.0,0.0,0.0,150.09,754.09,19523.0,Direct,,,View report (https://accesshub.pdc.wa.gov/node/40920),Labor,Credit,Hs Sen Fiscal and Finance
35211,37720-19525,37720,FE,17906,PUBLIC AFFAIRS OF WA LLC*,Employer,19525,SUNRISE SERVICES INC,17-Oct,5/18/2018,16959.0,SUNRISE SERVICES INC,725.0,0.0,725.0,338.3,0.0,0.0,0.0,0.0,0.0,338.3,1063.3,19525.0,Direct,,,View report (https://accesshub.pdc.wa.gov/node/37720),Human services,DDD,Hs Sen Fiscal and Finance
35212,38816-19525,38816,FE,17906,PUBLIC AFFAIRS OF WA LLC*,Employer,19525,SUNRISE SERVICES INC,17-Nov,5/18/2018,16959.0,SUNRISE SERVICES INC,725.0,0.0,725.0,241.5,0.0,0.0,0.0,0.0,0.0,241.5,966.5,19525.0,Direct,,,View report (https://accesshub.pdc.wa.gov/node/38816),Human services,DDD,Hs Sen Fiscal and Finance
35213,39659-19525,39659,FE,17906,PUBLIC AFFAIRS OF WA LLC*,Employer,19525,SUNRISE SERVICES INC,17-Dec,5/18/2018,16959.0,SUNRISE SERVICES INC,725.0,0.0,725.0,118.44,0.0,0.0,0.0,0.0,0.0,118.44,843.44,19525.0,Direct,,,View report (https://accesshub.pdc.wa.gov/node/39659),Human services,DDD,Hs Sen Fiscal and Finance
35214,40920-19525,40920,FE,17906,PUBLIC AFFAIRS OF WA LLC*,Employer,19525,SUNRISE SERVICES INC,18-Jan,5/18/2018,16959.0,SUNRISE SERVICES INC,725.0,0.0,725.0,195.39,0.0,0.0,0.0,0.0,0.0,195.39,920.39,19525.0,Direct,,,View report (https://accesshub.pdc.wa.gov/node/40920),Human services,DDD,Hs Sen Fiscal and Finance
35218,37720-19526,37720,FE,17906,PUBLIC AFFAIRS OF WA LLC*,Employer,19526,WA APARTMENT ASSN,17-Oct,5/18/2018,17043.0,WA APARTMENT ASSN,1809.77,0.0,1809.77,537.5,121.0,0.0,0.0,0.0,0.0,658.5,2468.27,19526.0,Direct,,,View report (https://accesshub.pdc.wa.gov/node/37720),Financial institutions and insurance,Housing,Hs Sen Fiscal and Housing
35219,38816-19526,38816,FE,17906,PUBLIC AFFAIRS OF WA LLC*,Employer,19526,WA APARTMENT ASSN,17-Nov,5/18/2018,17043.0,WA APARTMENT ASSN,1809.77,0.0,1809.77,231.47,0.0,0.0,0.0,0.0,0.0,231.47,2041.24,19526.0,Direct,,,View report (https://accesshub.pdc.wa.gov/node/38816),Financial institutions and insurance,Housing,Hs Sen Fiscal and Housing
35220,39659-19526,39659,FE,17906,PUBLIC AFFAIRS OF WA LLC*,Employer,19526,WA APARTMENT ASSN,17-Dec,5/18/2018,17043.0,WA APARTMENT ASSN,1809.77,0.0,1809.77,265.17,0.0,0.0,0.0,0.0,0.0,265.17,2074.94,19526.0,Direct,,,View report (https://accesshub.pdc.wa.gov/node/39659),Financial institutions and insurance,Housing,Hs Sen Fiscal and Housing
35221,40920-19526,40920,FE,17906,PUBLIC AFFAIRS OF WA LLC*,Employer,19526,WA APARTMENT ASSN,18-Jan,5/18/2018,17043.0,WA APARTMENT ASSN,1809.77,0.0,1809.77,394.77,0.0,0.0,0.0,0.0,0.0,394.77,2204.54,19526.0,Direct,,,View report (https://accesshub.pdc.wa.gov/node/40920),Financial institutions and insurance,Housing,Hs Sen Fiscal and Housing
35225,37720-19527,37720,FE,17906,PUBLIC AFFAIRS OF WA LLC*,Employer,19527,WA COLLECTORS ASSN,17-Oct,5/18/2018,17068.0,WA COLLECTORS ASSN,2180.0,0.0,2180.0,940.45,27.0,0.0,0.0,0.0,0.0,967.45,3147.45,19527.0,Direct,,,View report (https://accesshub.pdc.wa.gov/node/37720),Financial institutions and insurance,Collection,Hs Sen Judiciary
35226,38816-19527,38816,FE,17906,PUBLIC AFFAIRS OF WA LLC*,Employer,19527,WA COLLECTORS ASSN,17-Nov,5/18/2018,17068.0,WA COLLECTORS ASSN,2180.0,0.0,2180.0,516.25,0.0,0.0,0.0,0.0,0.0,516.25,2696.25,19527.0,Direct,,,View report (https://accesshub.pdc.wa.gov/node/38816),Financial institutions and insurance,Collection,Hs Sen Judiciary
35227,39659-19527,39659,FE,17906,PUBLIC AFFAIRS OF WA LLC*,Employer,19527,WA COLLECTORS ASSN,17-Dec,5/18/2018,17068.0,WA COLLECTORS ASSN,2180.0,0.0,2180.0,532.64,0.0,0.0,0.0,0.0,0.0,532.64,2712.64,19527.0,Direct,,,View report (https://accesshub.pdc.wa.gov/node/39659),Financial institutions and insurance,Collection,Hs Sen Judiciary
35228,40920-19527,40920,FE,17906,PUBLIC AFFAIRS OF WA LLC*,Employer,19527,WA COLLECTORS ASSN,18-Jan,5/18/2018,17068.0,WA COLLECTORS ASSN,2180.0,0.0,2180.0,527.28,0.0,0.0,0.0,0.0,0.0,527.28,2707.28,19527.0,Direct,,,View report (https://accesshub.pdc.wa.gov/node/40920),Financial institutions and insurance,Collection,Hs Sen Judiciary
35231,44077-19764,44077,FE,18026,Michele Thomas,Employer,19764,WA LOW-INCOME HOUSING ALLIANCE,18-Apr,5/18/2018,17143.0,WA LOW-INCOME HOUSING ALLIANCE,479.18,0.0,479.18,0.0,0.0,0.0,0.0,0.0,0.0,0.0,479.18,19764.0,Direct,,,View report (https://accesshub.pdc.wa.gov/node/44077),Human services,Housing,various
35233,37720-24421,37720,FE,17906,PUBLIC AFFAIRS OF WA LLC*,Employer,24421,TOWING AND RECOVERY ASSN OF WA,17-Oct,5/18/2018,17205.0,TOWING AND RECOVERY ASSN OF WA,1500.0,0.0,1500.0,429.4,122.44,0.0,0.0,0.0,0.0,551.84,2051.84,24421.0,Direct,,,View report (https://accesshub.pdc.wa.gov/node/37720),Transportation,Towing,Hs Sen Transportation
35234,38816-24421,38816,FE,17906,PUBLIC AFFAIRS OF WA LLC*,Employer,24421,TOWING AND RECOVERY ASSN OF WA,17-Nov,5/18/2018,17205.0,TOWING AND RECOVERY ASSN OF WA,1500.0,0.0,1500.0,170.25,0.0,0.0,0.0,0.0,0.0,170.25,1670.25,24421.0,Direct,,,View report (https://accesshub.pdc.wa.gov/node/38816),Transportation,Towing,Hs Sen Transportation
35235,39659-24421,39659,FE,17906,PUBLIC AFFAIRS OF WA LLC*,Employer,24421,TOWING AND RECOVERY ASSN OF WA,17-Dec,5/18/2018,17205.0,TOWING AND RECOVERY ASSN OF WA,1500.0,0.0,1500.0,332.45,0.0,0.0,0.0,0.0,0.0,332.45,1832.45,24421.0,Direct,,,View report (https://accesshub.pdc.wa.gov/node/39659),Transportation,Towing,Hs Sen Transportation
35236,40920-24421,40920,FE,17906,PUBLIC AFFAIRS OF WA LLC*,Employer,24421,TOWING AND RECOVERY ASSN OF WA,18-Jan,5/18/2018,17205.0,TOWING AND RECOVERY ASSN OF WA,1500.0,0.0,1500.0,116.39,0.0,0.0,0.0,0.0,0.0,116.39,1616.39,24421.0,Direct,,,View report (https://accesshub.pdc.wa.gov/node/40920),Transportation,Towing,Hs Sen Transportation
35240,37720-19528,37720,FE,17906,PUBLIC AFFAIRS OF WA LLC*,Employer,19528,WA ASSN OF VEHICLE SUBAGENTS,17-Oct,5/18/2018,17207.0,WA ASSN OF VEHICLE SUBAGENTS,2046.03,0.0,2046.03,461.64,27.0,0.0,0.0,0.0,0.0,488.64,2534.67,19528.0,Direct,,,View report (https://accesshub.pdc.wa.gov/node/37720),Transportation,Subagents,Hs Sen Transportation
35241,38816-19528,38816,FE,17906,PUBLIC AFFAIRS OF WA LLC*,Employer,19528,WA ASSN OF VEHICLE SUBAGENTS,17-Nov,5/18/2018,17207.0,WA ASSN OF VEHICLE SUBAGENTS,2046.03,0.0,2046.03,259.88,0.0,0.0,0.0,0.0,0.0,259.88,2305.91,19528.0,Direct,,,View report (https://accesshub.pdc.wa.gov/node/38816),Transportation,Subagents,Hs Sen Transportation
35242,39659-19528,39659,FE,17906,PUBLIC AFFAIRS OF WA LLC*,Employer,19528,WA ASSN OF VEHICLE SUBAGENTS,17-Dec,5/18/2018,17207.0,WA ASSN OF VEHICLE SUBAGENTS,2046.03,0.0,2046.03,327.97,0.0,0.0,0.0,0.0,0.0,327.97,2374.0,19528.0,Direct,,,View report (https://accesshub.pdc.wa.gov/node/39659),Transportation,Subagents,Hs Sen Transportation
35243,40920-19528,40920,FE,17906,PUBLIC AFFAIRS OF WA LLC*,Employer,19528,WA ASSN OF VEHICLE SUBAGENTS,18-Jan,5/18/2018,17207.0,WA ASSN OF VEHICLE SUBAGENTS,2046.03,0.0,2046.03,943.94,0.0,0.0,0.0,0.0,0.0,943.94,2989.97,19528.0,Direct,,,View report (https://accesshub.pdc.wa.gov/node/40920),Transportation,Subagents,Hs Sen Transportation
35247,37720-19529,37720,FE,17906,PUBLIC AFFAIRS OF WA LLC*,Employer,19529,WA ST SNOWMOBILE ASSN,17-Oct,5/18/2018,17282.0,WA ST SNOWMOBILE ASSN,718.63,0.0,718.63,13.02,0.0,0.0,0.0,0.0,0.0,13.02,731.65,19529.0,Direct,,,View report (https://accesshub.pdc.wa.gov/node/37720),Transportation,Snowmobile,Hs Sen Fiscal and Transportation
35248,38816-19529,38816,FE,17906,PUBLIC AFFAIRS OF WA LLC*,Employer,19529,WA ST SNOWMOBILE ASSN,17-Nov,5/18/2018,17282.0,WA ST SNOWMOBILE ASSN,718.63,0.0,718.63,21.56,0.0,0.0,0.0,0.0,0.0,21.56,740.19,19529.0,Direct,,,View report (https://accesshub.pdc.wa.gov/node/38816),Transportation,Snowmobile,Hs Sen Fiscal and Transportation
35249,39659-19529,39659,FE,17906,PUBLIC AFFAIRS OF WA LLC*,Employer,19529,WA ST SNOWMOBILE ASSN,17-Dec,5/18/2018,17282.0,WA ST SNOWMOBILE ASSN,718.63,0.0,718.63,13.56,0.0,0.0,0.0,0.0,0.0,13.56,732.19,19529.0,Direct,,,View report (https://accesshub.pdc.wa.gov/node/39659),Transportation,Snowmobile,Hs Sen Fiscal and Transportation
35250,40920-19529,40920,FE,17906,PUBLIC AFFAIRS OF WA LLC*,Employer,19529,WA ST SNOWMOBILE ASSN,18-Jan,5/18/2018,17282.0,WA ST SNOWMOBILE ASSN,718.63,0.0,718.63,55.46,0.0,0.0,0.0,0.0,0.0,55.46,774.09,19529.0,Direct,,,View report (https://accesshub.pdc.wa.gov/node/40920),Transportation,Snowmobile,Hs Sen Fiscal and Transportation
35254,37720-19530,37720,FE,17906,PUBLIC AFFAIRS OF WA LLC*,Employer,19530,WA ST SELF STORAGE ASSN,17-Oct,5/18/2018,17287.0,WA ST SELF STORAGE ASSN,603.79,0.0,603.79,29.05,0.0,0.0,0.0,0.0,0.0,29.05,632.84,19530.0,Direct,,,View report (https://accesshub.pdc.wa.gov/node/37720),Labor,Storage,Hs Sen Commerce and Labor
35255,38816-19530,38816,FE,17906,PUBLIC AFFAIRS OF WA LLC*,Employer,19530,WA ST SELF STORAGE ASSN,17-Nov,5/18/2018,17287.0,WA ST SELF STORAGE ASSN,603.79,0.0,603.79,48.59,0.0,0.0,0.0,0.0,0.0,48.59,652.38,19530.0,Direct,,,View report (https://accesshub.pdc.wa.gov/node/38816),Labor,Storage,Hs Sen Commerce and Labor
35256,39659-19530,39659,FE,17906,PUBLIC AFFAIRS OF WA LLC*,Employer,19530,WA ST SELF STORAGE ASSN,17-Dec,5/18/2018,17287.0,WA ST SELF STORAGE ASSN,622.92,0.0,622.92,94.57,0.0,0.0,0.0,0.0,0.0,94.57,717.49,19530.0,Direct,,,View report (https://accesshub.pdc.wa.gov/node/39659),Labor,Storage,Hs Sen Commerce and Labor
35257,40920-19530,40920,FE,17906,PUBLIC AFFAIRS OF WA LLC*,Employer,19530,WA ST SELF STORAGE ASSN,18-Jan,5/18/2018,17287.0,WA ST SELF STORAGE ASSN,622.92,0.0,622.92,86.1,0.0,0.0,0.0,0.0,0.0,86.1,709.02,19530.0,Direct,,,View report (https://accesshub.pdc.wa.gov/node/40920),Labor,Storage,Hs Sen Commerce and Labor
35261,37720-27025,37720,FE,17906,PUBLIC AFFAIRS OF WA LLC*,Employer,27025,"Delivery Express, Inc.",17-Oct,5/18/2018,26676.0,"Delivery Express, Inc.",3250.0,0.0,3250.0,251.9,54.0,150.0,0.0,0.0,0.0,455.9,3705.9,27025.0,Direct,,,View report (https://accesshub.pdc.wa.gov/node/37720),Transportation,Definition of truck,House Sen. Transportation
35262,38816-27025,38816,FE,17906,PUBLIC AFFAIRS OF WA LLC*,Employer,27025,"Delivery Express, Inc.",17-Nov,5/18/2018,26676.0,"Delivery Express, Inc.",3250.0,0.0,3250.0,247.91,0.0,0.0,0.0,0.0,0.0,247.91,3497.91,27025.0,Direct,,,View report (https://accesshub.pdc.wa.gov/node/38816),Transportation,Definition of truck,House Sen. Transportation
35263,39659-27025,39659,FE,17906,PUBLIC AFFAIRS OF WA LLC*,Employer,27025,"Delivery Express, Inc.",17-Dec,5/18/2018,26676.0,"Delivery Express, Inc.",3250.0,0.0,3250.0,310.85,0.0,0.0,0.0,0.0,0.0,310.85,3560.85,27025.0,Direct,,,View report (https://accesshub.pdc.wa.gov/node/39659),Transportation,Definition of truck,House Sen. Transportation
35264,40920-27025,40920,FE,17906,PUBLIC AFFAIRS OF WA LLC*,Employer,27025,"Delivery Express, Inc.",18-Jan,5/18/2018,26676.0,"Delivery Express, Inc.",3250.0,0.0,3250.0,520.99,0.0,0.0,0.0,0.0,0.0,520.99,3770.99,27025.0,Direct,,,View report (https://accesshub.pdc.wa.gov/node/40920),Transportation,Definition of truck,House Sen. Transportation
35267,40920-33003,40920,FE,17906,PUBLIC AFFAIRS OF WA LLC*,Employer,33003,"POSaBit, Inc",18-Jan,5/18/2018,32990.0,"POSaBit, Inc",2500.0,0.0,2500.0,0.0,0.0,0.0,0.0,0.0,0.0,0.0,2500.0,33003.0,Direct,,,View report (https://accesshub.pdc.wa.gov/node/40920),,,
35271,37720-41059,37720,FE,17906,PUBLIC AFFAIRS OF WA LLC*,Employer,41059,Plumbing-Heating-Cooling Contractors of Washington,17-Oct,5/18/2018,41058.0,Plumbing-Heating-Cooling Contractors of Washington,1041.67,0.0,1041.67,45.5,0.0,0.0,0.0,0.0,0.0,45.5,1087.17,41059.0,Direct,,,View report (https://accesshub.pdc.wa.gov/node/37720),,,
35272,38816-41059,38816,FE,17906,PUBLIC AFFAIRS OF WA LLC*,Employer,41059,Plumbing-Heating-Cooling Contractors of Washington,17-Nov,5/18/2018,41058.0,Plumbing-Heating-Cooling Contractors of Washington,1041.67,0.0,1041.67,177.14,0.0,0.0,0.0,0.0,0.0,177.14,1218.81,41059.0,Direct,,,View report (https://accesshub.pdc.wa.gov/node/38816),,,
35273,39659-41059,39659,FE,17906,PUBLIC AFFAIRS OF WA LLC*,Employer,41059,Plumbing-Heating-Cooling Contractors of Washington,17-Dec,5/18/2018,41058.0,Plumbing-Heating-Cooling Contractors of Washington,1041.67,0.0,1041.67,89.63,0.0,0.0,0.0,0.0,0.0,89.63,1131.3,41059.0,Direct,,,View report (https://accesshub.pdc.wa.gov/node/39659),,,
35274,40920-41059,40920,FE,17906,PUBLIC AFFAIRS OF WA LLC*,Employer,41059,Plumbing-Heating-Cooling Contractors of Washington,18-Jan,5/18/2018,41058.0,Plumbing-Heating-Cooling Contractors of Washington,1041.67,0.0,1041.67,156.38,0.0,0.0,0.0,0.0,0.0,156.38,1198.05,41059.0,Direct,,,View report (https://accesshub.pdc.wa.gov/node/40920),,,
35277,43127-23620,43127,FE,17935,Nancy Sapiro,Employer,23620,End of Life Washington,18-Apr,5/19/2018,16352.0,End of Life Washington,1500.0,0.0,1500.0,0.0,0.0,0.0,0.0,0.0,0.0,0.0,1500.0,23620.0,Direct,,,View report (https://accesshub.pdc.wa.gov/node/43127),Health Care,End of Life Issues,House Health Care Committee members
35278,43127-19968,43127,FE,17935,Nancy Sapiro,Employer,19968,CEDAR RIVER CLINICS (PAM CRONE LEGISLATIVE CONSULTING SVCS*),18-Apr,5/19/2018,16439.0,CEDAR RIVER CLINICS,375.0,0.0,375.0,0.0,0.0,0.0,0.0,0.0,0.0,0.0,375.0,19968.0,Subcontract,17875.0,PAM CRONE LEGISLATIVE CONSULTING SVCS*,View report (https://accesshub.pdc.wa.gov/node/43127),,,
35279,43127-19569,43127,FE,17935,Nancy Sapiro,Employer,19569,League of Women Voters Washington,18-Apr,5/19/2018,16590.0,League of Women Voters Washington,500.0,-250.0,250.0,0.0,0.0,0.0,0.0,0.0,0.0,0.0,250.0,19569.0,Direct,,,View report (https://accesshub.pdc.wa.gov/node/43127),State government,voting issues,State Government
35280,43127-19990,43127,FE,17935,Nancy Sapiro,Employer,19990,LEGAL VOICE (PAM CRONE LEGISLATIVE CONSULTING SVCS*),18-Apr,5/19/2018,16723.0,LEGAL VOICE,1750.0,0.0,1750.0,0.0,0.0,0.0,0.0,0.0,0.0,0.0,1750.0,19990.0,Subcontract,17875.0,PAM CRONE LEGISLATIVE CONSULTING SVCS*,View report (https://accesshub.pdc.wa.gov/node/43127),,,
35281,40671-19079,40671,FE,17705,PETER KING,Employer,19079,ASSN OF WA CITIES,18-Jan,5/21/2018,16168.0,ASSN OF WA CITIES,257.89,0.0,257.89,0.0,25472.46,0.0,0.0,0.0,0.0,25472.46,25730.35,19079.0,Direct,,,View report (https://accesshub.pdc.wa.gov/node/40671),Fiscal,Supplemental Budget,"Sen Rolfes, Sen Schoesler, Rep Sullivan"
35282,44010-18318,44010,FE,17413,MARK O BROWN,Employer,18318,CITY OF LACEY,18-Apr,5/21/2018,16294.0,CITY OF LACEY,2500.0,0.0,2500.0,0.0,0.0,0.0,0.0,0.0,0.0,0.0,2500.0,18318.0,Direct,,,View report (https://accesshub.pdc.wa.gov/node/44010),Fiscal,Fiscal,Local Government
35283,44010-18320,44010,FE,17413,MARK O BROWN,Employer,18320,CITY OF RIDGEFIELD,18-Apr,5/21/2018,16309.0,CITY OF RIDGEFIELD,1500.0,0.0,1500.0,0.0,0.0,0.0,0.0,0.0,0.0,0.0,1500.0,18320.0,Direct,,,View report (https://accesshub.pdc.wa.gov/node/44010),Fiscal,Fiscal,Local Government
35284,44010-18321,44010,FE,17413,MARK O BROWN,Employer,18321,City of Vancouver,18-Apr,5/21/2018,16319.0,City of Vancouver,8500.0,0.0,8500.0,0.0,0.0,0.0,0.0,0.0,0.0,0.0,8500.0,18321.0,Direct,,,View report (https://accesshub.pdc.wa.gov/node/44010),Fiscal,Fiscal,Local Government
35285,44010-18323,44010,FE,17413,MARK O BROWN,Employer,18323,PARTNERS IN CAREERS,18-Apr,5/21/2018,16764.0,PARTNERS IN CAREERS,750.0,0.0,750.0,0.0,0.0,0.0,0.0,0.0,0.0,0.0,750.0,18323.0,Direct,,,View report (https://accesshub.pdc.wa.gov/node/44010),Fiscal,Education,Local Government
35287,44091-19738,44091,FE,18018,KRISTOPHER I TEFFT,Employer,19738,WSIA,18-Apr,5/21/2018,17194.0,WSIA,4000.0,0.0,4000.0,0.0,0.0,0.0,0.0,0.0,0.0,0.0,4000.0,19738.0,Direct,,,View report (https://accesshub.pdc.wa.gov/node/44091),Labor,Workers Comp & Safety,House and Senate Labor Committees
35288,44087-19715,44087,FE,17999,MARK L STREULI,Employer,19715,WA ST FARM BUREAU,18-May,5/21/2018,17246.0,WA ST FARM BUREAU,4000.0,0.0,4000.0,0.0,0.0,0.0,0.0,0.0,0.0,0.0,4000.0,19715.0,Direct,,,View report (https://accesshub.pdc.wa.gov/node/44087),Agriculture,"Agriculture, Transportation, Labor","Washington State Department of Agriculture, House and Senate Agriculture Committees"
35289,44088-36766,44088,FE,36747,Zachary Lindahl,Employer,36766,WA Hospitality Assn,18-May,5/21/2018,26557.0,WA Hospitality Assn,1600.0,0.0,1600.0,0.0,0.0,0.0,0.0,0.0,0.0,0.0,1600.0,36766.0,Direct,,,View report (https://accesshub.pdc.wa.gov/node/44088),State government,Alcohol Policy,Liquor and Cannabis Board
35290,44101-19639,44101,FE,17974,MELANIE J SMITH,Employer,19639,COMMITTEE FOR CHILDREN,18-Apr,5/22/2018,16347.0,COMMITTEE FOR CHILDREN,2750.0,0.0,2750.0,0.0,0.0,0.0,0.0,0.0,0.0,0.0,2750.0,19639.0,Direct,,,View report (https://accesshub.pdc.wa.gov/node/44101),Education,social emotional learning,"education, early learning, child abuse prevention"
35291,42337-18246,42337,FE,17388,ANNIE BLACKLEDGE,Employer,18246,The Mockingbird Society,18-Feb,5/22/2018,16639.0,The Mockingbird Society,841.4,0.0,841.4,70.0,0.0,0.0,0.0,0.0,0.0,70.0,911.4,18246.0,Direct,,,View report (https://accesshub.pdc.wa.gov/node/42337),Human services,WSSIP Study,"Rep. Kagi, Rep. Frame"
35292,42869-18246,42869,FE,17388,ANNIE BLACKLEDGE,Employer,18246,The Mockingbird Society,18-Jan,5/22/2018,16639.0,The Mockingbird Society,961.6,0.0,961.6,26.0,0.0,0.0,0.0,0.0,11225.3,11251.3,12212.9,18246.0,Direct,,,View report (https://accesshub.pdc.wa.gov/node/42869),Human services,SB 6222,Senate and Human Services hearing
35293,44101-39038,44101,FE,17974,MELANIE J SMITH,Employer,39038,NAMI WA,18-Apr,5/22/2018,16654.0,NAMI WA,555.0,0.0,555.0,0.0,0.0,0.0,0.0,0.0,0.0,0.0,555.0,39038.0,Direct,,,View report (https://accesshub.pdc.wa.gov/node/44101),Health Care,Mental healthcare,healthcare
35294,44095-19387,44095,FE,17868,Chelsea Mason,Employer,19387,SOCIETY OF PROFESSIONAL ENGINEERING EMPLOYEES IN AEROSPACE SPEEA,18-Feb,5/22/2018,16928.0,SOCIETY OF PROFESSIONAL ENGINEERING EMPLOYEES IN AEROSPACE SPEEA,560.0,0.0,560.0,0.0,0.0,0.0,0.0,0.0,1152.0,1152.0,1712.0,19387.0,Direct,,,View report (https://accesshub.pdc.wa.gov/node/44095),Labor,WSLC Shared Prosperity Agenda,Multiple Legislators
35295,44101-25635,44101,FE,17974,MELANIE J SMITH,Employer,25635,MULTI-SERVICE CENTER LONG TERM CARE OMBUDSMAN PROGRAM,18-Apr,5/22/2018,16932.0,MULTI-SERVICE CENTER LONG TERM CARE OMBUDSMAN PROGRAM,4220.0,0.0,4220.0,0.0,0.0,0.0,0.0,0.0,0.0,0.0,4220.0,25635.0,Direct,,,View report (https://accesshub.pdc.wa.gov/node/44101),,,
35296,44094-40646,44094,FE,40645,Catherine Holm,Employer,40646,WA FOOD INDUSTRY,18-Apr,5/22/2018,17117.0,WA FOOD INDUSTRY,1200.0,0.0,1200.0,0.0,0.0,0.0,0.0,0.0,0.0,0.0,1200.0,40646.0,Direct,,,View report (https://accesshub.pdc.wa.gov/node/44094),Human services,Curbside Service,Liquor Cannabis Board
35297,44100-19493,44100,FE,17902,Ryan Pricco,Employer,19493,Child Care Aware of WA,18-Apr,5/22/2018,17231.0,Child Care Aware of WA,1231.03,0.0,1231.03,0.0,0.0,0.0,0.0,0.0,0.0,0.0,1231.03,19493.0,Direct,,,View report (https://accesshub.pdc.wa.gov/node/44100),Education,child care,"DEL, DCYF"
35298,44101-24482,44101,FE,17974,MELANIE J SMITH,Employer,24482,WA ST SOCIETY FOR CLINICAL SOCIAL WORK,18-Apr,5/22/2018,17284.0,WA ST SOCIETY FOR CLINICAL SOCIAL WORK,700.0,0.0,700.0,0.0,0.0,0.0,0.0,0.0,0.0,0.0,700.0,24482.0,Direct,,,View report (https://accesshub.pdc.wa.gov/node/44101),,,
35299,44101-19644,44101,FE,17974,MELANIE J SMITH,Employer,19644,WELLSPRING FAMILY SERVICES,18-Apr,5/22/2018,17297.0,WELLSPRING FAMILY SERVICES,1150.0,0.0,1150.0,0.0,0.0,0.0,0.0,0.0,0.0,0.0,1150.0,19644.0,Direct,,,View report (https://accesshub.pdc.wa.gov/node/44101),Human services,early learning and human services,"human services, early learning"
35300,44106-18406,44106,FE,17434,CASCADE GOVT AFFAIRS LLC*,Employer,18406,BETHEL SCHOOL DISTRICT,18-Apr,5/23/2018,16190.0,BETHEL SCHOOL DISTRICT,4500.0,0.0,4500.0,0.0,0.0,0.0,0.0,0.0,0.0,0.0,4500.0,18406.0,Direct,,,View report (https://accesshub.pdc.wa.gov/node/44106),Education,School Siting and Education Funding Issues,Education and Fiscal Committees
35301,44106-18407,44106,FE,17434,CASCADE GOVT AFFAIRS LLC*,Employer,18407,CASCADE NATURAL GAS,18-Apr,5/23/2018,16235.0,CASCADE NATURAL GAS,5000.0,0.0,5000.0,0.0,0.0,0.0,0.0,0.0,0.0,0.0,5000.0,18407.0,Direct,,,View report (https://accesshub.pdc.wa.gov/node/44106),Energy and utilities,Carbon and Utility Issues,Energy and Technology Committees
35302,44106-18408,44106,FE,17434,CASCADE GOVT AFFAIRS LLC*,Employer,18408,CONSUMER TECHNOLOGY ASSN (THROUGH MULTISTATE ASSOCIATES LLC),18-Apr,5/23/2018,16359.0,CONSUMER TECHNOLOGY ASSN (THROUGH MULTISTATE ASSOCIATES LLC),3666.0,0.0,3666.0,0.0,0.0,0.0,0.0,0.0,0.0,0.0,3666.0,18408.0,Direct,,,View report (https://accesshub.pdc.wa.gov/node/44106),Technology,Electronic Products Issues and Drones,Environment and Technology Committees
35303,44106-18409,44106,FE,17434,CASCADE GOVT AFFAIRS LLC*,Employer,18409,DIAGEO,18-Apr,5/23/2018,16387.0,DIAGEO,5000.0,0.0,5000.0,0.0,0.0,0.0,0.0,0.0,0.0,0.0,5000.0,18409.0,Direct,,,View report (https://accesshub.pdc.wa.gov/node/44106),,,
35304,44106-18411,44106,FE,17434,CASCADE GOVT AFFAIRS LLC*,Employer,18411,FRANKLIN PIERCE SCHOOL DISTRICT,18-Apr,5/23/2018,16455.0,FRANKLIN PIERCE SCHOOL DISTRICT,3250.0,0.0,3250.0,0.0,0.0,0.0,0.0,0.0,0.0,0.0,3250.0,18411.0,Direct,,,View report (https://accesshub.pdc.wa.gov/node/44106),Education,Early Learning Center Funding,Capital Budget Committees
35305,44106-18412,44106,FE,17434,CASCADE GOVT AFFAIRS LLC*,Employer,18412,FRED MEYER (OXLEY & ASSOC),18-Apr,5/23/2018,16459.0,FRED MEYER (OXLEY & ASSOC),3400.0,0.0,3400.0,0.0,0.0,0.0,0.0,0.0,0.0,0.0,3400.0,18412.0,Direct,,,View report (https://accesshub.pdc.wa.gov/node/44106),Business and consumer affairs,Liquor and Initiative Signature Gathering,Commerce and State Government Committees
35306,44106-18413,44106,FE,17434,CASCADE GOVT AFFAIRS LLC*,Employer,18413,INTL CODE COUNCIL,18-Apr,5/23/2018,16539.0,INTL CODE COUNCIL,2500.0,0.0,2500.0,0.0,0.0,0.0,0.0,0.0,0.0,0.0,2500.0,18413.0,Direct,,,View report (https://accesshub.pdc.wa.gov/node/44106),State government,Building Code Issues,Labor and State Government Committees
35307,44106-18414,44106,FE,17434,CASCADE GOVT AFFAIRS LLC*,Employer,18414,MARINE VIEW VENTURES,18-Apr,5/23/2018,16618.0,MARINE VIEW VENTURES,3750.0,0.0,3750.0,0.0,0.0,0.0,0.0,0.0,0.0,0.0,3750.0,18414.0,Direct,,,View report (https://accesshub.pdc.wa.gov/node/44106),Transportation,Gas Tax Issues,Transportation Committees
35308,44106-18415,44106,FE,17434,CASCADE GOVT AFFAIRS LLC*,Employer,18415,National Electrical Manufacturers Association (NEMA) c/o MultiState Associates LLC,18-Apr,5/23/2018,16664.0,National Electrical Manufacturers Association (NEMA) c/o MultiState Associates LLC,6166.66,0.0,6166.66,0.0,0.0,0.0,0.0,0.0,0.0,0.0,6166.66,18415.0,Direct,,,View report (https://accesshub.pdc.wa.gov/node/44106),Business and consumer affairs,Building Codes and Mercury Light Recycling,Local Government and Fiscal Committees
35309,44106-39639,44106,FE,17434,CASCADE GOVT AFFAIRS LLC*,Employer,39639,NW NATURAL GAS,18-Apr,5/23/2018,16715.0,NW NATURAL GAS,5000.0,0.0,5000.0,0.0,0.0,0.0,0.0,0.0,0.0,0.0,5000.0,39639.0,Direct,,,View report (https://accesshub.pdc.wa.gov/node/44106),Energy and utilities,Carbon Taxes and Energy,"Energy and Environment, and Fiscal Committees"
35310,44106-26770,44106,FE,17434,CASCADE GOVT AFFAIRS LLC*,Employer,26770,PREPARED RESPONSE,18-Apr,5/23/2018,16813.0,PREPARED RESPONSE,2500.0,0.0,2500.0,0.0,0.0,0.0,0.0,0.0,0.0,0.0,2500.0,26770.0,Direct,,,View report (https://accesshub.pdc.wa.gov/node/44106),Education,School Safety and Mapping,Education and Fiscal Committees
35311,44106-18416,44106,FE,17434,CASCADE GOVT AFFAIRS LLC*,Employer,18416,PUGET SOUND SCHOOL COALITION/KING CO SCHOOL COALITION (THRU K AND L GATES),18-Apr,5/23/2018,16832.0,PUGET SOUND SCHOOL COALITION/KING CO SCHOOL COALITION (THRU K AND L GATES),2750.0,0.0,2750.0,0.0,0.0,0.0,0.0,0.0,0.0,0.0,2750.0,18416.0,Direct,,,View report (https://accesshub.pdc.wa.gov/node/44106),Education,School Siting Issues,Education and Environment Committees
35312,44106-18417,44106,FE,17434,CASCADE GOVT AFFAIRS LLC*,Employer,18417,School Alliance,18-Apr,5/23/2018,16879.0,School Alliance,2750.0,0.0,2750.0,0.0,0.0,0.0,0.0,0.0,0.0,0.0,2750.0,18417.0,Direct,,,View report (https://accesshub.pdc.wa.gov/node/44106),Education,Local Levy Authority,Education and Fiscal Committees
35313,44106-18418,44106,FE,17434,CASCADE GOVT AFFAIRS LLC*,Employer,18418,TACOMA PUBLIC SCHOOLS,18-Apr,5/23/2018,16968.0,TACOMA PUBLIC SCHOOLS,5000.0,0.0,5000.0,0.0,0.0,0.0,0.0,0.0,0.0,0.0,5000.0,18418.0,Direct,,,View report (https://accesshub.pdc.wa.gov/node/44106),Education,Education Funding,Education and Fiscal Committees
35314,44106-18419,44106,FE,17434,CASCADE GOVT AFFAIRS LLC*,Employer,18419,WA ASSN FOR BEHAVIOR ANALYSIS,18-Apr,5/23/2018,17047.0,WA ASSN FOR BEHAVIOR ANALYSIS,1000.0,0.0,1000.0,0.0,0.0,0.0,0.0,0.0,0.0,0.0,1000.0,18419.0,Direct,,,View report (https://accesshub.pdc.wa.gov/node/44106),,,
35315,44106-18421,44106,FE,17434,CASCADE GOVT AFFAIRS LLC*,Employer,18421,WA STATE ATHLETIC TRAINERS ASSN,18-Apr,5/23/2018,17218.0,WA STATE ATHLETIC TRAINERS ASSN,750.0,0.0,750.0,0.0,0.0,0.0,0.0,0.0,0.0,0.0,750.0,18421.0,Direct,,,View report (https://accesshub.pdc.wa.gov/node/44106),Health Care,Health Care Licensure,Health Care Committees
35316,44106-31672,44106,FE,17434,CASCADE GOVT AFFAIRS LLC*,Employer,31672,Federal Way Public Schools,18-Apr,5/23/2018,31422.0,Federal Way Public Schools,4500.0,0.0,4500.0,0.0,0.0,0.0,0.0,0.0,0.0,0.0,4500.0,31672.0,Direct,,,View report (https://accesshub.pdc.wa.gov/node/44106),Education,K-12 Funding and Capital Budget Items,Capital Budget Committees and Local legislators
35317,44121-18558,44121,FE,17489,WILLIAM F DEWEY,Employer,18558,TAYLOR SHELLFISH CO INC,18-Apr,5/25/2018,16973.0,TAYLOR SHELLFISH CO INC,509.34,0.0,509.34,0.0,0.0,0.0,0.0,0.0,0.0,0.0,509.34,18558.0,Direct,,,View report (https://accesshub.pdc.wa.gov/node/44121),Environmental Affairs - natural resources - parks,Puget Sound nutrient pollution,DOE Puget Sound Nutrient Forum
35318,44125-19236,44125,FE,17786,Leonard A Mc Comb,Employer,19236,ASSN OF WA PUBLIC HOSPITAL DISTRICTS,18-Mar,5/26/2018,16170.0,ASSN OF WA PUBLIC HOSPITAL DISTRICTS,4500.0,0.0,4500.0,41.2,0.0,0.0,0.0,0.0,0.0,41.2,4541.2,19236.0,Direct,,,View report (https://accesshub.pdc.wa.gov/node/44125),Health Care,OPERATING BUDGET,APPROPRIATIONS WAYS AND MEANS
35319,44126-19236,44126,FE,17786,Leonard A Mc Comb,Employer,19236,ASSN OF WA PUBLIC HOSPITAL DISTRICTS,18-Apr,5/26/2018,16170.0,ASSN OF WA PUBLIC HOSPITAL DISTRICTS,4500.0,0.0,4500.0,140.2,0.0,0.0,0.0,0.0,0.0,140.2,4640.2,19236.0,Direct,,,View report (https://accesshub.pdc.wa.gov/node/44126),Health Care,OPERATING BUDGET,APPROPRIATIONS WAYS AND MEANS
35320,44125-19237,44125,FE,17786,Leonard A Mc Comb,Employer,19237,CITY OF EVERETT,18-Mar,5/26/2018,16281.0,CITY OF EVERETT,4000.0,-2000.0,2000.0,0.0,0.0,0.0,0.0,0.0,0.0,0.0,2000.0,19237.0,Direct,,,View report (https://accesshub.pdc.wa.gov/node/44125),Higher education,OPERATING BUDGET,APPROPRIATIONS WAYS AND MEANS
35321,44125-19238,44125,FE,17786,Leonard A Mc Comb,Employer,19238,COMMUNITY HEALTH NETWORK OF WA,18-Mar,5/26/2018,16348.0,COMMUNITY HEALTH NETWORK OF WA,15000.0,0.0,15000.0,163.5,0.0,0.0,0.0,0.0,0.0,163.5,15163.5,19238.0,Direct,,,View report (https://accesshub.pdc.wa.gov/node/44125),Health Care,OPERATING BUDGET,APPROPRIATIONS WAYS AND MEANS
35322,44126-19238,44126,FE,17786,Leonard A Mc Comb,Employer,19238,COMMUNITY HEALTH NETWORK OF WA,18-Apr,5/26/2018,16348.0,COMMUNITY HEALTH NETWORK OF WA,15000.0,0.0,15000.0,754.82,0.0,0.0,0.0,0.0,0.0,754.82,15754.82,19238.0,Direct,,,View report (https://accesshub.pdc.wa.gov/node/44126),Health Care,OPERATING BUDGET,APPROPRIATIONS WAYS AND MEANS
35323,44125-19239,44125,FE,17786,Leonard A Mc Comb,Employer,19239,PORT OF EVERETT,18-Mar,5/26/2018,16797.0,PORT OF EVERETT,3500.0,-2000.0,1500.0,0.0,0.0,0.0,0.0,0.0,0.0,0.0,1500.0,19239.0,Direct,,,View report (https://accesshub.pdc.wa.gov/node/44125),Environmental Affairs - natural resources - parks,CAPITAL BUDGET,CAPITAL WAYS AND MEANS
35324,44126-19239,44126,FE,17786,Leonard A Mc Comb,Employer,19239,PORT OF EVERETT,18-Apr,5/26/2018,16797.0,PORT OF EVERETT,3500.0,-2000.0,1500.0,0.0,0.0,0.0,0.0,0.0,0.0,0.0,1500.0,19239.0,Direct,,,View report (https://accesshub.pdc.wa.gov/node/44126),Environmental Affairs - natural resources - parks,CAPITAL BUDGET,CAPITAL WAYS AND MEANS
35325,44125-19240,44125,FE,17786,Leonard A Mc Comb,Employer,19240,WA ST HOSPITAL ASSN,18-Mar,5/26/2018,17252.0,WA ST HOSPITAL ASSN,10500.0,0.0,10500.0,96.14,0.0,0.0,0.0,0.0,0.0,96.14,10596.14,19240.0,Direct,,,View report (https://accesshub.pdc.wa.gov/node/44125),Health Care,OPERATING BUDGET,APPROPRIATIONS WAYS AND MEANS
35326,44126-19240,44126,FE,17786,Leonard A Mc Comb,Employer,19240,WA ST HOSPITAL ASSN,18-Apr,5/26/2018,17252.0,WA ST HOSPITAL ASSN,10500.0,0.0,10500.0,327.14,0.0,0.0,0.0,0.0,0.0,327.14,10827.14,19240.0,Direct,,,View report (https://accesshub.pdc.wa.gov/node/44126),Health Care,OPERATING BUDGET,APPROPRIATIONS WAYS AND MEANS
35327,42615-31648,42615,FE,17341,RICK ANDERSON,Employer,31648,COMMUNITIES IN SCHOOLS OF WA,18-Feb,5/27/2018,16351.0,COMMUNITIES IN SCHOOLS OF WA,5000.0,0.0,5000.0,0.0,0.0,0.0,0.0,0.0,0.0,0.0,5000.0,31648.0,Direct,,,View report (https://accesshub.pdc.wa.gov/node/42615),Education,Integrated Student Supports,House and Senate K-12 Committees
35328,44128-29496,44128,FE,29495,Paula Sardinas,Employer,29496,GoWest Credit Union Association,18-Apr,5/28/2018,16703.0,GoWest Credit Union Association,4500.0,0.0,4500.0,0.0,0.0,23756.44,0.0,0.0,0.0,23756.44,28256.44,29496.0,Direct,,,View report (https://accesshub.pdc.wa.gov/node/44128),Financial institutions and insurance,,"DFI, Legislature"
35333,44130-18336,44130,FE,17422,CARL E BURKE,Employer,18336,FRATERNAL ORDER OF POLICE,18-May,5/30/2018,16457.0,FRATERNAL ORDER OF POLICE,2500.0,0.0,2500.0,42.51,0.0,0.0,0.0,0.0,0.0,42.51,2542.51,18336.0,Direct,,,View report (https://accesshub.pdc.wa.gov/node/44130),Law and justice,SB 3303,"Law and Justice, Public Safety"
35334,44130-38041,44130,FE,17422,CARL E BURKE,Employer,38041,NORTHWEST MARINE TRADE ASSN,18-May,5/30/2018,16714.0,NORTHWEST MARINE TRADE ASSN,2500.0,0.0,2500.0,158.19,103.22,0.0,0.0,0.0,0.0,261.41,2761.41,38041.0,Direct,,,View report (https://accesshub.pdc.wa.gov/node/44130),Environmental Affairs - natural resources - parks,Season setting,WDFW
35335,44130-18337,44130,FE,17422,CARL E BURKE,Employer,18337,NW SPORTFISHING INDUSTRY ASSN,18-May,5/30/2018,16721.0,NW SPORTFISHING INDUSTRY ASSN,2500.0,0.0,2500.0,0.0,0.0,0.0,0.0,0.0,0.0,0.0,2500.0,18337.0,Direct,,,View report (https://accesshub.pdc.wa.gov/node/44130),Environmental Affairs - natural resources - parks,Season setting,WDFW
35336,44135-29092,44135,FE,17542,JACK FIELD,Employer,29092,WA CATTLE FEEDERS ASSN,18-May,5/30/2018,17078.0,WA CATTLE FEEDERS ASSN,1500.0,0.0,1500.0,0.0,0.0,2047.67,0.0,0.0,0.0,2047.67,3547.67,29092.0,Direct,,,View report (https://accesshub.pdc.wa.gov/node/44135),Agriculture,"dust, brand fees, water quality, air quality","DOE, WSDA"
35337,44135-18708,44135,FE,17542,JACK FIELD,Employer,18708,Northwest Aquaculture Alliance,18-May,5/30/2018,17115.0,Northwest Aquaculture Alliance,1000.0,0.0,1000.0,0.0,0.0,2000.0,0.0,0.0,0.0,2000.0,3000.0,18708.0,Direct,,,View report (https://accesshub.pdc.wa.gov/node/44135),Environmental Affairs - natural resources - parks,aquaculture realted issues,House & Senate Ag Natural Resource Committees - net pen issues
35339,44140-18235,44140,FE,17379,ERICA D HALLOCK,Employer,18235,COUNCIL FOR A STRONG AMERICA,18-May,5/31/2018,16372.0,COUNCIL FOR A STRONG AMERICA,1000.0,0.0,1000.0,250.0,0.0,0.0,0.0,0.0,0.0,250.0,1250.0,18235.0,Direct,,,View report (https://accesshub.pdc.wa.gov/node/44140),Education,early learning,House Early Learning/Senate Early Learning
35340,44140-18236,44140,FE,17379,ERICA D HALLOCK,Employer,18236,EMPIRE HEALTH FOUNDATION,18-May,5/31/2018,16413.0,EMPIRE HEALTH FOUNDATION,200.0,0.0,200.0,0.0,0.0,0.0,0.0,0.0,0.0,0.0,200.0,18236.0,Direct,,,View report (https://accesshub.pdc.wa.gov/node/44140),Human services,performance based contracting,House Early Learning/Senate Human Services
35346,44167-19652,44167,FE,17980,K COLLINS SPRAGUE,Employer,19652,AVISTA CORP,18-May,6/1/2018,16180.0,AVISTA CORP,1000.0,0.0,1000.0,0.0,0.0,0.0,0.0,0.0,0.0,0.0,1000.0,19652.0,Direct,,,View report (https://accesshub.pdc.wa.gov/node/44167),Energy and utilities,Energy Issues,House and Senate
35347,44155-18529,44155,FE,17479,ROMAN M DANIELS-BROWN,Employer,18529,DaVita Inc.,18-May,6/1/2018,16380.0,DaVita Inc.,6000.0,0.0,6000.0,185.0,0.0,0.0,0.0,0.0,0.0,185.0,6185.0,18529.0,Direct,,,View report (https://accesshub.pdc.wa.gov/node/44155),Health Care,Health Care,Health Care Committee
35356,44155-18531,44155,FE,17479,ROMAN M DANIELS-BROWN,Employer,18531,"Novartis Services, Inc.",18-May,6/1/2018,16725.0,"Novartis Services, Inc.",4583.33,0.0,4583.33,45.0,0.0,7500.0,0.0,0.0,0.0,7545.0,12128.33,18531.0,Direct,,,View report (https://accesshub.pdc.wa.gov/node/44155),Health Care,Health Care,Health Care Committee
35357,40795-19401,40795,FE,17872,OYSTER BAY PUBLIC AFFAIRS*,Employer,19401,OTSUKA AMERICA PHARMACEUTICAL INC,18-Jan,6/1/2018,16743.0,OTSUKA AMERICA PHARMACEUTICAL INC,4000.0,0.0,4000.0,0.0,0.0,0.0,0.0,0.0,0.0,0.0,4000.0,19401.0,Direct,,,View report (https://accesshub.pdc.wa.gov/node/40795),Health Care,health care,health care
35358,44158-19401,44158,FE,17872,OYSTER BAY PUBLIC AFFAIRS*,Employer,19401,OTSUKA AMERICA PHARMACEUTICAL INC,18-May,6/1/2018,16743.0,OTSUKA AMERICA PHARMACEUTICAL INC,4000.0,0.0,4000.0,0.0,0.0,0.0,0.0,0.0,0.0,0.0,4000.0,19401.0,Direct,,,View report (https://accesshub.pdc.wa.gov/node/44158),Health Care,health care,health care
35359,44155-18532,44155,FE,17479,ROMAN M DANIELS-BROWN,Employer,18532,PACIFIC DENTAL SERVICES,18-May,6/1/2018,16749.0,PACIFIC DENTAL SERVICES,6000.0,0.0,6000.0,185.0,0.0,0.0,0.0,0.0,0.0,185.0,6185.0,18532.0,Direct,,,View report (https://accesshub.pdc.wa.gov/node/44155),Health Care,Dental Care,"Health Care Committee, DQAC"
35360,40795-19402,40795,FE,17872,OYSTER BAY PUBLIC AFFAIRS*,Employer,19402,PFIZER INC,18-Jan,6/1/2018,16774.0,PFIZER INC,5500.0,0.0,5500.0,0.0,0.0,0.0,0.0,0.0,0.0,0.0,5500.0,19402.0,Direct,,,View report (https://accesshub.pdc.wa.gov/node/40795),Health Care,health care,health care
35361,44158-19402,44158,FE,17872,OYSTER BAY PUBLIC AFFAIRS*,Employer,19402,PFIZER INC,18-May,6/1/2018,16774.0,PFIZER INC,5500.0,0.0,5500.0,0.0,0.0,1900.0,0.0,0.0,0.0,1900.0,7400.0,19402.0,Direct,,,View report (https://accesshub.pdc.wa.gov/node/44158),Health Care,health care,health care
35362,44152-19739,44152,FE,18019,MICHAEL TEMPLE,Employer,19739,PHARMACEUTICAL CARE MANAGEMENT ASSN,18-May,6/1/2018,16775.0,PHARMACEUTICAL CARE MANAGEMENT ASSN,5000.0,0.0,5000.0,0.0,0.0,0.0,0.0,0.0,0.0,0.0,5000.0,19739.0,Direct,,,View report (https://accesshub.pdc.wa.gov/node/44152),Health Care,Health,"Legislature, Governor, OIC"
35363,40795-19403,40795,FE,17872,OYSTER BAY PUBLIC AFFAIRS*,Employer,19403,Washington School Counselor Association,18-Jan,6/1/2018,16880.0,Washington School Counselor Association,1500.0,0.0,1500.0,0.0,0.0,0.0,0.0,0.0,0.0,0.0,1500.0,19403.0,Direct,,,View report (https://accesshub.pdc.wa.gov/node/40795),Education,education,Education Committees
35364,44158-19403,44158,FE,17872,OYSTER BAY PUBLIC AFFAIRS*,Employer,19403,Washington School Counselor Association,18-May,6/1/2018,16880.0,Washington School Counselor Association,1500.0,0.0,1500.0,0.0,0.0,0.0,0.0,0.0,0.0,0.0,1500.0,19403.0,Direct,,,View report (https://accesshub.pdc.wa.gov/node/44158),Education,education,Education Committees
35365,44152-19740,44152,FE,18019,MICHAEL TEMPLE,Employer,19740,SPOKANE TRIBE OF INDIANS,18-May,6/1/2018,16944.0,SPOKANE TRIBE OF INDIANS,5000.0,0.0,5000.0,0.0,0.0,0.0,0.0,0.0,0.0,0.0,5000.0,19740.0,Direct,,,View report (https://accesshub.pdc.wa.gov/node/44152),Environmental Affairs - natural resources - parks,Tribal issues,"Legislature, Governor, DNR"
35366,44155-39257,44155,FE,17479,ROMAN M DANIELS-BROWN,Employer,39257,Astria Health,18-May,6/1/2018,16957.0,Astria Health,6000.0,0.0,6000.0,185.0,0.0,0.0,0.0,0.0,0.0,185.0,6185.0,39257.0,Direct,,,View report (https://accesshub.pdc.wa.gov/node/44155),Health Care,Health Care,Health Care Committee
35367,40795-19405,40795,FE,17872,OYSTER BAY PUBLIC AFFAIRS*,Employer,19405,WA ASSN OF BUILDING OFFICIALS,18-Jan,6/1/2018,17066.0,WA ASSN OF BUILDING OFFICIALS,2500.0,0.0,2500.0,0.0,0.0,0.0,0.0,0.0,0.0,0.0,2500.0,19405.0,Direct,,,View report (https://accesshub.pdc.wa.gov/node/40795),Local government,building issues,"local government, state government"
35368,44158-19405,44158,FE,17872,OYSTER BAY PUBLIC AFFAIRS*,Employer,19405,WA ASSN OF BUILDING OFFICIALS,18-May,6/1/2018,17066.0,WA ASSN OF BUILDING OFFICIALS,2500.0,0.0,2500.0,190.08,0.0,0.0,0.0,0.0,0.0,190.08,2690.08,19405.0,Direct,,,View report (https://accesshub.pdc.wa.gov/node/44158),Local government,building issues,"local government, state government"
35369,40795-39142,40795,FE,17872,OYSTER BAY PUBLIC AFFAIRS*,Employer,39142,WA BEER & WINE DISTRIBUTORS ASSN (CIVIC GROUP*),18-Jan,6/1/2018,17067.0,WA BEER & WINE DISTRIBUTORS ASSN,2500.0,0.0,2500.0,0.0,0.0,0.0,0.0,0.0,0.0,0.0,2500.0,39142.0,Subcontract,17450.0,CIVIC GROUP*,View report (https://accesshub.pdc.wa.gov/node/40795),,,
35370,44158-39142,44158,FE,17872,OYSTER BAY PUBLIC AFFAIRS*,Employer,39142,WA BEER & WINE DISTRIBUTORS ASSN (CIVIC GROUP*),18-May,6/1/2018,17067.0,WA BEER & WINE DISTRIBUTORS ASSN,2500.0,0.0,2500.0,0.0,0.0,0.0,0.0,0.0,0.0,0.0,2500.0,39142.0,Subcontract,17450.0,CIVIC GROUP*,View report (https://accesshub.pdc.wa.gov/node/44158),,,
35371,40795-19407,40795,FE,17872,OYSTER BAY PUBLIC AFFAIRS*,Employer,19407,NORTHWEST CAREER COLLEGE FEDERATION,18-Jan,6/1/2018,17118.0,NORTHWEST CAREER COLLEGE FEDERATION,2666.67,0.0,2666.67,0.0,0.0,0.0,0.0,0.0,0.0,0.0,2666.67,19407.0,Direct,,,View report (https://accesshub.pdc.wa.gov/node/40795),Higher education,higher ed,higher ed
35372,44158-19407,44158,FE,17872,OYSTER BAY PUBLIC AFFAIRS*,Employer,19407,NORTHWEST CAREER COLLEGE FEDERATION,18-May,6/1/2018,17118.0,NORTHWEST CAREER COLLEGE FEDERATION,2666.67,0.0,2666.67,67.5,0.0,0.0,0.0,0.0,0.0,67.5,2734.17,19407.0,Direct,,,View report (https://accesshub.pdc.wa.gov/node/44158),Higher education,higher ed,higher ed
35373,40795-19408,40795,FE,17872,OYSTER BAY PUBLIC AFFAIRS*,Employer,19408,WA HEALTH ALLIANCE,18-Jan,6/1/2018,17126.0,WA HEALTH ALLIANCE,2300.0,0.0,2300.0,0.0,0.0,0.0,0.0,0.0,0.0,0.0,2300.0,19408.0,Direct,,,View report (https://accesshub.pdc.wa.gov/node/40795),Health Care,health care,health care
