,id,report_number,origin,filer_id,filer_name,type,funding_source_id,funding_source_name,filing_period,receipt_date,employer_id,employer_name,compensation,sub_lobbyist_compensation,net_compensation,personal_expenses,entertainment,contributions,advertising,political_ads,other,total_expenses,net_total,employment_registration_id,employment_type,contractor_id,contractor_name,url,legislation_subject_matter,issue_bill_number,committee_lobbied
20001,34077-19927,34077,FE,18111,MATT ZUVICH,Employer,19927,WA FEDERATION OF STATE EMPLOYEES,17-May,6/14/2017,17121.0,WA FEDERATION OF STATE EMPLOYEES,7012.5,0.0,7012.5,0.0,0.0,0.0,0.0,0.0,0.0,0.0,7012.5,19927.0,Direct,,,View report (https://accesshub.pdc.wa.gov/node/34077),State government,"HB2145, HB2146",House Finance
20003,34059-19888,34059,FE,18088,White Tudor LLC,Employer,19888,WA OCCUPATIONAL THERAPY ASSN,17-May,6/14/2017,17161.0,WA OCCUPATIONAL THERAPY ASSN,2700.0,0.0,2700.0,0.0,0.0,0.0,0.0,0.0,0.0,0.0,2700.0,19888.0,Direct,,,View report (https://accesshub.pdc.wa.gov/node/34059),Health Care,many,"HCA, L&I, OT Practice Board, OIC"
20004,34131-18652,34131,FE,17520,Emerick & Bloom,Employer,18652,Home Care Association of America,17-May,6/14/2017,17168.0,Home Care Association of America,1500.0,0.0,1500.0,0.0,0.0,0.0,0.0,0.0,0.0,0.0,1500.0,18652.0,Direct,,,View report (https://accesshub.pdc.wa.gov/node/34131),Health Care,Private Pay Home Care,"HCA, DOH, Health Care Committees"
20005,34088-19326,34088,FE,17827,STEPHEN F MULLIN,Employer,19326,WA ROUNDTABLE,17-May,6/14/2017,17178.0,WA ROUNDTABLE,1175.0,0.0,1175.0,0.0,0.0,0.0,0.0,0.0,0.0,0.0,1175.0,19326.0,Direct,,,View report (https://accesshub.pdc.wa.gov/node/34088),Education,Various,Various
20006,34087-19716,34087,FE,18000,NEIL STREGE,Employer,19716,WA ROUNDTABLE,17-May,6/14/2017,17178.0,WA ROUNDTABLE,2367.0,0.0,2367.0,0.0,0.0,0.0,0.0,0.0,0.0,0.0,2367.0,19716.0,Direct,,,View report (https://accesshub.pdc.wa.gov/node/34087),Education,Various,Various
20008,34043-19253,34043,FE,17796,JAMES MCMAHAN,Employer,19253,WA ASSN OF SHERIFFS & POLICE CHIEFS,17-May,6/14/2017,17196.0,WA ASSN OF SHERIFFS & POLICE CHIEFS,408.89,0.0,408.89,0.0,0.0,0.0,0.0,0.0,0.0,0.0,408.89,19253.0,Direct,,,View report (https://accesshub.pdc.wa.gov/node/34043),Law and justice,Budget,State Legislature
20011,34054-18421,34054,FE,17434,CASCADE GOVT AFFAIRS LLC*,Employer,18421,WA STATE ATHLETIC TRAINERS ASSN,17-May,6/14/2017,17218.0,WA STATE ATHLETIC TRAINERS ASSN,750.0,0.0,750.0,0.0,0.0,0.0,0.0,0.0,0.0,0.0,750.0,18421.0,Direct,,,View report (https://accesshub.pdc.wa.gov/node/34054),Health Care,Health Care Licensure,Health Care Committees
20012,34051-18949,34051,FE,17621,NEIL T HARTMAN,Employer,18949,WA ST BUILDING & CONSTRUCTION TRADES COUNCIL,17-May,6/14/2017,17223.0,WA ST BUILDING & CONSTRUCTION TRADES COUNCIL,3500.0,0.0,3500.0,0.0,0.0,0.0,0.0,0.0,0.0,0.0,3500.0,18949.0,Direct,,,View report (https://accesshub.pdc.wa.gov/node/34051),Transportation,Labor related issues,ALL
20013,34048-19358,34048,FE,17847,LEE NEWGENT,Employer,19358,WA ST BUILDING & CONSTRUCTION TRADES COUNCIL,17-May,6/14/2017,17223.0,WA ST BUILDING & CONSTRUCTION TRADES COUNCIL,6026.0,0.0,6026.0,0.0,0.0,0.0,0.0,0.0,0.0,0.0,6026.0,19358.0,Direct,,,View report (https://accesshub.pdc.wa.gov/node/34048),Transportation,Labor related issues,ALL
20014,34122-18439,34122,FE,17448,"DONNA CHRISTENSEN, PACIFIC GOVERNMENT AFFAIRS",Employer,18439,WA ST CATHOLIC CONFERENCE,17-May,6/14/2017,17228.0,WA ST CATHOLIC CONFERENCE,3800.0,0.0,3800.0,0.0,0.0,0.0,0.0,0.0,0.0,0.0,3800.0,18439.0,Direct,,,View report (https://accesshub.pdc.wa.gov/node/34122),Fiscal,budget,"Budget committees, human services"
20015,34144-19762,34144,FE,18024,Roosevelt Consulting,Employer,19762,WA STATE COUNCIL OF COUNTY & CITY EMPLOYEES,17-May,6/14/2017,17230.0,WA STATE COUNCIL OF COUNTY & CITY EMPLOYEES,797.0,0.0,797.0,0.0,0.0,0.0,0.0,0.0,0.0,0.0,797.0,19762.0,Direct,,,View report (https://accesshub.pdc.wa.gov/node/34144),Fiscal,budget,"ways and means, appropriations"
20016,34089-18914,34089,FE,17601,LAURA W GROSHONG,Employer,18914,WA ST COALITION MENTAL HLTH PROF & CONSUMERS,17-May,6/14/2017,17235.0,WA ST COALITION MENTAL HLTH PROF & CONSUMERS,500.0,0.0,500.0,0.0,0.0,0.0,0.0,0.0,0.0,0.0,500.0,18914.0,Direct,,,View report (https://accesshub.pdc.wa.gov/node/34089),,,
20017,34064-18560,34064,FE,17491,SCOTT DILLEY,Employer,18560,WA ST DAIRY FEDERATION,17-May,6/14/2017,17239.0,WA ST DAIRY FEDERATION,4000.0,0.0,4000.0,0.0,0.0,0.0,0.0,0.0,0.0,0.0,4000.0,18560.0,Direct,,,View report (https://accesshub.pdc.wa.gov/node/34064),Agriculture,Dairy,Legislature and State agencies
20018,32984-18868,32984,FE,17583,JAY GORDON,Employer,18868,WA ST DAIRY FEDERATION,17-Apr,6/14/2017,17239.0,WA ST DAIRY FEDERATION,5000.0,0.0,5000.0,0.0,0.0,0.0,0.0,0.0,0.0,0.0,5000.0,18868.0,Direct,,,View report (https://accesshub.pdc.wa.gov/node/32984),Agriculture,All dairy issues,Legislature and State Agencies
20019,34063-18868,34063,FE,17583,JAY GORDON,Employer,18868,WA ST DAIRY FEDERATION,17-May,6/14/2017,17239.0,WA ST DAIRY FEDERATION,5000.0,0.0,5000.0,0.0,0.0,0.0,0.0,0.0,0.0,0.0,5000.0,18868.0,Direct,,,View report (https://accesshub.pdc.wa.gov/node/34063),Agriculture,All dairy issues,Legislature and State Agencies
20020,34062-19906,34062,FE,18099,DAN WOOD,Employer,19906,WA ST DAIRY FEDERATION,17-May,6/14/2017,17239.0,WA ST DAIRY FEDERATION,5000.0,0.0,5000.0,0.0,0.0,0.0,0.0,0.0,0.0,0.0,5000.0,19906.0,Direct,,,View report (https://accesshub.pdc.wa.gov/node/34062),Agriculture,All dairy issues,Legislature and State Agencies
20021,34099-19240,34099,FE,17786,Leonard A Mc Comb,Employer,19240,WA ST HOSPITAL ASSN,17-May,6/14/2017,17252.0,WA ST HOSPITAL ASSN,10500.0,0.0,10500.0,170.86,0.0,0.0,0.0,0.0,0.0,170.86,10670.86,19240.0,Direct,,,View report (https://accesshub.pdc.wa.gov/node/34099),Health Care,OPERATING BUDGET,APPROPRIATIONS WAYS AND MEANS
20022,34131-18653,34131,FE,17520,Emerick & Bloom,Employer,18653,WA ST HOSPICE & PALLIATIVE CARE ORG,17-May,6/14/2017,17255.0,WA ST HOSPICE & PALLIATIVE CARE ORG,3605.0,0.0,3605.0,0.0,0.0,0.0,0.0,0.0,0.0,0.0,3605.0,18653.0,Direct,,,View report (https://accesshub.pdc.wa.gov/node/34131),Health Care,Hospice,"HCA, DOH, Health Care Committees"
20024,34080-19190,34080,FE,17771,MARIE SULLIVAN PUBLIC AFFAIRS CORP.,Employer,19190,WA ST PTA,17-May,6/14/2017,17277.0,WA ST PTA,4250.0,0.0,4250.0,0.0,0.0,0.0,0.0,0.0,0.0,0.0,4250.0,19190.0,Direct,,,View report (https://accesshub.pdc.wa.gov/node/34080),Education,"education funding, assessments (HB 1046)","Education funding negotiators, House and Senate education leaders; OSPI GR team"
20025,34105-18798,34105,FE,17575,DAVOR GJURASIC,Employer,18798,WA ST PATROL TROOPERS ASSN,17-May,6/14/2017,17278.0,WA ST PATROL TROOPERS ASSN,5000.0,0.0,5000.0,50.5,0.0,0.0,0.0,0.0,0.0,50.5,5050.5,18798.0,Direct,,,View report (https://accesshub.pdc.wa.gov/node/34105),,,
20026,34118-18434,34118,FE,17446,MARIA CHIECHI,Employer,18434,Adult Family Home Council,17-May,6/14/2017,17280.0,Adult Family Home Council,1000.0,0.0,1000.0,0.0,0.0,0.0,0.0,0.0,0.0,0.0,1000.0,18434.0,Direct,,,View report (https://accesshub.pdc.wa.gov/node/34118),Fiscal,Budget,Appropriations & Ways & Means Members
20028,34116-18559,34116,FE,17490,DIEDRICK GOVERNMENTAL AFFAIRS LLC,Employer,18559,WA ST SCHOOL RETIREES ASSN,17-May,6/14/2017,17286.0,WA ST SCHOOL RETIREES ASSN,5500.0,0.0,5500.0,0.0,0.0,0.0,0.0,0.0,0.0,0.0,5500.0,18559.0,Direct,,,View report (https://accesshub.pdc.wa.gov/node/34116),Fiscal,Plan 1 Retiree COLAs,Senate Ways and Means; House Appropriations
20030,34122-18440,34122,FE,17448,"DONNA CHRISTENSEN, PACIFIC GOVERNMENT AFFAIRS",Employer,18440,Washington State Alliance of YMCAs,17-May,6/14/2017,17323.0,Washington State Alliance of YMCAs,3090.0,0.0,3090.0,0.0,0.0,0.0,0.0,0.0,0.0,0.0,3090.0,18440.0,Direct,,,View report (https://accesshub.pdc.wa.gov/node/34122),Fiscal,budget,"DEL, Appropriations, Ways & Means"
20031,34138-33677,34138,FE,17977,SOUND VIEW STRATEGIES LLC*,Employer,33677,City of Medina,17-May,6/14/2017,26873.0,City of Medina,6000.0,0.0,6000.0,0.0,0.0,0.0,0.0,0.0,0.0,0.0,6000.0,33677.0,Direct,,,View report (https://accesshub.pdc.wa.gov/node/34138),Transportation,Transportation Matters,Dept. of Transportation
20032,34069-26880,34069,FE,17413,MARK O BROWN,Employer,26880,City of Carnation,17-May,6/14/2017,26878.0,City of Carnation,3000.0,0.0,3000.0,0.0,0.0,0.0,0.0,0.0,0.0,0.0,3000.0,26880.0,Direct,,,View report (https://accesshub.pdc.wa.gov/node/34069),Fiscal,Fiscal,Local Government
20033,34059-27064,34059,FE,18088,White Tudor LLC,Employer,27064,College of American Pathologists,17-May,6/14/2017,27061.0,College of American Pathologists,2000.0,0.0,2000.0,0.0,0.0,0.0,0.0,0.0,0.0,0.0,2000.0,27064.0,Direct,,,View report (https://accesshub.pdc.wa.gov/node/34059),Health Care,balance billing,OIC/legislature
20034,34122-28248,34122,FE,17448,"DONNA CHRISTENSEN, PACIFIC GOVERNMENT AFFAIRS",Employer,28248,Washington Continuing Care Residents Association,17-May,6/14/2017,27296.0,Washington Continuing Care Residents Association,1000.0,0.0,1000.0,0.0,0.0,0.0,0.0,0.0,0.0,0.0,1000.0,28248.0,Direct,,,View report (https://accesshub.pdc.wa.gov/node/34122),Health Care,consumer protection,Health care
20035,34059-28165,34059,FE,18088,White Tudor LLC,Employer,28165,WA St Society of Pathologists,17-May,6/14/2017,28164.0,WA St Society of Pathologists,2000.0,0.0,2000.0,0.0,0.0,0.0,0.0,0.0,0.0,0.0,2000.0,28165.0,Direct,,,View report (https://accesshub.pdc.wa.gov/node/34059),Health Care,balance billing,"legislature, OIC"
20036,33992-29234,33992,FE,29233,Philip J. Watson,Employer,29234,Firearms Policy Coalition,17-May,6/14/2017,29232.0,Firearms Policy Coalition,339.45,0.0,339.45,0.0,0.0,0.0,4.29,0.0,0.0,4.29,343.74,29234.0,Direct,,,View report (https://accesshub.pdc.wa.gov/node/33992),Law and justice,"1004, 1015, 1100, 1122, 1134, 1190, 1270, 1380, 1381, 1387, 1501, 1725, 1731, 1933, 5044, 5050, 5268, 5474, 5465, 5506, 5552, 5557",House Judiciary & Senate Law and Justice
20037,34138-30855,34138,FE,17977,SOUND VIEW STRATEGIES LLC*,Employer,30855,"Airbnb, Inc.",17-May,6/14/2017,30820.0,"Airbnb, Inc.",3000.0,0.0,3000.0,0.0,0.0,0.0,0.0,0.0,0.0,0.0,3000.0,30855.0,Direct,,,View report (https://accesshub.pdc.wa.gov/node/34138),Fiscal,HB2015,Taxation
20038,34105-31274,34105,FE,17575,DAVOR GJURASIC,Employer,31274,Snoqualmie Tribe,17-May,6/14/2017,31273.0,Snoqualmie Tribe,5416.66,0.0,5416.66,0.0,0.0,0.0,0.0,0.0,0.0,0.0,5416.66,31274.0,Direct,,,View report (https://accesshub.pdc.wa.gov/node/34105),Environmental Affairs - natural resources - parks,water,House Agriculture and Natural Resources
20039,34054-31672,34054,FE,17434,CASCADE GOVT AFFAIRS LLC*,Employer,31672,Federal Way Public Schools,17-May,6/14/2017,31422.0,Federal Way Public Schools,4500.0,0.0,4500.0,0.0,0.0,0.0,0.0,0.0,0.0,0.0,4500.0,31672.0,Direct,,,View report (https://accesshub.pdc.wa.gov/node/34054),Education,K-12 Funding and Capital Budget Items,Capital Budget Committees and Local legislators
20056,34259-18490,34259,FE,17465,Coyne Jesernig LLC,Employer,18490,ALASKA AIRLINES,17-May,6/15/2017,16077.0,ALASKA AIRLINES,6000.0,0.0,6000.0,0.0,0.0,0.0,0.0,0.0,0.0,0.0,6000.0,18490.0,Direct,,,View report (https://accesshub.pdc.wa.gov/node/34259),Transportation,Real ID,H & S Transportation
20057,34259-18491,34259,FE,17465,Coyne Jesernig LLC,Employer,18491,ALIGNED AG DISTRIBUTORS LLC,17-May,6/15/2017,16078.0,ALIGNED AG DISTRIBUTORS LLC,3000.0,0.0,3000.0,0.0,0.0,0.0,0.0,0.0,0.0,0.0,3000.0,18491.0,Direct,,,View report (https://accesshub.pdc.wa.gov/node/34259),Fiscal,B&O Tax,"H Finance, W&M"
20058,34150-24862,34150,FE,18045,Amber Ulvenes,Employer,24862,ALZHEIMERS ASSN WA ST CHAPTER,17-May,6/15/2017,16086.0,ALZHEIMERS ASSN WA ST CHAPTER,1000.0,0.0,1000.0,0.0,0.0,0.0,0.0,0.0,0.0,0.0,1000.0,24862.0,Direct,,,View report (https://accesshub.pdc.wa.gov/node/34150),Health Care,FTE funding to support DAC,Health Care & Appropriations Committees
20059,33675-32170,33675,FE,17526,Arbutus Consulting LLC,Employer,32170,"Elevance Health, and its Affiliates",17-May,6/15/2017,16107.0,"Elevance Health, and its Affiliates",3000.0,0.0,3000.0,0.0,0.0,0.0,0.0,0.0,0.0,0.0,3000.0,32170.0,Direct,,,View report (https://accesshub.pdc.wa.gov/node/33675),Health Care,Medicaid,Policy and Fiscal Committees
20060,34238-19680,34238,FE,17991,MELANIE STEWART & ASSOC LLC*,Employer,19680,AMERICAN MASSAGE THERAPY ASSN- WA CHAPTER,17-May,6/15/2017,16115.0,AMERICAN MASSAGE THERAPY ASSN- WA CHAPTER,1250.0,0.0,1250.0,0.0,0.0,0.0,0.0,0.0,1000.0,1000.0,2250.0,19680.0,Direct,,,View report (https://accesshub.pdc.wa.gov/node/34238),,,
20061,33922-19197,33922,FE,17774,TIMOTHY A MARTIN,Employer,19197,AMGEN INC,17-May,6/15/2017,16127.0,AMGEN INC,2596.0,0.0,2596.0,0.0,0.0,0.0,0.0,0.0,0.0,0.0,2596.0,19197.0,Direct,,,View report (https://accesshub.pdc.wa.gov/node/33922),Technology,Biotechnology,Legislature
20062,34228-18732,34228,FE,17554,DAVID S FOSTER,Employer,18732,ARTSFUND,17-May,6/15/2017,16142.0,ARTSFUND,2000.0,0.0,2000.0,0.0,0.0,0.0,0.0,0.0,0.0,0.0,2000.0,18732.0,Direct,,,View report (https://accesshub.pdc.wa.gov/node/34228),Fiscal,Capital Budget,"Capital Budget, Ways & Means"
20063,34006-19743,34006,FE,18021,LISA THATCHER,Employer,19743,ASSN OF DENTAL SUPPORT ORGANIZATIONS,17-May,6/15/2017,16153.0,ASSN OF DENTAL SUPPORT ORGANIZATIONS,5000.0,0.0,5000.0,71.97,0.0,0.0,0.0,0.0,0.0,71.97,5071.97,19743.0,Direct,,,View report (https://accesshub.pdc.wa.gov/node/34006),Health Care,Support services offered to dentists,Dept of Health
20064,34204-19617,34204,FE,17964,SCOTT C SIGMON,Employer,19617,WA ST CHAPTER OF ASSOC PUBLIC SAFETY COMMUNICATIONS OFFICIALS,17-May,6/15/2017,16158.0,WA ST CHAPTER OF ASSOC PUBLIC SAFETY COMMUNICATIONS OFFICIALS,2000.0,0.0,2000.0,0.0,0.0,0.0,0.0,0.0,0.0,0.0,2000.0,19617.0,Direct,,,View report (https://accesshub.pdc.wa.gov/node/34204),Fiscal,SB 5048,Fiscal Committees
20065,34202-19137,34202,FE,17744,VICTORIA LINCOLN,Employer,19137,ASSN OF WA CITIES,17-May,6/15/2017,16168.0,ASSN OF WA CITIES,452.21,0.0,452.21,0.0,0.0,0.0,0.0,0.0,0.0,0.0,452.21,19137.0,Direct,,,View report (https://accesshub.pdc.wa.gov/node/34202),Technology,Telecom bill,"Gov's Staff, Telecom industry reps, Sen Carlyle"
20066,34196-19574,34196,FE,17940,CARL SCHROEDER,Employer,19574,ASSN OF WA CITIES,17-May,6/15/2017,16168.0,ASSN OF WA CITIES,281.39,0.0,281.39,0.0,0.0,0.0,0.0,0.0,0.0,0.0,281.39,19574.0,Direct,,,View report (https://accesshub.pdc.wa.gov/node/34196),Human services,1797,"Reps Chopp, McBride, Fitzgibbon"
20067,34006-19744,34006,FE,18021,LISA THATCHER,Employer,19744,ASSN OF WA PUBLIC HOSPITAL DISTRICTS,17-May,6/15/2017,16170.0,ASSN OF WA PUBLIC HOSPITAL DISTRICTS,4500.0,0.0,4500.0,0.0,0.0,0.0,0.0,0.0,0.0,0.0,4500.0,19744.0,Direct,,,View report (https://accesshub.pdc.wa.gov/node/34006),Fiscal,Public bidding issues,CPARB
20069,31172-19359,31172,FE,17848,THE NEXUS GROUP LLC*,Employer,19359,ASSN OF WA SCHOOL PRINCIPALS,17-Feb,6/15/2017,16173.0,ASSN OF WA SCHOOL PRINCIPALS,1373.0,0.0,1373.0,0.0,0.0,0.0,0.0,0.0,0.0,0.0,1373.0,19359.0,Direct,,,View report (https://accesshub.pdc.wa.gov/node/31172),Fiscal,Pension/Health Care/Compensation,SCPP PFC APP DRS
20070,32107-19359,32107,FE,17848,THE NEXUS GROUP LLC*,Employer,19359,ASSN OF WA SCHOOL PRINCIPALS,17-Mar,6/15/2017,16173.0,ASSN OF WA SCHOOL PRINCIPALS,1373.0,0.0,1373.0,0.0,0.0,0.0,0.0,0.0,0.0,0.0,1373.0,19359.0,Direct,,,View report (https://accesshub.pdc.wa.gov/node/32107),Fiscal,Pension/Health Care/Compensation,SCPP PFC APP DRS
20071,32943-19359,32943,FE,17848,THE NEXUS GROUP LLC*,Employer,19359,ASSN OF WA SCHOOL PRINCIPALS,17-Apr,6/15/2017,16173.0,ASSN OF WA SCHOOL PRINCIPALS,1373.0,0.0,1373.0,0.0,0.0,0.0,0.0,0.0,0.0,0.0,1373.0,19359.0,Direct,,,View report (https://accesshub.pdc.wa.gov/node/32943),Fiscal,"Pension, Health Care","DRS, SCPP, PFC,APPS"
20072,33685-19359,33685,FE,17848,THE NEXUS GROUP LLC*,Employer,19359,ASSN OF WA SCHOOL PRINCIPALS,17-May,6/15/2017,16173.0,ASSN OF WA SCHOOL PRINCIPALS,3000.0,0.0,3000.0,0.0,0.0,0.0,0.0,0.0,0.0,0.0,3000.0,19359.0,Direct,,,View report (https://accesshub.pdc.wa.gov/node/33685),Fiscal,"Pension, Health Care","DRS, SCPP, PFC,APPS"
20073,34259-18492,34259,FE,17465,Coyne Jesernig LLC,Employer,18492,Battelle,17-May,6/15/2017,16184.0,Battelle,4100.0,0.0,4100.0,0.0,0.0,0.0,0.0,0.0,0.0,0.0,4100.0,18492.0,Direct,,,View report (https://accesshub.pdc.wa.gov/node/34259),Technology,Capital Budget,"H Cap Budget, W&M"
20074,34156-29720,34156,FE,27746,Alex Alston Consulting,Employer,29720,WASHINGTON BIKES,17-May,6/15/2017,16191.0,WASHINGTON BIKES,3000.0,0.0,3000.0,0.0,0.0,0.0,0.0,0.0,0.0,0.0,3000.0,29720.0,Direct,,,View report (https://accesshub.pdc.wa.gov/node/34156),Transportation,"SB 5402, HB 1795",Transportation Committees
20075,34259-18493,34259,FE,17465,Coyne Jesernig LLC,Employer,18493,BIOTECHNOLOGY INNOVATION ORGANIZATION,17-May,6/15/2017,16193.0,BIOTECHNOLOGY INNOVATION ORGANIZATION,3500.0,0.0,3500.0,0.0,0.0,0.0,0.0,0.0,0.0,0.0,3500.0,18493.0,Direct,,,View report (https://accesshub.pdc.wa.gov/node/34259),Agriculture,Labeling,"AGNR, AWTED"
20076,34247-18431,34247,FE,17443,CHECKERBOARD CONSULTING SERVICES LLC*,Employer,18431,BOEING EMPLOYEES CREDIT UNION,17-May,6/15/2017,16200.0,BOEING EMPLOYEES CREDIT UNION,8124.0,0.0,8124.0,0.0,0.0,0.0,0.0,0.0,0.0,0.0,8124.0,18431.0,Direct,,,View report (https://accesshub.pdc.wa.gov/node/34247),Fiscal,Taxes,SWays and Means HFin. HFinancial Institutions
20077,34045-19255,34045,FE,17798,WILLIAM J MCSHERRY,Employer,19255,BOEING,17-May,6/15/2017,16201.0,BOEING,7048.0,0.0,7048.0,0.0,0.0,0.0,0.0,0.0,0.0,0.0,7048.0,19255.0,Direct,,,View report (https://accesshub.pdc.wa.gov/node/34045),Fiscal,Taxes,Legislators
20078,33567-19882,33567,FE,18085,RICHARD WHITE,Employer,19882,BOEING,17-Apr,6/15/2017,16201.0,BOEING,15525.0,0.0,15525.0,0.0,0.0,0.0,0.0,0.0,0.0,0.0,15525.0,19882.0,Direct,,,View report (https://accesshub.pdc.wa.gov/node/33567),Fiscal,Aerospace tax incentives clawback legislation,House Finance Committee
20079,34203-19882,34203,FE,18085,RICHARD WHITE,Employer,19882,BOEING,17-May,6/15/2017,16201.0,BOEING,276.0,0.0,276.0,0.0,0.0,0.0,0.0,0.0,0.0,0.0,276.0,19882.0,Direct,,,View report (https://accesshub.pdc.wa.gov/node/34203),Fiscal,Aerospace tax incentives clawback legislation,House Finance Committee
20080,33568-29256,33568,FE,29213,Ryan R. Tomasich,Employer,29256,BOEING,17-Apr,6/15/2017,16201.0,BOEING,15525.0,0.0,15525.0,0.0,0.0,0.0,0.0,0.0,0.0,0.0,15525.0,29256.0,Direct,,,View report (https://accesshub.pdc.wa.gov/node/33568),Fiscal,Aerospace tax incentives clawback legislation,House Finance Committee
20081,34136-29256,34136,FE,29213,Ryan R. Tomasich,Employer,29256,BOEING,17-May,6/15/2017,16201.0,BOEING,14232.0,0.0,14232.0,0.0,0.0,0.0,0.0,0.0,0.0,0.0,14232.0,29256.0,Direct,,,View report (https://accesshub.pdc.wa.gov/node/34136),Fiscal,Aerospace tax incentives clawback legislation,House Finance Committee
20082,32503-19515,32503,FE,17906,PUBLIC AFFAIRS OF WA LLC*,Employer,19515,BLDG OWNERS & MANAGERS ASSN OF KING CO,17-Mar,6/15/2017,16216.0,BLDG OWNERS & MANAGERS ASSN OF KING CO,1633.09,0.0,1633.09,101.26,0.0,0.0,0.0,0.0,0.0,101.26,1734.35,19515.0,Direct,,,View report (https://accesshub.pdc.wa.gov/node/32503),Fiscal,Buildings,Hs Sen Fiscal
20083,34183-19515,34183,FE,17906,PUBLIC AFFAIRS OF WA LLC*,Employer,19515,BLDG OWNERS & MANAGERS ASSN OF KING CO,17-May,6/15/2017,16216.0,BLDG OWNERS & MANAGERS ASSN OF KING CO,1633.09,0.0,1633.09,112.74,0.0,0.0,0.0,0.0,0.0,112.74,1745.83,19515.0,Direct,,,View report (https://accesshub.pdc.wa.gov/node/34183),Fiscal,Buildings,Hs Sen Fiscal
20084,33126-32856,33126,FE,25651,Insight Strategic Partners LLC,Employer,32856,CHELAN CO PUBLIC UTILITY DIST #1,17-Apr,6/15/2017,16254.0,CHELAN CO PUBLIC UTILITY DIST #1,7500.0,0.0,7500.0,0.0,0.0,0.0,0.0,0.0,0.0,0.0,7500.0,32856.0,Direct,,,View report (https://accesshub.pdc.wa.gov/node/33126),Energy and utilities,Energy and Telecommunications,Executive Branch
20085,34141-32856,34141,FE,25651,Insight Strategic Partners LLC,Employer,32856,CHELAN CO PUBLIC UTILITY DIST #1,17-May,6/15/2017,16254.0,CHELAN CO PUBLIC UTILITY DIST #1,7500.0,0.0,7500.0,0.0,0.0,0.0,0.0,0.0,0.0,0.0,7500.0,32856.0,Direct,,,View report (https://accesshub.pdc.wa.gov/node/34141),Energy and utilities,Energy and Utilties,Utilities and Transportation
20087,34058-18479,34058,FE,17460,COMMUNICO*,Employer,18479,"Citigroup Washington, Inc.",17-May,6/15/2017,16268.0,"Citigroup Washington, Inc.",3333.33,0.0,3333.33,0.0,0.0,0.0,0.0,0.0,0.0,0.0,3333.33,18479.0,Direct,,,View report (https://accesshub.pdc.wa.gov/node/34058),Financial institutions and insurance,Banking,"S-Financial Institutions & Insurance, H-Business & Financial Services"
20088,34180-20104,34180,FE,17666,ALEX HUR,Employer,20104,Cities Insurance Assn of WA (CAPITOL SOLUTIONS*),17-May,6/15/2017,16269.0,Cities Insurance Assn of WA,2440.0,0.0,2440.0,0.0,0.0,0.0,0.0,0.0,0.0,0.0,2440.0,20104.0,Subcontract,17431.0,CAPITOL SOLUTIONS*,View report (https://accesshub.pdc.wa.gov/node/34180),,,
20089,34170-19389,34170,FE,17870,OUTCOMES BY LEVY LLC*,Employer,19389,CITY OF EVERETT,17-May,6/15/2017,16281.0,CITY OF EVERETT,6000.0,0.0,6000.0,133.23,0.0,0.0,0.0,0.0,0.0,133.23,6133.23,19389.0,Direct,,,View report (https://accesshub.pdc.wa.gov/node/34170),Local government,City Priorities,"Legislators representing the city of Everett (38th, 21st, 44th LD)"
20090,34170-19390,34170,FE,17870,OUTCOMES BY LEVY LLC*,Employer,19390,CITY OF FIFE,17-May,6/15/2017,16283.0,CITY OF FIFE,3369.3,0.0,3369.3,64.24,0.0,0.0,0.0,0.0,0.0,64.24,3433.54,19390.0,Direct,,,View report (https://accesshub.pdc.wa.gov/node/34170),Local government,City Priorities,25th LD Legislators
20091,34170-19391,34170,FE,17870,OUTCOMES BY LEVY LLC*,Employer,19391,CITY OF ISSAQUAH,17-May,6/15/2017,16286.0,CITY OF ISSAQUAH,4300.0,0.0,4300.0,182.38,0.0,0.0,0.0,0.0,0.0,182.38,4482.38,19391.0,Direct,,,View report (https://accesshub.pdc.wa.gov/node/34170),Local government,City Priorities,5th and 41st LD Legislators
20092,34170-19392,34170,FE,17870,OUTCOMES BY LEVY LLC*,Employer,19392,CITY OF KENT,17-May,6/15/2017,16288.0,CITY OF KENT,5800.0,0.0,5800.0,128.56,0.0,0.0,0.0,0.0,0.0,128.56,5928.56,19392.0,Direct,,,View report (https://accesshub.pdc.wa.gov/node/34170),Local government,City Priorities,"33rd, 47th, 11th LD Legislators"
20093,33675-30482,33675,FE,17526,Arbutus Consulting LLC,Employer,30482,CITY OF LACEY (MARK O BROWN),17-May,6/15/2017,16294.0,CITY OF LACEY,600.0,0.0,600.0,0.0,0.0,0.0,0.0,0.0,0.0,0.0,600.0,30482.0,Subcontract,17413.0,MARK O BROWN,View report (https://accesshub.pdc.wa.gov/node/33675),,,
20094,33675-30483,33675,FE,17526,Arbutus Consulting LLC,Employer,30483,CITY OF LONGVIEW (MARK O BROWN),17-May,6/15/2017,16295.0,CITY OF LONGVIEW,600.0,0.0,600.0,0.0,0.0,0.0,0.0,0.0,0.0,0.0,600.0,30483.0,Subcontract,17413.0,MARK O BROWN,View report (https://accesshub.pdc.wa.gov/node/33675),,,
20095,34170-19393,34170,FE,17870,OUTCOMES BY LEVY LLC*,Employer,19393,CITY OF LAKE STEVENS,17-May,6/15/2017,16297.0,CITY OF LAKE STEVENS,5200.0,0.0,5200.0,179.55,0.0,0.0,0.0,0.0,0.0,179.55,5379.55,19393.0,Direct,,,View report (https://accesshub.pdc.wa.gov/node/34170),Local government,City Priorities,44th LD Legislators
20096,34170-19394,34170,FE,17870,OUTCOMES BY LEVY LLC*,Employer,19394,CITY OF PUYALLUP,17-May,6/15/2017,16302.0,CITY OF PUYALLUP,4300.0,0.0,4300.0,64.24,0.0,0.0,0.0,0.0,0.0,64.24,4364.24,19394.0,Direct,,,View report (https://accesshub.pdc.wa.gov/node/34170),Local government,City Priorities,25th LD Legislators
20097,34170-19395,34170,FE,17870,OUTCOMES BY LEVY LLC*,Employer,19395,CITY OF RENTON,17-May,6/15/2017,16306.0,CITY OF RENTON,5000.0,0.0,5000.0,114.68,0.0,0.0,0.0,0.0,0.0,114.68,5114.68,19395.0,Direct,,,View report (https://accesshub.pdc.wa.gov/node/34170),Local government,City Priorities,"11th, 37th, 41st, 33rd LD Legislators"
20098,34170-19396,34170,FE,17870,OUTCOMES BY LEVY LLC*,Employer,19396,CITY OF REDMOND,17-May,6/15/2017,16307.0,CITY OF REDMOND,5600.0,0.0,5600.0,79.08,0.0,0.0,0.0,0.0,0.0,79.08,5679.08,19396.0,Direct,,,View report (https://accesshub.pdc.wa.gov/node/34170),Local government,City Priorities,"48th, 45th LD Legislators"
20099,33675-30484,33675,FE,17526,Arbutus Consulting LLC,Employer,30484,CITY OF RIDGEFIELD (MARK O BROWN),17-May,6/15/2017,16309.0,CITY OF RIDGEFIELD,600.0,0.0,600.0,0.0,0.0,0.0,0.0,0.0,0.0,0.0,600.0,30484.0,Subcontract,17413.0,MARK O BROWN,View report (https://accesshub.pdc.wa.gov/node/33675),,,
20100,34146-18364,34146,FE,17432,CAPITOL STRATEGIES CONSULTING*,Employer,18364,CITY OF SHORELINE,17-May,6/15/2017,16313.0,CITY OF SHORELINE,5000.0,0.0,5000.0,0.0,0.0,0.0,0.0,0.0,0.0,0.0,5000.0,18364.0,Direct,,,View report (https://accesshub.pdc.wa.gov/node/34146),Local government,Transportation,Transportation committees
20101,34249-19851,34249,FE,18068,WASHINGTON 2 ADVOCATES*,Employer,19851,CITY OF SUMNER,17-May,6/15/2017,16315.0,CITY OF SUMNER,1875.0,0.0,1875.0,0.0,0.0,0.0,0.0,0.0,0.0,0.0,1875.0,19851.0,Direct,,,View report (https://accesshub.pdc.wa.gov/node/34249),Transportation,transpo projects,transportation committees
20102,33675-30485,33675,FE,17526,Arbutus Consulting LLC,Employer,30485,City of Vancouver (MARK O BROWN),17-May,6/15/2017,16319.0,City of Vancouver,600.0,0.0,600.0,0.0,0.0,0.0,0.0,0.0,0.0,0.0,600.0,30485.0,Subcontract,17413.0,MARK O BROWN,View report (https://accesshub.pdc.wa.gov/node/33675),,,
20103,34006-19748,34006,FE,18021,LISA THATCHER,Employer,19748,CLARK PUBLIC UTILITIES,17-May,6/15/2017,16324.0,CLARK PUBLIC UTILITIES,4500.0,0.0,4500.0,5.09,0.0,0.0,0.0,0.0,0.0,5.09,4505.09,19748.0,Direct,,,View report (https://accesshub.pdc.wa.gov/node/34006),Energy and utilities,Energy and Utility issues,Dept of Commerce; Dept of Ecology
20104,34006-19749,34006,FE,18021,LISA THATCHER,Employer,19749,CLIPPER NAVIGATION,17-May,6/15/2017,16328.0,CLIPPER NAVIGATION,4000.0,0.0,4000.0,5.08,0.0,0.0,0.0,0.0,0.0,5.08,4005.08,19749.0,Direct,,,View report (https://accesshub.pdc.wa.gov/node/34006),,,
20106,34204-19619,34204,FE,17964,SCOTT C SIGMON,Employer,19619,COASTAL CONSERVATION ASSN WA,17-May,6/15/2017,16333.0,COASTAL CONSERVATION ASSN WA,4000.0,0.0,4000.0,0.0,0.0,0.0,0.0,0.0,0.0,0.0,4000.0,19619.0,Direct,,,View report (https://accesshub.pdc.wa.gov/node/34204),Fiscal,SB 5048,Fiscal Committees
20107,34189-19578,34189,FE,17944,MICHAEL V SCHWISOW,Employer,19578,COLUMBIA BASIN DEVELOPMENT LEAGUE,17-May,6/15/2017,16335.0,COLUMBIA BASIN DEVELOPMENT LEAGUE,4166.66,0.0,4166.66,0.0,0.0,0.0,0.0,0.0,0.0,0.0,4166.66,19578.0,Direct,,,View report (https://accesshub.pdc.wa.gov/node/34189),Fiscal,5086,"Senate W&M, House Capital Budget"
20108,33973-23620,33973,FE,17935,Nancy Sapiro,Employer,23620,End of Life Washington,17-May,6/15/2017,16352.0,End of Life Washington,1500.0,0.0,1500.0,0.0,0.0,0.0,0.0,0.0,0.0,0.0,1500.0,23620.0,Direct,,,View report (https://accesshub.pdc.wa.gov/node/33973),Health Care,Health Care Issues,Health Care
20109,34058-18480,34058,FE,17460,COMMUNICO*,Employer,18480,COSTCO WHOLESALE,17-May,6/15/2017,16370.0,COSTCO WHOLESALE,5000.0,0.0,5000.0,0.0,0.0,0.0,0.0,0.0,0.0,0.0,5000.0,18480.0,Direct,,,View report (https://accesshub.pdc.wa.gov/node/34058),Business and consumer affairs,Liquor,"S - Commerce, Labor & Sports and H- Commerce & Gaming"
20110,34259-18494,34259,FE,17465,Coyne Jesernig LLC,Employer,18494,Darigold,17-May,6/15/2017,16378.0,Darigold,6000.0,0.0,6000.0,0.0,0.0,0.0,0.0,0.0,0.0,0.0,6000.0,18494.0,Direct,,,View report (https://accesshub.pdc.wa.gov/node/34259),Environmental Affairs - natural resources - parks,Carbon Tax,"H Env, EET"
20111,34006-19750,34006,FE,18021,LISA THATCHER,Employer,19750,DENTA QUEST,17-May,6/15/2017,16386.0,DENTA QUEST,5994.92,0.0,5994.92,5.08,0.0,0.0,0.0,0.0,0.0,5.08,6000.0,19750.0,Direct,,,View report (https://accesshub.pdc.wa.gov/node/34006),Fiscal,Dental Medicaid,HCA
20112,34191-19858,34191,FE,18072,MARILYN P WATKINS,Employer,19858,ECONOMIC OPPORTUNITY INSTITUTE,17-May,6/15/2017,16403.0,ECONOMIC OPPORTUNITY INSTITUTE,440.0,0.0,440.0,256.8,0.0,0.0,0.0,0.0,500.0,756.8,1196.8,19858.0,Direct,,,View report (https://accesshub.pdc.wa.gov/node/34191),Labor,family leave,Labor
20113,34204-19621,34204,FE,17964,SCOTT C SIGMON,Employer,19621,EISAI INC,17-May,6/15/2017,16407.0,EISAI INC,3000.0,0.0,3000.0,0.0,0.0,0.0,0.0,0.0,0.0,0.0,3000.0,19621.0,Direct,,,View report (https://accesshub.pdc.wa.gov/node/34204),Fiscal,SB 5048,Fiscal Committees
20114,34238-19682,34238,FE,17991,MELANIE STEWART & ASSOC LLC*,Employer,19682,ELI LILLY & COMPANY,17-May,6/15/2017,16410.0,ELI LILLY & COMPANY,8750.0,0.0,8750.0,0.0,0.0,0.0,0.0,0.0,0.0,0.0,8750.0,19682.0,Direct,,,View report (https://accesshub.pdc.wa.gov/node/34238),,,
20115,34180-19009,34180,FE,17666,ALEX HUR,Employer,19009,Equity in Education Coalition,17-May,6/15/2017,16420.0,Equity in Education Coalition,4000.0,0.0,4000.0,0.0,0.0,0.0,0.0,0.0,0.0,0.0,4000.0,19009.0,Direct,,,View report (https://accesshub.pdc.wa.gov/node/34180),Education,K-12,"K-12, Appropriations, Ways"
20116,34180-20108,34180,FE,17666,ALEX HUR,Employer,20108,EVERGREEN SCHOOL DIST #114 (CAPITOL SOLUTIONS*),17-May,6/15/2017,16423.0,EVERGREEN SCHOOL DIST #114,3350.0,0.0,3350.0,0.0,0.0,0.0,0.0,0.0,0.0,0.0,3350.0,20108.0,Subcontract,17431.0,CAPITOL SOLUTIONS*,View report (https://accesshub.pdc.wa.gov/node/34180),,,
20117,34180-19010,34180,FE,17666,ALEX HUR,Employer,19010,"Meta Platforms, Inc.",17-May,6/15/2017,16430.0,"Meta Platforms, Inc.",5000.0,0.0,5000.0,0.0,0.0,0.0,0.0,0.0,0.0,0.0,5000.0,19010.0,Direct,,,View report (https://accesshub.pdc.wa.gov/node/34180),Technology,Tech,"Tech, Law and Justice"
20118,32503-19517,32503,FE,17906,PUBLIC AFFAIRS OF WA LLC*,Employer,19517,FAMILY WINERIES OF WA ST,17-Mar,6/15/2017,16434.0,FAMILY WINERIES OF WA ST,208.33,0.0,208.33,256.51,0.0,0.0,0.0,0.0,0.0,256.51,464.84,19517.0,Direct,,,View report (https://accesshub.pdc.wa.gov/node/32503),Business and consumer affairs,wine,House Sen. Commerce
20119,34183-19517,34183,FE,17906,PUBLIC AFFAIRS OF WA LLC*,Employer,19517,FAMILY WINERIES OF WA ST,17-May,6/15/2017,16434.0,FAMILY WINERIES OF WA ST,208.33,0.0,208.33,205.16,0.0,0.0,0.0,0.0,0.0,205.16,413.49,19517.0,Direct,,,View report (https://accesshub.pdc.wa.gov/node/34183),Business and consumer affairs,wine,House Sen. Commerce
20120,33973-19968,33973,FE,17935,Nancy Sapiro,Employer,19968,CEDAR RIVER CLINICS (PAM CRONE LEGISLATIVE CONSULTING SVCS*),17-May,6/15/2017,16439.0,CEDAR RIVER CLINICS,475.0,0.0,475.0,0.0,0.0,0.0,0.0,0.0,0.0,0.0,475.0,19968.0,Subcontract,17875.0,PAM CRONE LEGISLATIVE CONSULTING SVCS*,View report (https://accesshub.pdc.wa.gov/node/33973),,,
20121,33126-28134,33126,FE,25651,Insight Strategic Partners LLC,Employer,28134,FRED HUTCHINSON CANCER RESEARCH CENTER,17-Apr,6/15/2017,16458.0,FRED HUTCHINSON CANCER RESEARCH CENTER,7500.0,0.0,7500.0,0.0,0.0,0.0,0.0,0.0,0.0,0.0,7500.0,28134.0,Direct,,,View report (https://accesshub.pdc.wa.gov/node/33126),State government,SHB1054,House Rules
20122,34141-28134,34141,FE,25651,Insight Strategic Partners LLC,Employer,28134,FRED HUTCHINSON CANCER RESEARCH CENTER,17-May,6/15/2017,16458.0,FRED HUTCHINSON CANCER RESEARCH CENTER,7500.0,0.0,7500.0,0.0,0.0,0.0,0.0,0.0,0.0,0.0,7500.0,28134.0,Direct,,,View report (https://accesshub.pdc.wa.gov/node/34141),State government,SHB 1054,House Rules
20124,34238-19683,34238,FE,17991,MELANIE STEWART & ASSOC LLC*,Employer,19683,FRESENIUS MEDICAL CARE NORTH AMERICA,17-May,6/15/2017,16462.0,FRESENIUS MEDICAL CARE NORTH AMERICA,2000.0,0.0,2000.0,0.0,0.0,0.0,0.0,0.0,0.0,0.0,2000.0,19683.0,Direct,,,View report (https://accesshub.pdc.wa.gov/node/34238),,,
20125,34204-19622,34204,FE,17964,SCOTT C SIGMON,Employer,19622,GILEAD SCIENCES INC,17-May,6/15/2017,16471.0,GILEAD SCIENCES INC,4000.0,0.0,4000.0,0.0,0.0,0.0,0.0,0.0,0.0,0.0,4000.0,19622.0,Direct,,,View report (https://accesshub.pdc.wa.gov/node/34204),Fiscal,SB 5048,Fiscal Committees
20126,34006-19751,34006,FE,18021,LISA THATCHER,Employer,19751,GLAXO SMITHKLINE,17-May,6/15/2017,16473.0,GLAXO SMITHKLINE,4490.66,0.0,4490.66,0.0,0.0,0.0,0.0,0.0,0.0,0.0,4490.66,19751.0,Direct,,,View report (https://accesshub.pdc.wa.gov/node/34006),Environmental Affairs - natural resources - parks,Healthcare and pharma issues,Dept of Health; HCA
20127,32503-19518,32503,FE,17906,PUBLIC AFFAIRS OF WA LLC*,Employer,19518,GOVT BLDG OWNERS & LESSORS ASSN,17-Mar,6/15/2017,16476.0,GOVT BLDG OWNERS & LESSORS ASSN,2916.66,0.0,2916.66,10.5,0.0,0.0,0.0,0.0,0.0,10.5,2927.16,19518.0,Direct,,,View report (https://accesshub.pdc.wa.gov/node/32503),Fiscal,realestate,Department of Enterprise Services
20128,34183-19518,34183,FE,17906,PUBLIC AFFAIRS OF WA LLC*,Employer,19518,GOVT BLDG OWNERS & LESSORS ASSN,17-May,6/15/2017,16476.0,GOVT BLDG OWNERS & LESSORS ASSN,2916.66,0.0,2916.66,29.96,0.0,0.0,0.0,0.0,0.0,29.96,2946.62,19518.0,Direct,,,View report (https://accesshub.pdc.wa.gov/node/34183),Fiscal,realestate,Department of Enterprise Services
20129,34150-19977,34150,FE,18045,Amber Ulvenes,Employer,19977,GROUP HEALTH COOPERATIVE (CHRIS MARR),17-May,6/15/2017,16484.0,GROUP HEALTH COOPERATIVE,5250.0,0.0,5250.0,0.0,0.0,0.0,0.0,0.0,0.0,0.0,5250.0,19977.0,Subcontract,17773.0,CHRIS MARR,View report (https://accesshub.pdc.wa.gov/node/34150),,,
20130,34180-19011,34180,FE,17666,ALEX HUR,Employer,19011,ONEAMERICA,17-May,6/15/2017,16494.0,ONEAMERICA,3000.0,0.0,3000.0,0.0,0.0,0.0,0.0,0.0,0.0,0.0,3000.0,19011.0,Direct,,,View report (https://accesshub.pdc.wa.gov/node/34180),State government,"Voting Rights, Education","K-12, State Govt, Appropriations, Ways"
20131,34149-18464,34149,FE,17455,CLIFFORD TRAISMAN & ASSOC*,Employer,18464,HIGHLINE PUBLIC SCHOOLS,17-May,6/15/2017,16502.0,HIGHLINE PUBLIC SCHOOLS,2500.0,0.0,2500.0,0.0,0.0,0.0,0.0,0.0,0.0,0.0,2500.0,18464.0,Direct,,,View report (https://accesshub.pdc.wa.gov/node/34149),Education,K-12 Funding,Fiscal Committees
20133,34214-19878,34214,FE,18081,SHAUNIE J WHEELER JAMES,Employer,19878,IBEW LOCAL 77,17-May,6/15/2017,16516.0,IBEW LOCAL 77,2300.0,0.0,2300.0,0.0,0.0,0.0,0.0,0.0,0.0,0.0,2300.0,19878.0,Direct,,,View report (https://accesshub.pdc.wa.gov/node/34214),Energy and utilities,1592,Law and Justice
20134,34185-19761,34185,FE,18022,ADRIENNE THOMPSON,Employer,19761,PROF & TECH EMPLOYEES LOCAL 17,17-May,6/15/2017,16521.0,PROF & TECH EMPLOYEES LOCAL 17,4150.0,0.0,4150.0,0.0,0.0,0.0,0.0,0.0,0.0,0.0,4150.0,19761.0,Direct,,,View report (https://accesshub.pdc.wa.gov/node/34185),Local government,Local Government Funding,Budget Committees
20135,32503-19519,32503,FE,17906,PUBLIC AFFAIRS OF WA LLC*,Employer,19519,INSTITUTE OF REAL ESTATE MGMT,17-Mar,6/15/2017,16534.0,INSTITUTE OF REAL ESTATE MGMT,375.0,0.0,375.0,93.33,0.0,0.0,0.0,0.0,0.0,93.33,468.33,19519.0,Direct,,,View report (https://accesshub.pdc.wa.gov/node/32503),Fiscal,Real Estate,House Senate Fiscal
20136,34183-19519,34183,FE,17906,PUBLIC AFFAIRS OF WA LLC*,Employer,19519,INSTITUTE OF REAL ESTATE MGMT,17-May,6/15/2017,16534.0,INSTITUTE OF REAL ESTATE MGMT,375.0,0.0,375.0,93.02,0.0,0.0,0.0,0.0,0.0,93.02,468.02,19519.0,Direct,,,View report (https://accesshub.pdc.wa.gov/node/34183),Fiscal,Real Estate,House Senate Fiscal
20137,32503-19520,32503,FE,17906,PUBLIC AFFAIRS OF WA LLC*,Employer,19520,INTL COUNCIL OF SHOPPING CENTERS,17-Mar,6/15/2017,16540.0,INTL COUNCIL OF SHOPPING CENTERS,3750.0,0.0,3750.0,0.0,0.0,0.0,0.0,0.0,0.0,0.0,3750.0,19520.0,Direct,,,View report (https://accesshub.pdc.wa.gov/node/32503),,,
20138,34228-25544,34228,FE,17554,DAVID S FOSTER,Employer,25544,INTERCITY TRANSIT,17-May,6/15/2017,16542.0,INTERCITY TRANSIT,1750.0,0.0,1750.0,0.0,0.0,0.0,0.0,0.0,0.0,0.0,1750.0,25544.0,Direct,,,View report (https://accesshub.pdc.wa.gov/node/34228),Transportation,"1410, 5288, Budget",Transportation
20139,33973-19568,33973,FE,17935,Nancy Sapiro,Employer,19568,JEWISH FEDERATION OF GREATER SEATTLE,17-May,6/15/2017,16559.0,JEWISH FEDERATION OF GREATER SEATTLE,1650.0,0.0,1650.0,0.0,0.0,0.0,0.0,0.0,0.0,0.0,1650.0,19568.0,Direct,,,View report (https://accesshub.pdc.wa.gov/node/33973),Human services,budget,Law and Justice and House and Senate Leadership
20140,34150-28555,34150,FE,18045,Amber Ulvenes,Employer,28555,Kaiser Foundation Health Plan of the Northwest,17-May,6/15/2017,16569.0,Kaiser Foundation Health Plan of the Northwest,1350.0,0.0,1350.0,0.0,0.0,0.0,0.0,0.0,0.0,0.0,1350.0,28555.0,Direct,,,View report (https://accesshub.pdc.wa.gov/node/34150),Health Care,Various health care issues,"Health Care Committees, HCA, OFM"
20141,34228-19951,34228,FE,17554,DAVID S FOSTER,Employer,19951,KING CO COUNCIL (MICHAEL SHAW),17-May,6/15/2017,16575.0,KING CO COUNCIL,4500.0,0.0,4500.0,0.0,0.0,0.0,0.0,0.0,0.0,0.0,4500.0,19951.0,Subcontract,17957.0,MICHAEL SHAW,View report (https://accesshub.pdc.wa.gov/node/34228),,,
20142,34249-19852,34249,FE,18068,WASHINGTON 2 ADVOCATES*,Employer,19852,KING CO FLOOD CONTROL DIST,17-May,6/15/2017,16577.0,KING CO FLOOD CONTROL DIST,1000.0,0.0,1000.0,0.0,0.0,0.0,0.0,0.0,0.0,0.0,1000.0,19852.0,Direct,,,View report (https://accesshub.pdc.wa.gov/node/34249),Local government,capital budget,capital budget committee
20143,34259-18495,34259,FE,17465,Coyne Jesernig LLC,Employer,18495,KOCH CO PUBLIC SECTOR LLC & AFFILIATES,17-May,6/15/2017,16585.0,KOCH CO PUBLIC SECTOR LLC & AFFILIATES,5000.0,0.0,5000.0,0.0,0.0,0.0,0.0,0.0,0.0,0.0,5000.0,18495.0,Direct,,,View report (https://accesshub.pdc.wa.gov/node/34259),,,
20144,34204-19623,34204,FE,17964,SCOTT C SIGMON,Employer,19623,LEADINGAGE WA,17-May,6/15/2017,16588.0,LEADINGAGE WA,7000.0,0.0,7000.0,0.0,0.0,0.0,0.0,0.0,0.0,0.0,7000.0,19623.0,Direct,,,View report (https://accesshub.pdc.wa.gov/node/34204),Fiscal,SB 5048,Fiscal Committee
20145,33973-19569,33973,FE,17935,Nancy Sapiro,Employer,19569,League of Women Voters Washington,17-May,6/15/2017,16590.0,League of Women Voters Washington,500.0,0.0,500.0,0.0,0.0,0.0,0.0,0.0,0.0,0.0,500.0,19569.0,Direct,,,View report (https://accesshub.pdc.wa.gov/node/33973),State government,Budget and Civic Engagement,State Government
20146,33126-25652,33126,FE,25651,Insight Strategic Partners LLC,Employer,25652,LYFT INC,17-Apr,6/15/2017,16612.0,LYFT INC,8000.0,0.0,8000.0,0.0,0.0,0.0,0.0,0.0,0.0,0.0,8000.0,25652.0,Direct,,,View report (https://accesshub.pdc.wa.gov/node/33126),Transportation,Ride Share Services,House & Senate Transportation Committees
20147,34141-25652,34141,FE,25651,Insight Strategic Partners LLC,Employer,25652,LYFT INC,17-May,6/15/2017,16612.0,LYFT INC,8000.0,0.0,8000.0,0.0,0.0,0.0,0.0,0.0,0.0,0.0,8000.0,25652.0,Direct,,,View report (https://accesshub.pdc.wa.gov/node/34141),Transportation,Ride Share Services,House and Senate Transportation Committees
20148,32503-19521,32503,FE,17906,PUBLIC AFFAIRS OF WA LLC*,Employer,19521,Manufactured Housing Communities of WA,17-Mar,6/15/2017,16614.0,Manufactured Housing Communities of WA,1690.65,0.0,1690.65,52.05,0.0,0.0,0.0,0.0,0.0,52.05,1742.7,19521.0,Direct,,,View report (https://accesshub.pdc.wa.gov/node/32503),Financial institutions and insurance,Housing,Hs Sen Fiscal and Housing
20149,34183-19521,34183,FE,17906,PUBLIC AFFAIRS OF WA LLC*,Employer,19521,Manufactured Housing Communities of WA,17-May,6/15/2017,16614.0,Manufactured Housing Communities of WA,1690.65,0.0,1690.65,173.21,0.0,0.0,0.0,0.0,0.0,173.21,1863.86,19521.0,Direct,,,View report (https://accesshub.pdc.wa.gov/node/34183),Financial institutions and insurance,Housing,Hs Sen Fiscal and Housing
20150,32503-19522,32503,FE,17906,PUBLIC AFFAIRS OF WA LLC*,Employer,19522,WA ST MARTIAL ARTS ASSN,17-Mar,6/15/2017,16619.0,WA ST MARTIAL ARTS ASSN,1250.0,0.0,1250.0,199.53,0.0,0.0,0.0,0.0,0.0,199.53,1449.53,19522.0,Direct,,,View report (https://accesshub.pdc.wa.gov/node/32503),Fiscal,Martial Arts,Hs Sen Fiscal
20151,34183-19522,34183,FE,17906,PUBLIC AFFAIRS OF WA LLC*,Employer,19522,WA ST MARTIAL ARTS ASSN,17-May,6/15/2017,16619.0,WA ST MARTIAL ARTS ASSN,1250.0,0.0,1250.0,86.29,0.0,0.0,0.0,0.0,0.0,86.29,1336.29,19522.0,Direct,,,View report (https://accesshub.pdc.wa.gov/node/34183),Fiscal,Martial Arts,Hs Sen Fiscal
20152,34150-19818,34150,FE,18045,Amber Ulvenes,Employer,19818,MIDWIVES ASSOCIATION OF WA STATE,17-May,6/15/2017,16637.0,MIDWIVES ASSOCIATION OF WA STATE,1200.0,0.0,1200.0,0.0,0.0,0.0,0.0,0.0,0.0,0.0,1200.0,19818.0,Direct,,,View report (https://accesshub.pdc.wa.gov/node/34150),Health Care,birth center reimbursement,Health Care Authority
20153,33680-26494,33680,FE,18039,ELIZABETH TRAUTMAN,Employer,26494,The Mockingbird Society,17-May,6/15/2017,16639.0,The Mockingbird Society,376.0,0.0,376.0,102.5,0.0,0.0,0.0,0.0,0.0,102.5,478.5,26494.0,Direct,,,View report (https://accesshub.pdc.wa.gov/node/33680),Human services,"HB 1661, HB 1630, Hb 1570, homeless youth funding","House & Senate budget writers, Rep. Kagi"
20154,34058-18481,34058,FE,17460,COMMUNICO*,Employer,18481,MONSANTO,17-May,6/15/2017,16644.0,MONSANTO,3333.33,0.0,3333.33,0.0,0.0,0.0,0.0,0.0,0.0,0.0,3333.33,18481.0,Direct,,,View report (https://accesshub.pdc.wa.gov/node/34058),Agriculture,Seeds,"S - Agriculture & Natural Resources, H - Agriculture, Water, Trade & Econ. Dev."
20155,32503-19523,32503,FE,17906,PUBLIC AFFAIRS OF WA LLC*,Employer,19523,NATL ASSN OF CREDIT MGMT,17-Mar,6/15/2017,16659.0,NATL ASSN OF CREDIT MGMT,604.0,0.0,604.0,70.28,0.0,0.0,0.0,0.0,0.0,70.28,674.28,19523.0,Direct,,,View report (https://accesshub.pdc.wa.gov/node/32503),Business and consumer affairs,Credit,Hs Sen Fiscal and Commerce
20156,34183-19523,34183,FE,17906,PUBLIC AFFAIRS OF WA LLC*,Employer,19523,NATL ASSN OF CREDIT MGMT,17-May,6/15/2017,16659.0,NATL ASSN OF CREDIT MGMT,604.0,0.0,604.0,155.22,0.0,0.0,0.0,0.0,0.0,155.22,759.22,19523.0,Direct,,,View report (https://accesshub.pdc.wa.gov/node/34183),Business and consumer affairs,Credit,Hs Sen Fiscal and Commerce
20157,34228-18737,34228,FE,17554,DAVID S FOSTER,Employer,18737,CAMPAIGN FOR TOBACCO FREE KIDS,17-May,6/15/2017,16660.0,CAMPAIGN FOR TOBACCO FREE KIDS,3500.0,0.0,3500.0,0.0,0.0,0.0,0.0,0.0,0.0,0.0,3500.0,18737.0,Direct,,,View report (https://accesshub.pdc.wa.gov/node/34228),Health Care,"1054, 5025","Health Care, Appropos, Ways & Means"
20158,34058-18482,34058,FE,17460,COMMUNICO*,Employer,18482,NAIOP Washington State,17-May,6/15/2017,16669.0,NAIOP Washington State,6250.0,0.0,6250.0,76.34,0.0,0.0,0.0,0.0,0.0,76.34,6326.34,18482.0,Direct,,,View report (https://accesshub.pdc.wa.gov/node/34058),Environmental Affairs - natural resources - parks,"SEPA, GMA & Housing Taxes","H and S Environment Cmtes., H and S Local Government, H and S State Government"
20159,34184-28354,34184,FE,28352,Keely Hopkins,Employer,28354,NATL RIFLE ASSN OF AMERICA,17-May,6/15/2017,16672.0,NATL RIFLE ASSN OF AMERICA,1852.58,0.0,1852.58,772.46,0.0,0.0,0.0,0.0,0.0,772.46,2625.04,28354.0,Direct,,,View report (https://accesshub.pdc.wa.gov/node/34184),Law and justice,Firearms Issues,"House Judiciary Committee, Senate Law & Justice, WA Department of Fish & Wildlife"
20160,34167-19184,34167,FE,17769,Cyan Strategies,Employer,19184,NISSAN NORTH AMERICA,17-May,6/15/2017,16688.0,NISSAN NORTH AMERICA,1900.0,0.0,1900.0,0.0,0.0,0.0,0.0,0.0,0.0,0.0,1900.0,19184.0,Direct,,,View report (https://accesshub.pdc.wa.gov/node/34167),Transportation,EV,Transportation Committee
20161,34204-19624,34204,FE,17964,SCOTT C SIGMON,Employer,19624,CONSUMER HEALTHCARE PRODUCTS ASSN,17-May,6/15/2017,16692.0,CONSUMER HEALTHCARE PRODUCTS ASSN,4000.0,0.0,4000.0,0.0,0.0,0.0,0.0,0.0,0.0,0.0,4000.0,19624.0,Direct,,,View report (https://accesshub.pdc.wa.gov/node/34204),Health Care,Drug Take Back,House Health Care
20162,34259-18496,34259,FE,17465,Coyne Jesernig LLC,Employer,18496,NORTHWEST FARM CREDIT SERVICES,17-May,6/15/2017,16706.0,NORTHWEST FARM CREDIT SERVICES,5000.0,0.0,5000.0,0.0,0.0,0.0,0.0,0.0,0.0,0.0,5000.0,18496.0,Direct,,,View report (https://accesshub.pdc.wa.gov/node/34259),Environmental Affairs - natural resources - parks,Carnon Tax,"H Env, EET"
20163,33685-19360,33685,FE,17848,THE NEXUS GROUP LLC*,Employer,19360,NW NATURAL GAS,17-May,6/15/2017,16715.0,NW NATURAL GAS,1373.0,0.0,1373.0,0.0,0.0,0.0,0.0,0.0,0.0,0.0,1373.0,19360.0,Direct,,,View report (https://accesshub.pdc.wa.gov/node/33685),Energy and utilities,Energy Environment,"Energy, Environment, Natural Resources"
20164,34155-19833,34155,FE,18057,ANN VINING,Employer,19833,Northwest Health Law Advocates,17-May,6/15/2017,16709.0,Northwest Health Law Advocates,877.14,0.0,877.14,0.0,0.0,0.0,0.0,0.0,0.0,0.0,877.14,19833.0,Direct,,,View report (https://accesshub.pdc.wa.gov/node/34155),Health Care,Medicaid rules,Health Care Authority and DSHS
20165,34259-18497,34259,FE,17465,Coyne Jesernig LLC,Employer,18497,NORTHWEST INDUSTRIAL GAS USERS,17-May,6/15/2017,16710.0,NORTHWEST INDUSTRIAL GAS USERS,4000.0,0.0,4000.0,0.0,0.0,0.0,0.0,0.0,0.0,0.0,4000.0,18497.0,Direct,,,View report (https://accesshub.pdc.wa.gov/node/34259),Environmental Affairs - natural resources - parks,Carbon Tax,"H Env, EET"
20166,32943-19360,32943,FE,17848,THE NEXUS GROUP LLC*,Employer,19360,NW NATURAL GAS,17-Apr,6/15/2017,16715.0,NW NATURAL GAS,3000.0,0.0,3000.0,0.0,0.0,0.0,0.0,0.0,0.0,0.0,3000.0,19360.0,Direct,,,View report (https://accesshub.pdc.wa.gov/node/32943),Energy and utilities,Energy Environment,"Energy, Environment, Natural Resources"
20167,31172-19360,31172,FE,17848,THE NEXUS GROUP LLC*,Employer,19360,NW NATURAL GAS,17-Feb,6/15/2017,16715.0,NW NATURAL GAS,3000.0,0.0,3000.0,0.0,0.0,0.0,0.0,0.0,0.0,0.0,3000.0,19360.0,Direct,,,View report (https://accesshub.pdc.wa.gov/node/31172),Energy and utilities,ENERGY AND UTILITIES,ENERGY
20168,32107-19360,32107,FE,17848,THE NEXUS GROUP LLC*,Employer,19360,NW NATURAL GAS,17-Mar,6/15/2017,16715.0,NW NATURAL GAS,3000.0,0.0,3000.0,0.0,0.0,0.0,0.0,0.0,0.0,0.0,3000.0,19360.0,Direct,,,View report (https://accesshub.pdc.wa.gov/node/32107),,,
20169,33973-19990,33973,FE,17935,Nancy Sapiro,Employer,19990,LEGAL VOICE (PAM CRONE LEGISLATIVE CONSULTING SVCS*),17-May,6/15/2017,16723.0,LEGAL VOICE,1200.0,0.0,1200.0,0.0,0.0,0.0,0.0,0.0,0.0,0.0,1200.0,19990.0,Subcontract,17875.0,PAM CRONE LEGISLATIVE CONSULTING SVCS*,View report (https://accesshub.pdc.wa.gov/node/33973),,,
20170,34186-19401,34186,FE,17872,OYSTER BAY PUBLIC AFFAIRS*,Employer,19401,OTSUKA AMERICA PHARMACEUTICAL INC,17-May,6/15/2017,16743.0,OTSUKA AMERICA PHARMACEUTICAL INC,4000.0,0.0,4000.0,0.0,0.0,0.0,0.0,0.0,0.0,0.0,4000.0,19401.0,Direct,,,View report (https://accesshub.pdc.wa.gov/node/34186),Health Care,health care,health care
20171,34146-18366,34146,FE,17432,CAPITOL STRATEGIES CONSULTING*,Employer,18366,PACIFICORP,17-May,6/15/2017,16746.0,PACIFICORP,7325.0,0.0,7325.0,0.0,0.0,0.0,0.0,0.0,0.0,0.0,7325.0,18366.0,Direct,,,View report (https://accesshub.pdc.wa.gov/node/34146),Energy and utilities,Energy,Technology committee and Energy committee
20172,34259-18498,34259,FE,17465,Coyne Jesernig LLC,Employer,18498,PACIFIC COAST SHELLFISH GROWERS ASSN,17-May,6/15/2017,16748.0,PACIFIC COAST SHELLFISH GROWERS ASSN,2500.0,0.0,2500.0,0.0,0.0,0.0,0.0,0.0,0.0,0.0,2500.0,18498.0,Direct,,,View report (https://accesshub.pdc.wa.gov/node/34259),Environmental Affairs - natural resources - parks,Aquaculture,"H AGNR, S AG"
20173,34228-18738,34228,FE,17554,DAVID S FOSTER,Employer,18738,PACIFIC SCIENCE CENTER,17-May,6/15/2017,16758.0,PACIFIC SCIENCE CENTER,3150.0,0.0,3150.0,0.0,0.0,0.0,0.0,0.0,0.0,0.0,3150.0,18738.0,Direct,,,View report (https://accesshub.pdc.wa.gov/node/34228),Education,"Budget, education","Cap Budget, Approps, Ways & Means"
20174,34204-19625,34204,FE,17964,SCOTT C SIGMON,Employer,19625,PARTNERS IN CAREERS,17-May,6/15/2017,16764.0,PARTNERS IN CAREERS,1000.0,0.0,1000.0,0.0,0.0,0.0,0.0,0.0,0.0,0.0,1000.0,19625.0,Direct,,,View report (https://accesshub.pdc.wa.gov/node/34204),Fiscal,SB 5048,Fiscal Committees
20175,34186-19402,34186,FE,17872,OYSTER BAY PUBLIC AFFAIRS*,Employer,19402,PFIZER INC,17-May,6/15/2017,16774.0,PFIZER INC,5500.0,0.0,5500.0,0.0,0.0,0.0,0.0,0.0,0.0,0.0,5500.0,19402.0,Direct,,,View report (https://accesshub.pdc.wa.gov/node/34186),Health Care,health care,health care
20176,34215-18523,34215,FE,17477,JOE C DANIELS,Employer,18523,ALTRIA CLIENT SERVICES LLC & ITS AFFILIATES,17-May,6/15/2017,16778.0,ALTRIA CLIENT SERVICES LLC & ITS AFFILIATES,7500.0,0.0,7500.0,0.0,0.0,0.0,0.0,0.0,0.0,0.0,7500.0,18523.0,Direct,,,View report (https://accesshub.pdc.wa.gov/node/34215),Business and consumer affairs,tobacco industry issues,legislative fiscal & policy committees
20177,34259-18499,34259,FE,17465,Coyne Jesernig LLC,Employer,18499,PHILLIPS 66,17-May,6/15/2017,16779.0,PHILLIPS 66,4000.0,0.0,4000.0,0.0,0.0,0.0,0.0,0.0,0.0,0.0,4000.0,18499.0,Direct,,,View report (https://accesshub.pdc.wa.gov/node/34259),Environmental Affairs - natural resources - parks,Carbon Tax,"H Env, EET"
20178,34238-19684,34238,FE,17991,MELANIE STEWART & ASSOC LLC*,Employer,19684,PIERCE CO ALLIANCE,17-May,6/15/2017,16782.0,PIERCE CO ALLIANCE,2200.0,0.0,2200.0,0.0,0.0,0.0,0.0,0.0,1800.0,1800.0,4000.0,19684.0,Direct,,,View report (https://accesshub.pdc.wa.gov/node/34238),,,
20179,34146-18367,34146,FE,17432,CAPITOL STRATEGIES CONSULTING*,Employer,18367,PORTLAND GENERAL ELECTRIC,17-May,6/15/2017,16798.0,PORTLAND GENERAL ELECTRIC,2000.0,0.0,2000.0,0.0,0.0,0.0,0.0,0.0,0.0,0.0,2000.0,18367.0,Direct,,,View report (https://accesshub.pdc.wa.gov/node/34146),Fiscal,Taxes,Finance committee and Ways and Means committees
20180,34006-19753,34006,FE,18021,LISA THATCHER,Employer,19753,PORT OF TACOMA,17-May,6/15/2017,16806.0,PORT OF TACOMA,3000.0,0.0,3000.0,0.0,0.0,0.0,0.0,0.0,0.0,0.0,3000.0,19753.0,Direct,,,View report (https://accesshub.pdc.wa.gov/node/34006),Fiscal,MTCA Funding,Department of Ecology
20181,34170-19397,34170,FE,17870,OUTCOMES BY LEVY LLC*,Employer,19397,RECREATIONAL BOATING ASSN OF WA,17-May,6/15/2017,16844.0,RECREATIONAL BOATING ASSN OF WA,3000.0,0.0,3000.0,107.77,0.0,0.0,0.0,0.0,0.0,107.77,3107.77,19397.0,Direct,,,View report (https://accesshub.pdc.wa.gov/node/34170),Environmental Affairs - natural resources - parks,Recreational Boating Issues,"Capital and Operating budget writers and support for SSB 5303/SHB 1429, SB 5442, SHB 1605 and SSB 5552"
20182,34149-18465,34149,FE,17455,CLIFFORD TRAISMAN & ASSOC*,Employer,18465,RENEWABLE NORTHWEST,17-May,6/15/2017,16854.0,RENEWABLE NORTHWEST,3000.0,0.0,3000.0,0.0,0.0,0.0,0.0,0.0,0.0,0.0,3000.0,18465.0,Direct,,,View report (https://accesshub.pdc.wa.gov/node/34149),Energy and utilities,"5232, Budget",Energy Committees and Capital Budget Committees
20183,34150-19820,34150,FE,18045,Amber Ulvenes,Employer,19820,RESOLUTION WA,17-May,6/15/2017,16856.0,RESOLUTION WA,750.0,0.0,750.0,0.0,0.0,0.0,0.0,0.0,0.0,0.0,750.0,19820.0,Direct,,,View report (https://accesshub.pdc.wa.gov/node/34150),Law and justice,DRC funding,"Dept of Commerce, Law & Justice and Judiciary Committees"
20184,34259-18500,34259,FE,17465,Coyne Jesernig LLC,Employer,18500,WestRock,17-May,6/15/2017,16863.0,WestRock,2250.0,0.0,2250.0,0.0,0.0,0.0,0.0,0.0,0.0,0.0,2250.0,18500.0,Direct,,,View report (https://accesshub.pdc.wa.gov/node/34259),Environmental Affairs - natural resources - parks,Carbon Tax,"H Env, EET"
20185,34186-19403,34186,FE,17872,OYSTER BAY PUBLIC AFFAIRS*,Employer,19403,Washington School Counselor Association,17-May,6/15/2017,16880.0,Washington School Counselor Association,1000.0,0.0,1000.0,0.0,0.0,0.0,0.0,0.0,0.0,0.0,1000.0,19403.0,Direct,,,View report (https://accesshub.pdc.wa.gov/node/34186),Education,education,Education Committees
20186,34228-18740,34228,FE,17554,DAVID S FOSTER,Employer,18740,SEATTLE AQUARIUM SOCIETY,17-May,6/15/2017,16888.0,SEATTLE AQUARIUM SOCIETY,3000.0,0.0,3000.0,0.0,0.0,0.0,0.0,0.0,0.0,0.0,3000.0,18740.0,Direct,,,View report (https://accesshub.pdc.wa.gov/node/34228),Fiscal,"1311, Capital Budget","Finance, Cap Budget, Ways & Means"
20187,34252-18973,34252,FE,17645,BILL HINKLE,Employer,18973,RENTAL HOUSING ASSN OF WA,17-May,6/15/2017,16894.0,RENTAL HOUSING ASSN OF WA,4025.0,0.0,4025.0,0.0,0.0,0.0,0.0,0.0,0.0,0.0,4025.0,18973.0,Direct,,,View report (https://accesshub.pdc.wa.gov/node/34252),Local government,Rental housing,Monitoring
20188,34149-18466,34149,FE,17455,CLIFFORD TRAISMAN & ASSOC*,Employer,18466,SEATTLE OPERA,17-May,6/15/2017,16897.0,SEATTLE OPERA,4000.0,0.0,4000.0,0.0,0.0,0.0,0.0,0.0,0.0,0.0,4000.0,18466.0,Direct,,,View report (https://accesshub.pdc.wa.gov/node/34149),Fiscal,Building for Arts Funding/Capital Budget,Capital Budget Committees
20189,34149-18467,34149,FE,17455,CLIFFORD TRAISMAN & ASSOC*,Employer,18467,SEATTLE PUBLIC SCHOOLS,17-May,6/15/2017,16898.0,SEATTLE PUBLIC SCHOOLS,4000.0,0.0,4000.0,0.0,0.0,0.0,0.0,0.0,0.0,0.0,4000.0,18467.0,Direct,,,View report (https://accesshub.pdc.wa.gov/node/34149),Education,K-12 Budget,Fiscal Committees
20190,34180-19012,34180,FE,17666,ALEX HUR,Employer,19012,SERVICE EMPLOYEES INTL UNION DIST 925,17-May,6/15/2017,16904.0,SERVICE EMPLOYEES INTL UNION DIST 925,3500.0,0.0,3500.0,0.0,0.0,0.0,0.0,0.0,0.0,0.0,3500.0,19012.0,Direct,,,View report (https://accesshub.pdc.wa.gov/node/34180),Labor,Labor,"Labor, Early Learning, Higher Ed, K-12"
20191,34210-29898,34210,FE,17351,MAURICIO AYON,Employer,29898,SERVICE EMPLOYEES INTL UNION LOCAL 6,17-May,6/15/2017,16907.0,SERVICE EMPLOYEES INTL UNION LOCAL 6,3330.2,0.0,3330.2,0.0,0.0,0.0,0.0,0.0,0.0,0.0,3330.2,29898.0,Direct,,,View report (https://accesshub.pdc.wa.gov/node/34210),Labor,Workload Study,"Legislators, Department of Labor & Industries"
20192,34146-18368,34146,FE,17432,CAPITOL STRATEGIES CONSULTING*,Employer,18368,SHEET METAL & AIR CONDITION CONTRACTORS WEST WA,17-May,6/15/2017,16909.0,SHEET METAL & AIR CONDITION CONTRACTORS WEST WA,5563.0,0.0,5563.0,0.0,0.0,0.0,0.0,0.0,0.0,0.0,5563.0,18368.0,Direct,,,View report (https://accesshub.pdc.wa.gov/node/34146),Labor,Employment regulation,Labor committees and labor and industries department
20193,34160-19647,34160,FE,17976,STAN SORSCHER,Employer,19647,SOCIETY OF PROFESSIONAL ENGINEERING EMPLOYEES IN AEROSPACE SPEEA,17-May,6/15/2017,16928.0,SOCIETY OF PROFESSIONAL ENGINEERING EMPLOYEES IN AEROSPACE SPEEA,500.0,0.0,500.0,0.0,0.0,0.0,0.0,0.0,0.0,0.0,500.0,19647.0,Direct,,,View report (https://accesshub.pdc.wa.gov/node/34160),Fiscal,"HB 2145, HB 2146",Finance Committee
20194,34146-18369,34146,FE,17432,CAPITOL STRATEGIES CONSULTING*,Employer,18369,SPOKANE TRANSIT AUTHORITY,17-May,6/15/2017,16943.0,SPOKANE TRANSIT AUTHORITY,4642.75,0.0,4642.75,0.0,0.0,0.0,0.0,0.0,0.0,0.0,4642.75,18369.0,Direct,,,View report (https://accesshub.pdc.wa.gov/node/34146),Transportation,Transportation issues,Transportation committees
20195,34180-19013,34180,FE,17666,ALEX HUR,Employer,19013,STATEWIDE POVERTY ACTION NETWORK,17-May,6/15/2017,16952.0,STATEWIDE POVERTY ACTION NETWORK,3000.0,0.0,3000.0,0.0,0.0,0.0,0.0,0.0,0.0,0.0,3000.0,19013.0,Direct,,,View report (https://accesshub.pdc.wa.gov/node/34180),Human services,Human Servicecs,"Human Services, Appropriations, Ways"
20196,34006-19754,34006,FE,18021,LISA THATCHER,Employer,19754,Stericycle,17-May,6/15/2017,16953.0,Stericycle,4350.0,0.0,4350.0,0.0,0.0,0.0,0.0,0.0,0.0,0.0,4350.0,19754.0,Direct,,,View report (https://accesshub.pdc.wa.gov/node/34006),Environmental Affairs - natural resources - parks,"Pharma waste, medical waste, state only dangerous waste",20th Legislative District and Dept of Ecology
20197,34163-31912,34163,FE,31794,Stands Alone Consulting LLC,Employer,31912,STILLAGUAMISH TRIBE OF INDIANS,17-May,6/15/2017,16955.0,STILLAGUAMISH TRIBE OF INDIANS,1750.0,0.0,1750.0,0.0,0.0,0.0,0.0,0.0,0.0,0.0,1750.0,31912.0,Direct,,,View report (https://accesshub.pdc.wa.gov/node/34163),Fiscal,2017-2019 Capital and Operating Budgets,Representative Tharinger
20198,32503-19525,32503,FE,17906,PUBLIC AFFAIRS OF WA LLC*,Employer,19525,SUNRISE SERVICES INC,17-Mar,6/15/2017,16959.0,SUNRISE SERVICES INC,725.0,0.0,725.0,358.35,0.0,0.0,0.0,0.0,0.0,358.35,1083.35,19525.0,Direct,,,View report (https://accesshub.pdc.wa.gov/node/32503),Health Care,DDD,Hs Sen Fiscal and Finance
20199,34183-19525,34183,FE,17906,PUBLIC AFFAIRS OF WA LLC*,Employer,19525,SUNRISE SERVICES INC,17-May,6/15/2017,16959.0,SUNRISE SERVICES INC,725.0,0.0,725.0,102.79,0.0,0.0,0.0,0.0,0.0,102.79,827.79,19525.0,Direct,,,View report (https://accesshub.pdc.wa.gov/node/34183),Health Care,DDD,Hs Sen Fiscal and Finance
20200,34259-18501,34259,FE,17465,Coyne Jesernig LLC,Employer,18501,SYNGENTA,17-May,6/15/2017,16964.0,SYNGENTA,2000.0,0.0,2000.0,0.0,0.0,0.0,0.0,0.0,0.0,0.0,2000.0,18501.0,Direct,,,View report (https://accesshub.pdc.wa.gov/node/34259),Agriculture,Labeling,"AGNR, AWTED"
20201,34204-19626,34204,FE,17964,SCOTT C SIGMON,Employer,19626,"UCB, INC",17-May,6/15/2017,17002.0,"UCB, INC",4000.0,0.0,4000.0,0.0,0.0,0.0,0.0,0.0,0.0,0.0,4000.0,19626.0,Direct,,,View report (https://accesshub.pdc.wa.gov/node/34204),Fiscal,SB 5048,Fiscal Committees
20202,34248-19114,34248,FE,17726,COLLEEN LAING,Employer,19114,UNITED WAY OF KING CO,17-May,6/15/2017,17018.0,UNITED WAY OF KING CO,1775.75,0.0,1775.75,0.0,0.0,0.0,0.0,0.0,0.0,0.0,1775.75,19114.0,Direct,,,View report (https://accesshub.pdc.wa.gov/node/34248),Human services,Various,State legislators; DSHS
20203,34186-19404,34186,FE,17872,OYSTER BAY PUBLIC AFFAIRS*,Employer,19404,VERTEX PHARMACEUTICALS INC,17-May,6/15/2017,17033.0,VERTEX PHARMACEUTICALS INC,1000.0,0.0,1000.0,0.0,0.0,0.0,0.0,0.0,0.0,0.0,1000.0,19404.0,Direct,,,View report (https://accesshub.pdc.wa.gov/node/34186),Health Care,health care,health care
20204,34238-28020,34238,FE,17991,MELANIE STEWART & ASSOC LLC*,Employer,28020,VIRGINIA MASON FRANCISCAN HEALTH,17-May,6/15/2017,17037.0,VIRGINIA MASON FRANCISCAN HEALTH,2500.0,0.0,2500.0,0.0,0.0,0.0,0.0,0.0,0.0,0.0,2500.0,28020.0,Direct,,,View report (https://accesshub.pdc.wa.gov/node/34238),,,
20205,34058-18483,34058,FE,17460,COMMUNICO*,Employer,18483,T-MOBILE USA INC,17-May,6/15/2017,17038.0,T-MOBILE USA INC,6000.0,0.0,6000.0,0.0,0.0,0.0,0.0,0.0,0.0,0.0,6000.0,18483.0,Direct,,,View report (https://accesshub.pdc.wa.gov/node/34058),Energy and utilities,Telecommunications,"S - Energy, Environment & Telecom H - Technology Econ & Dev."
20207,32503-19526,32503,FE,17906,PUBLIC AFFAIRS OF WA LLC*,Employer,19526,WA APARTMENT ASSN,17-Mar,6/15/2017,17043.0,WA APARTMENT ASSN,1757.05,0.0,1757.05,386.51,0.0,0.0,0.0,0.0,0.0,386.51,2143.56,19526.0,Direct,,,View report (https://accesshub.pdc.wa.gov/node/32503),Financial institutions and insurance,Housing,Hs Sen Fiscal and Housing
20208,34183-19526,34183,FE,17906,PUBLIC AFFAIRS OF WA LLC*,Employer,19526,WA APARTMENT ASSN,17-May,6/15/2017,17043.0,WA APARTMENT ASSN,1757.05,0.0,1757.05,318.44,0.0,0.0,0.0,0.0,0.0,318.44,2075.49,19526.0,Direct,,,View report (https://accesshub.pdc.wa.gov/node/34183),Financial institutions and insurance,Housing,Hs Sen Fiscal and Housing
20209,34252-26123,34252,FE,17645,BILL HINKLE,Employer,26123,OPTOMETRIC PHYSICIANS OF WA,17-May,6/15/2017,17057.0,OPTOMETRIC PHYSICIANS OF WA,4000.0,0.0,4000.0,0.0,0.0,0.0,0.0,0.0,0.0,0.0,4000.0,26123.0,Direct,,,View report (https://accesshub.pdc.wa.gov/node/34252),Health Care,Healthcare,Monitoring
20210,34186-19405,34186,FE,17872,OYSTER BAY PUBLIC AFFAIRS*,Employer,19405,WA ASSN OF BUILDING OFFICIALS,17-May,6/15/2017,17066.0,WA ASSN OF BUILDING OFFICIALS,2500.0,0.0,2500.0,0.0,0.0,0.0,0.0,0.0,0.0,0.0,2500.0,19405.0,Direct,,,View report (https://accesshub.pdc.wa.gov/node/34186),Local government,building issues,"local government, state government"
20211,32503-19527,32503,FE,17906,PUBLIC AFFAIRS OF WA LLC*,Employer,19527,WA COLLECTORS ASSN,17-Mar,6/15/2017,17068.0,WA COLLECTORS ASSN,1763.01,0.0,1763.01,386.51,0.0,0.0,0.0,0.0,0.0,386.51,2149.52,19527.0,Direct,,,View report (https://accesshub.pdc.wa.gov/node/32503),Law and justice,Collection,HS Sen Judiciary
20212,34183-19527,34183,FE,17906,PUBLIC AFFAIRS OF WA LLC*,Employer,19527,WA COLLECTORS ASSN,17-May,6/15/2017,17068.0,WA COLLECTORS ASSN,1763.01,0.0,1763.01,830.25,0.0,0.0,0.0,0.0,0.0,830.25,2593.26,19527.0,Direct,,,View report (https://accesshub.pdc.wa.gov/node/34183),Financial institutions and insurance,Collection,HS SN Judiciary
20213,34259-18502,34259,FE,17465,Coyne Jesernig LLC,Employer,18502,WA ASSN OF CONSERVATION DISTRICTS,17-May,6/15/2017,17076.0,WA ASSN OF CONSERVATION DISTRICTS,1750.0,0.0,1750.0,0.0,0.0,0.0,0.0,0.0,0.0,0.0,1750.0,18502.0,Direct,,,View report (https://accesshub.pdc.wa.gov/node/34259),Fiscal,Op/Cap Budget,"H Cap Bud., W&M"
20214,34006-19756,34006,FE,18021,LISA THATCHER,Employer,19756,WA CITIES INSURANCE AUTHORITY,17-May,6/15/2017,17081.0,WA CITIES INSURANCE AUTHORITY,2000.0,0.0,2000.0,0.0,0.0,0.0,0.0,0.0,0.0,0.0,2000.0,19756.0,Direct,,,View report (https://accesshub.pdc.wa.gov/node/34006),,,
20215,34149-18468,34149,FE,17455,CLIFFORD TRAISMAN & ASSOC*,Employer,18468,Washington Conservation Action,17-May,6/15/2017,17091.0,Washington Conservation Action,4000.0,0.0,4000.0,0.0,0.0,0.0,0.0,0.0,0.0,0.0,4000.0,18468.0,Direct,,,View report (https://accesshub.pdc.wa.gov/node/34149),Environmental Affairs - natural resources - parks,"1646, budget",Budget Committees/Administration
20216,34149-18469,34149,FE,17455,CLIFFORD TRAISMAN & ASSOC*,Employer,18469,Washington Conservation Action Education Fund,17-May,6/15/2017,17100.0,Washington Conservation Action Education Fund,4000.0,0.0,4000.0,0.0,0.0,0.0,0.0,0.0,0.0,0.0,4000.0,18469.0,Direct,,,View report (https://accesshub.pdc.wa.gov/node/34149),Environmental Affairs - natural resources - parks,"1646, budget",Environment Committees/Administration
20217,34148-19733,34148,FE,18013,DANIEL P SWECKER,Employer,19733,Northwest Aquaculture Alliance,17-May,6/15/2017,17115.0,Northwest Aquaculture Alliance,3800.0,0.0,3800.0,0.0,0.0,0.0,0.0,0.0,0.0,0.0,3800.0,19733.0,Direct,,,View report (https://accesshub.pdc.wa.gov/node/34148),Agriculture,aquaculture,Washington State Dept. of Agriculture
20218,34186-19406,34186,FE,17872,OYSTER BAY PUBLIC AFFAIRS*,Employer,19406,WA FOOD INDUSTRY,17-May,6/15/2017,17117.0,WA FOOD INDUSTRY,2436.0,0.0,2436.0,0.0,0.0,0.0,0.0,0.0,0.0,0.0,2436.0,19406.0,Direct,,,View report (https://accesshub.pdc.wa.gov/node/34186),Business and consumer affairs,liquor licensing,"commerce & labor, commerce & gaming"
20219,34186-19407,34186,FE,17872,OYSTER BAY PUBLIC AFFAIRS*,Employer,19407,NORTHWEST CAREER COLLEGE FEDERATION,17-May,6/15/2017,17118.0,NORTHWEST CAREER COLLEGE FEDERATION,2666.67,0.0,2666.67,0.0,0.0,0.0,0.0,0.0,0.0,0.0,2666.67,19407.0,Direct,,,View report (https://accesshub.pdc.wa.gov/node/34186),Higher education,higher ed,higher ed
20220,34259-18503,34259,FE,17465,Coyne Jesernig LLC,Employer,18503,Food Northwest,17-May,6/15/2017,17119.0,Food Northwest,5000.0,0.0,5000.0,0.0,0.0,0.0,0.0,0.0,0.0,0.0,5000.0,18503.0,Direct,,,View report (https://accesshub.pdc.wa.gov/node/34259),Environmental Affairs - natural resources - parks,Carbon Tax,"H Env, EET"
20225,34006-19758,34006,FE,18021,LISA THATCHER,Employer,19758,WA INTERSCHOLASTIC ACTIVITIES ASSN,17-May,6/15/2017,17131.0,WA INTERSCHOLASTIC ACTIVITIES ASSN,4000.0,0.0,4000.0,5.09,0.0,0.0,0.0,0.0,0.0,5.09,4005.09,19758.0,Direct,,,View report (https://accesshub.pdc.wa.gov/node/34006),Education,Issues that impact student athletes and activities,Education
20226,34259-18504,34259,FE,17465,Coyne Jesernig LLC,Employer,18504,WA INDEPENDENT TELECOMMUNICATIONS ASSN,17-May,6/15/2017,17138.0,WA INDEPENDENT TELECOMMUNICATIONS ASSN,5000.0,0.0,5000.0,0.0,0.0,0.0,0.0,0.0,0.0,0.0,5000.0,18504.0,Direct,,,View report (https://accesshub.pdc.wa.gov/node/34259),Energy and utilities,Telecommunications,"TED, EET"
20227,34263-19764,34263,FE,18026,Michele Thomas,Employer,19764,WA LOW-INCOME HOUSING ALLIANCE,17-May,6/15/2017,17143.0,WA LOW-INCOME HOUSING ALLIANCE,567.06,0.0,567.06,42.42,0.0,0.0,0.0,0.0,0.0,42.42,609.48,19764.0,Direct,,,View report (https://accesshub.pdc.wa.gov/node/34263),Human services,"1570, Housing, homelessness",Various lawmakers
20228,34246-19841,34246,FE,18062,SEAMUS PETRIE,Employer,19841,WA PUBLIC EMPLOYEES ASSN,17-May,6/15/2017,17169.0,WA PUBLIC EMPLOYEES ASSN,4660.0,0.0,4660.0,0.0,0.0,0.0,0.0,0.0,0.0,0.0,4660.0,19841.0,Direct,,,View report (https://accesshub.pdc.wa.gov/node/34246),Labor,State Employee Collective Bargaining Agreements,House and Senate
20229,34170-19398,34170,FE,17870,OUTCOMES BY LEVY LLC*,Employer,19398,WA RECREATION & PARKS ASSN,17-May,6/15/2017,17183.0,WA RECREATION & PARKS ASSN,4300.0,0.0,4300.0,182.67,0.0,0.0,0.0,0.0,0.0,182.67,4482.67,19398.0,Direct,,,View report (https://accesshub.pdc.wa.gov/node/34170),Environmental Affairs - natural resources - parks,Outdoor Recreation,Capital budget writers in the 2017-2019 budget
20230,31172-19362,31172,FE,17848,THE NEXUS GROUP LLC*,Employer,19362,WA ASSN OF SCHOOL ADMINISTRATORS,17-Feb,6/15/2017,17186.0,WA ASSN OF SCHOOL ADMINISTRATORS,1893.0,0.0,1893.0,0.0,0.0,0.0,0.0,0.0,0.0,0.0,1893.0,19362.0,Direct,,,View report (https://accesshub.pdc.wa.gov/node/31172),Fiscal,RETIREMENT HEALTH COMPENSATION,SCPP DRS PFC APPROPRIATIONS
20231,32107-19362,32107,FE,17848,THE NEXUS GROUP LLC*,Employer,19362,WA ASSN OF SCHOOL ADMINISTRATORS,17-Mar,6/15/2017,17186.0,WA ASSN OF SCHOOL ADMINISTRATORS,1893.0,0.0,1893.0,0.0,0.0,0.0,0.0,0.0,0.0,0.0,1893.0,19362.0,Direct,,,View report (https://accesshub.pdc.wa.gov/node/32107),Fiscal,Pension/ Health Care,DRS/SCPP/PFC/APPS
20232,32943-19362,32943,FE,17848,THE NEXUS GROUP LLC*,Employer,19362,WA ASSN OF SCHOOL ADMINISTRATORS,17-Apr,6/15/2017,17186.0,WA ASSN OF SCHOOL ADMINISTRATORS,1893.0,0.0,1893.0,0.0,0.0,0.0,0.0,0.0,0.0,0.0,1893.0,19362.0,Direct,,,View report (https://accesshub.pdc.wa.gov/node/32943),Fiscal,Pension/ Health Care,DRS/SCPP/PFC/APPS
20233,33685-19362,33685,FE,17848,THE NEXUS GROUP LLC*,Employer,19362,WA ASSN OF SCHOOL ADMINISTRATORS,17-May,6/15/2017,17186.0,WA ASSN OF SCHOOL ADMINISTRATORS,1893.0,0.0,1893.0,0.0,0.0,0.0,0.0,0.0,0.0,0.0,1893.0,19362.0,Direct,,,View report (https://accesshub.pdc.wa.gov/node/33685),Fiscal,Pension/ Health Care,DRS/SCPP/PFC/APPS
20234,34006-19759,34006,FE,18021,LISA THATCHER,Employer,19759,WA SOCIETY OF CPA'S,17-May,6/15/2017,17188.0,WA SOCIETY OF CPA'S,6000.0,0.0,6000.0,5.09,0.0,0.0,0.0,0.0,0.0,5.09,6005.09,19759.0,Direct,,,View report (https://accesshub.pdc.wa.gov/node/34006),Business and consumer affairs,professional issues that impact CPA's,Department of Revenue
20235,33821-19074,33821,FE,17703,CAROLINE KING,Employer,19074,WA STEM CENTER,17-May,6/15/2017,17189.0,WA STEM CENTER,389.42,0.0,389.42,0.0,0.0,0.0,0.0,0.0,0.0,0.0,389.42,19074.0,Direct,,,View report (https://accesshub.pdc.wa.gov/node/33821),Education,STEM,"Governor's Office, Legislature, Department of Employment Security, OSPI"
20236,34215-18524,34215,FE,17477,JOE C DANIELS,Employer,18524,WA ASSN OF SEWER & WATER DISTRICTS,17-May,6/15/2017,17198.0,WA ASSN OF SEWER & WATER DISTRICTS,3000.0,0.0,3000.0,0.0,0.0,0.0,0.0,0.0,0.0,0.0,3000.0,18524.0,Direct,,,View report (https://accesshub.pdc.wa.gov/node/34215),Local government,water sewer district issues,legislative fiscal & policy committees
20237,33126-25653,33126,FE,25651,Insight Strategic Partners LLC,Employer,25653,WA TECHNOLOGY INDUSTRY ASSN,17-Apr,6/15/2017,17203.0,WA TECHNOLOGY INDUSTRY ASSN,8000.0,0.0,8000.0,0.0,0.0,0.0,0.0,0.0,0.0,0.0,8000.0,25653.0,Direct,,,View report (https://accesshub.pdc.wa.gov/node/33126),Technology,Technology Policy including Biometrics,House & Senate Technology Committee
20238,34141-25653,34141,FE,25651,Insight Strategic Partners LLC,Employer,25653,WA TECHNOLOGY INDUSTRY ASSN,17-May,6/15/2017,17203.0,WA TECHNOLOGY INDUSTRY ASSN,8000.0,0.0,8000.0,0.0,0.0,0.0,0.0,0.0,0.0,0.0,8000.0,25653.0,Direct,,,View report (https://accesshub.pdc.wa.gov/node/34141),Technology,Technology Public Policy,House and Senate Technology
20239,32503-24421,32503,FE,17906,PUBLIC AFFAIRS OF WA LLC*,Employer,24421,TOWING AND RECOVERY ASSN OF WA,17-Mar,6/15/2017,17205.0,TOWING AND RECOVERY ASSN OF WA,1250.0,0.0,1250.0,94.07,0.0,0.0,0.0,0.0,0.0,94.07,1344.07,24421.0,Direct,,,View report (https://accesshub.pdc.wa.gov/node/32503),Transportation,Towing,Hs Sen Transportation
20240,34183-24421,34183,FE,17906,PUBLIC AFFAIRS OF WA LLC*,Employer,24421,TOWING AND RECOVERY ASSN OF WA,17-May,6/15/2017,17205.0,TOWING AND RECOVERY ASSN OF WA,1250.0,0.0,1250.0,160.19,0.0,0.0,0.0,0.0,0.0,160.19,1410.19,24421.0,Direct,,,View report (https://accesshub.pdc.wa.gov/node/34183),Transportation,Towing,Hs Sen Transportation
20241,32503-19528,32503,FE,17906,PUBLIC AFFAIRS OF WA LLC*,Employer,19528,WA ASSN OF VEHICLE SUBAGENTS,17-Mar,6/15/2017,17207.0,WA ASSN OF VEHICLE SUBAGENTS,2046.03,0.0,2046.03,390.78,0.0,0.0,0.0,0.0,0.0,390.78,2436.81,19528.0,Direct,,,View report (https://accesshub.pdc.wa.gov/node/32503),Transportation,Subagents,Hs Sen Transportation
20242,34183-19528,34183,FE,17906,PUBLIC AFFAIRS OF WA LLC*,Employer,19528,WA ASSN OF VEHICLE SUBAGENTS,17-May,6/15/2017,17207.0,WA ASSN OF VEHICLE SUBAGENTS,2046.03,0.0,2046.03,976.96,0.0,0.0,0.0,0.0,0.0,976.96,3022.99,19528.0,Direct,,,View report (https://accesshub.pdc.wa.gov/node/34183),Transportation,Subagents,Hs Sen Transportation
20243,34189-19579,34189,FE,17944,MICHAEL V SCHWISOW,Employer,19579,Washington Winegrowers Association,17-May,6/15/2017,17210.0,Washington Winegrowers Association,2500.0,0.0,2500.0,0.0,0.0,0.0,0.0,0.0,0.0,0.0,2500.0,19579.0,Direct,,,View report (https://accesshub.pdc.wa.gov/node/34189),Fiscal,5086,"Senate W&M, House Capital Budget"
20244,34146-18370,34146,FE,17432,CAPITOL STRATEGIES CONSULTING*,Employer,18370,WA WATER POLICY ALLIANCE,17-May,6/15/2017,17212.0,WA WATER POLICY ALLIANCE,2236.0,0.0,2236.0,0.0,0.0,0.0,0.0,0.0,0.0,0.0,2236.0,18370.0,Direct,,,View report (https://accesshub.pdc.wa.gov/node/34146),Agriculture,Water rights,Agriculture Committees and Dept. of Ecology
20245,34259-18505,34259,FE,17465,Coyne Jesernig LLC,Employer,18505,WA ST COUNCIL OF FARMER COOPERATIVES,17-May,6/15/2017,17233.0,WA ST COUNCIL OF FARMER COOPERATIVES,3500.0,0.0,3500.0,0.0,0.0,0.0,0.0,0.0,0.0,0.0,3500.0,18505.0,Direct,,,View report (https://accesshub.pdc.wa.gov/node/34259),Environmental Affairs - natural resources - parks,Carbon Tax,"H Env, EET"
20246,34256-19715,34256,FE,17999,MARK L STREULI,Employer,19715,WA ST FARM BUREAU,17-May,6/15/2017,17246.0,WA ST FARM BUREAU,4000.0,0.0,4000.0,0.0,0.0,0.0,0.0,0.0,0.0,0.0,4000.0,19715.0,Direct,,,View report (https://accesshub.pdc.wa.gov/node/34256),Agriculture,"Agriculture, Transportation, Labor","Washington State Department of Agriculture, House and Senate Agriculture Committees"
20248,34006-19760,34006,FE,18021,LISA THATCHER,Employer,19760,WA ST HOSPITAL ASSN,17-May,6/15/2017,17252.0,WA ST HOSPITAL ASSN,10500.0,0.0,10500.0,48.95,0.0,0.0,0.0,0.0,0.0,48.95,10548.95,19760.0,Direct,,,View report (https://accesshub.pdc.wa.gov/node/34006),Health Care,Hospital specific issues,Dept of Health; Dept of Ecology; Dept of L&I; HCA
20250,34205-19448,34205,FE,17884,Robert Perna,Employer,19448,WA ST MEDICAL ASSN,17-May,6/15/2017,17261.0,WA ST MEDICAL ASSN,636.79,0.0,636.79,0.0,0.0,0.0,0.0,0.0,0.0,0.0,636.79,19448.0,Direct,,,View report (https://accesshub.pdc.wa.gov/node/34205),Health Care,Health care,Health Care Authority
20251,34238-19688,34238,FE,17991,MELANIE STEWART & ASSOC LLC*,Employer,19688,WA ST DIST & MUNICIPAL COURT JUDGES ASSN,17-May,6/15/2017,17263.0,WA ST DIST & MUNICIPAL COURT JUDGES ASSN,2000.0,0.0,2000.0,0.0,0.0,0.0,0.0,0.0,0.0,0.0,2000.0,19688.0,Direct,,,View report (https://accesshub.pdc.wa.gov/node/34238),,,
20252,34238-19689,34238,FE,17991,MELANIE STEWART & ASSOC LLC*,Employer,19689,Washington State Podiatric Medical Association,17-May,6/15/2017,17272.0,Washington State Podiatric Medical Association,2500.0,0.0,2500.0,0.0,0.0,0.0,0.0,0.0,0.0,0.0,2500.0,19689.0,Direct,,,View report (https://accesshub.pdc.wa.gov/node/34238),Health Care,various,health care
20253,34259-18506,34259,FE,17465,Coyne Jesernig LLC,Employer,18506,WA ST POTATO COMMISSION,17-May,6/15/2017,17273.0,WA ST POTATO COMMISSION,3750.0,0.0,3750.0,0.0,0.0,0.0,0.0,0.0,0.0,0.0,3750.0,18506.0,Direct,,,View report (https://accesshub.pdc.wa.gov/node/34259),,,
20254,32503-19529,32503,FE,17906,PUBLIC AFFAIRS OF WA LLC*,Employer,19529,WA ST SNOWMOBILE ASSN,17-Mar,6/15/2017,17282.0,WA ST SNOWMOBILE ASSN,718.63,0.0,718.63,31.8,0.0,0.0,0.0,0.0,0.0,31.8,750.43,19529.0,Direct,,,View report (https://accesshub.pdc.wa.gov/node/32503),Fiscal,Snowmobile,Hs Sen Fiscal and Transportation
20255,34183-19529,34183,FE,17906,PUBLIC AFFAIRS OF WA LLC*,Employer,19529,WA ST SNOWMOBILE ASSN,17-May,6/15/2017,17282.0,WA ST SNOWMOBILE ASSN,718.63,0.0,718.63,38.2,0.0,0.0,0.0,0.0,0.0,38.2,756.83,19529.0,Direct,,,View report (https://accesshub.pdc.wa.gov/node/34183),Fiscal,Snowmobile,Hs Sen Fiscal and Transportation
20256,31172-19363,31172,FE,17848,THE NEXUS GROUP LLC*,Employer,19363,WA ST SCHOOL RETIREES ASSN,17-Feb,6/15/2017,17286.0,WA ST SCHOOL RETIREES ASSN,5100.0,0.0,5100.0,0.0,0.0,0.0,0.0,0.0,0.0,0.0,5100.0,19363.0,Direct,,,View report (https://accesshub.pdc.wa.gov/node/31172),Fiscal,RETIREMENT HEALTH,SCPP DRS PFC APPROPRIATIOINS
20257,32107-19363,32107,FE,17848,THE NEXUS GROUP LLC*,Employer,19363,WA ST SCHOOL RETIREES ASSN,17-Mar,6/15/2017,17286.0,WA ST SCHOOL RETIREES ASSN,5068.0,0.0,5068.0,0.0,0.0,0.0,0.0,0.0,0.0,0.0,5068.0,19363.0,Direct,,,View report (https://accesshub.pdc.wa.gov/node/32107),Fiscal,RETIREMENT HEALTH COMPENSATION,SCPP DRS PFC APPROPRIATIONS
20258,32943-19363,32943,FE,17848,THE NEXUS GROUP LLC*,Employer,19363,WA ST SCHOOL RETIREES ASSN,17-Apr,6/15/2017,17286.0,WA ST SCHOOL RETIREES ASSN,5068.0,0.0,5068.0,0.0,0.0,0.0,0.0,0.0,0.0,0.0,5068.0,19363.0,Direct,,,View report (https://accesshub.pdc.wa.gov/node/32943),Fiscal,RETIREMENT HEALTH COMPENSATION,SCPP DRS PFC APPROPRIATIONS
20259,33685-19363,33685,FE,17848,THE NEXUS GROUP LLC*,Employer,19363,WA ST SCHOOL RETIREES ASSN,17-May,6/15/2017,17286.0,WA ST SCHOOL RETIREES ASSN,5068.0,0.0,5068.0,0.0,0.0,0.0,0.0,0.0,0.0,0.0,5068.0,19363.0,Direct,,,View report (https://accesshub.pdc.wa.gov/node/33685),Fiscal,RETIREMENT HEALTH COMPENSATION,SCPP DRS PFC APPROPRIATIONS
20260,32503-19530,32503,FE,17906,PUBLIC AFFAIRS OF WA LLC*,Employer,19530,WA ST SELF STORAGE ASSN,17-Mar,6/15/2017,17287.0,WA ST SELF STORAGE ASSN,603.79,0.0,603.79,48.03,0.0,0.0,0.0,0.0,0.0,48.03,651.82,19530.0,Direct,,,View report (https://accesshub.pdc.wa.gov/node/32503),Labor,Storage,Hs Sen Commerce and Labor
20261,34183-19530,34183,FE,17906,PUBLIC AFFAIRS OF WA LLC*,Employer,19530,WA ST SELF STORAGE ASSN,17-May,6/15/2017,17287.0,WA ST SELF STORAGE ASSN,603.79,0.0,603.79,180.12,0.0,0.0,0.0,0.0,0.0,180.12,783.91,19530.0,Direct,,,View report (https://accesshub.pdc.wa.gov/node/34183),Labor,Storage,Hs Sen Commerce and Labor
20262,34259-18507,34259,FE,17465,Coyne Jesernig LLC,Employer,18507,WA ST UNIVERSITY,17-May,6/15/2017,17290.0,WA ST UNIVERSITY,4000.0,0.0,4000.0,0.0,0.0,0.0,0.0,0.0,0.0,0.0,4000.0,18507.0,Direct,,,View report (https://accesshub.pdc.wa.gov/node/34259),Higher education,Op/Cap Budget,"H Cap Budget, W&M"
20263,34058-18484,34058,FE,17460,COMMUNICO*,Employer,18484,Washington State Veterinary Medical Association,17-May,6/15/2017,17291.0,Washington State Veterinary Medical Association,5329.17,0.0,5329.17,76.36,0.0,0.0,0.0,0.0,0.0,76.36,5405.53,18484.0,Direct,,,View report (https://accesshub.pdc.wa.gov/node/34058),Health Care,"Health Care, Taxes and Animal Cruelty","S - Agriculture& Natural Resources, H - Agriculture, Water, Trade & Econ. Dev,S - Law & Justice, H - Judiciary, S - Health Care and H - Health Care & Wellness"
20264,34189-19580,34189,FE,17944,MICHAEL V SCHWISOW,Employer,19580,WA ST WATER RESOURCES ASSN,17-May,6/15/2017,17292.0,WA ST WATER RESOURCES ASSN,4561.66,0.0,4561.66,0.0,0.0,0.0,0.0,0.0,0.0,0.0,4561.66,19580.0,Direct,,,View report (https://accesshub.pdc.wa.gov/node/34189),Fiscal,5086,"Senate W&M, House Capital Budget"
20265,34170-19399,34170,FE,17870,OUTCOMES BY LEVY LLC*,Employer,19399,WESTAF,17-May,6/15/2017,17301.0,WESTAF,4000.0,0.0,4000.0,0.0,0.0,0.0,0.0,0.0,2000.0,2000.0,6000.0,19399.0,Direct,,,View report (https://accesshub.pdc.wa.gov/node/34170),Fiscal,Arts,Operating and Capital budget writers on issues impacting Arts culture
20266,34228-20065,34228,FE,17554,DAVID S FOSTER,Employer,20065,WESTAF (OUTCOMES BY LEVY LLC*),17-May,6/15/2017,17301.0,WESTAF,1850.0,0.0,1850.0,0.0,0.0,0.0,0.0,0.0,0.0,0.0,1850.0,20065.0,Subcontract,17870.0,OUTCOMES BY LEVY LLC*,View report (https://accesshub.pdc.wa.gov/node/34228),,,
20267,34058-18485,34058,FE,17460,COMMUNICO*,Employer,18485,Western States Petroleum Assn.,17-May,6/15/2017,17302.0,Western States Petroleum Assn.,26666.66,0.0,26666.66,294.98,0.0,0.0,0.0,0.0,3625.0,3919.98,30586.64,18485.0,Direct,,,View report (https://accesshub.pdc.wa.gov/node/34058),Energy and utilities,"Petroleumn Issues, Transportation, Marine Safety and Taxes","H - Environment and S - Energy, Environment & Telecommunications"
20268,34058-18486,34058,FE,17460,COMMUNICO*,Employer,18486,The Williams Companies,17-May,6/15/2017,17311.0,The Williams Companies,2500.0,0.0,2500.0,0.0,0.0,0.0,0.0,0.0,0.0,0.0,2500.0,18486.0,Direct,,,View report (https://accesshub.pdc.wa.gov/node/34058),Environmental Affairs - natural resources - parks,Pipeline,"H - Environment and S - Energy, Environment & Telecommunications"
20269,34259-18508,34259,FE,17465,Coyne Jesernig LLC,Employer,18508,The Williams Companies,17-May,6/15/2017,17311.0,The Williams Companies,2500.0,0.0,2500.0,0.0,0.0,0.0,0.0,0.0,0.0,0.0,2500.0,18508.0,Direct,,,View report (https://accesshub.pdc.wa.gov/node/34259),Environmental Affairs - natural resources - parks,Carbon Tax,"H Env, EET"
20270,34228-18742,34228,FE,17554,DAVID S FOSTER,Employer,18742,Washington State Alliance of YMCAs,17-May,6/15/2017,17323.0,Washington State Alliance of YMCAs,3090.0,0.0,3090.0,0.0,0.0,0.0,0.0,0.0,0.0,0.0,3090.0,18742.0,Direct,,,View report (https://accesshub.pdc.wa.gov/node/34228),Human services,"Childcare, budget","Early Learning & Human Services, Health care, Cap Budget"
20271,34215-18525,34215,FE,17477,JOE C DANIELS,Employer,18525,Republic National Distributing Company,17-May,6/15/2017,17324.0,Republic National Distributing Company,6000.0,0.0,6000.0,0.0,0.0,0.0,0.0,0.0,0.0,0.0,6000.0,18525.0,Direct,,,View report (https://accesshub.pdc.wa.gov/node/34215),Business and consumer affairs,liquor distribution issues,LEGISLATIVE POLICY FISCAL COMMITTEES
20272,34259-23613,34259,FE,17465,Coyne Jesernig LLC,Employer,23613,WA GRAIN COMMISSION,17-May,6/15/2017,23610.0,WA GRAIN COMMISSION,4000.0,0.0,4000.0,0.0,0.0,0.0,0.0,0.0,0.0,0.0,4000.0,23613.0,Direct,,,View report (https://accesshub.pdc.wa.gov/node/34259),,,
20273,34259-23614,34259,FE,17465,Coyne Jesernig LLC,Employer,23614,WA POTATO & ONION ASSN,17-May,6/15/2017,23611.0,WA POTATO & ONION ASSN,1500.0,0.0,1500.0,0.0,0.0,0.0,0.0,0.0,0.0,0.0,1500.0,23614.0,Direct,,,View report (https://accesshub.pdc.wa.gov/node/34259),Environmental Affairs - natural resources - parks,Carbon Tax,"H Env., EET"
20274,34204-25407,34204,FE,17964,SCOTT C SIGMON,Employer,25407,"bluebird bio, Inc.",17-May,6/15/2017,25383.0,"bluebird bio, Inc.",4000.0,0.0,4000.0,0.0,0.0,0.0,0.0,0.0,0.0,0.0,4000.0,25407.0,Direct,,,View report (https://accesshub.pdc.wa.gov/node/34204),Fiscal,SB 5048,Fiscal Committees
20275,32503-27025,32503,FE,17906,PUBLIC AFFAIRS OF WA LLC*,Employer,27025,"Delivery Express, Inc.",17-Mar,6/15/2017,26676.0,"Delivery Express, Inc.",2750.0,0.0,2750.0,835.75,0.0,0.0,0.0,0.0,0.0,835.75,3585.75,27025.0,Direct,,,View report (https://accesshub.pdc.wa.gov/node/32503),Transportation,Delivery service,Hs Sen Transportation
20276,34183-27025,34183,FE,17906,PUBLIC AFFAIRS OF WA LLC*,Employer,27025,"Delivery Express, Inc.",17-May,6/15/2017,26676.0,"Delivery Express, Inc.",2750.0,0.0,2750.0,323.18,0.0,0.0,0.0,0.0,0.0,323.18,3073.18,27025.0,Direct,,,View report (https://accesshub.pdc.wa.gov/node/34183),Transportation,Delivery service,Hs Sen Transportation
20277,33675-30480,33675,FE,17526,Arbutus Consulting LLC,Employer,30480,City of Carnation (MARK O BROWN),17-May,6/15/2017,26878.0,City of Carnation,600.0,0.0,600.0,0.0,0.0,0.0,0.0,0.0,0.0,0.0,600.0,30480.0,Subcontract,17413.0,MARK O BROWN,View report (https://accesshub.pdc.wa.gov/node/33675),,,
20278,33675-27361,33675,FE,17526,Arbutus Consulting LLC,Employer,27361,City of Ferndale,17-May,6/15/2017,27359.0,City of Ferndale,1667.0,0.0,1667.0,0.0,0.0,0.0,0.0,0.0,0.0,0.0,1667.0,27361.0,Direct,,,View report (https://accesshub.pdc.wa.gov/node/33675),Local government,Local Government,Policy and Fiscal Committees
20279,34162-27427,34162,FE,27426,Peggen & Mara Political Consulting LLP,Employer,27427,Hoh Tribe,17-May,6/15/2017,27425.0,Hoh Tribe,3500.0,0.0,3500.0,0.0,0.0,0.0,0.0,0.0,0.0,0.0,3500.0,27427.0,Direct,,,View report (https://accesshub.pdc.wa.gov/node/34162),Fiscal,2017-19 Capital and Operating Budgets,Representative Blake
20280,34058-27437,34058,FE,17460,COMMUNICO*,Employer,27437,Nationstar Mortgage LLC,17-May,6/15/2017,27436.0,Nationstar Mortgage LLC,25000.0,0.0,25000.0,0.0,0.0,0.0,0.0,0.0,0.0,0.0,25000.0,27437.0,Direct,,,View report (https://accesshub.pdc.wa.gov/node/34058),Financial institutions and insurance,Banks,"S-Financial Institutions & Insurance, H-Business & Financial Services"
20281,34006-26749,34006,FE,18021,LISA THATCHER,Employer,26749,The Northwest Seaport Alliance,17-May,6/15/2017,28007.0,The Northwest Seaport Alliance,5000.0,0.0,5000.0,0.0,0.0,0.0,0.0,0.0,0.0,0.0,5000.0,26749.0,Direct,,,View report (https://accesshub.pdc.wa.gov/node/34006),Fiscal,MTCA Funding,Department of Ecology
20282,34167-28283,34167,FE,17769,Cyan Strategies,Employer,28283,EVgo Services LLC,17-May,6/15/2017,28270.0,EVgo Services LLC,3000.0,0.0,3000.0,0.0,0.0,0.0,0.0,0.0,0.0,0.0,3000.0,28283.0,Direct,,,View report (https://accesshub.pdc.wa.gov/node/34167),Transportation,HB 1335,Transportation Committee
20283,33126-28513,33126,FE,25651,Insight Strategic Partners LLC,Employer,28513,Yoga Alliance,17-Apr,6/15/2017,28496.0,Yoga Alliance,7500.0,0.0,7500.0,0.0,0.0,0.0,0.0,0.0,0.0,0.0,7500.0,28513.0,Direct,,,View report (https://accesshub.pdc.wa.gov/node/33126),Higher education,HB1385,House Higher Ed
20284,34141-28513,34141,FE,25651,Insight Strategic Partners LLC,Employer,28513,Yoga Alliance,17-May,6/15/2017,28496.0,Yoga Alliance,7500.0,0.0,7500.0,0.0,0.0,0.0,0.0,0.0,0.0,0.0,7500.0,28513.0,Direct,,,View report (https://accesshub.pdc.wa.gov/node/34141),Higher education,HB1385,House Higher Ed
20285,33126-28694,33126,FE,25651,Insight Strategic Partners LLC,Employer,28694,Zenefits,17-Apr,6/15/2017,28553.0,Zenefits,5000.0,0.0,5000.0,0.0,0.0,0.0,0.0,0.0,0.0,0.0,5000.0,28694.0,Direct,,,View report (https://accesshub.pdc.wa.gov/node/33126),Financial institutions and insurance,HB1185,Business and Financial Services
20286,34141-28694,34141,FE,25651,Insight Strategic Partners LLC,Employer,28694,Zenefits,17-May,6/15/2017,28553.0,Zenefits,5000.0,0.0,5000.0,0.0,0.0,0.0,0.0,0.0,0.0,0.0,5000.0,28694.0,Direct,,,View report (https://accesshub.pdc.wa.gov/node/34141),Financial institutions and insurance,HB1185,Business and Financial Services
20287,33126-29332,33126,FE,25651,Insight Strategic Partners LLC,Employer,29332,Warby Parker,17-Apr,6/15/2017,29330.0,Warby Parker,7500.0,0.0,7500.0,0.0,0.0,0.0,0.0,0.0,0.0,0.0,7500.0,29332.0,Direct,,,View report (https://accesshub.pdc.wa.gov/node/33126),,,
20289,34228-31666,34228,FE,17554,DAVID S FOSTER,Employer,31666,American Behavioral Health Systems Inc,17-May,6/15/2017,30616.0,American Behavioral Health Systems Inc,5000.0,0.0,5000.0,0.0,0.0,0.0,0.0,0.0,0.0,0.0,5000.0,31666.0,Direct,,,View report (https://accesshub.pdc.wa.gov/node/34228),Human services,Budget,"Appropriations, Ways & Means"
20290,34058-30687,34058,FE,17460,COMMUNICO*,Employer,30687,Washington State Data Center Competitiveness Coalition,17-May,6/15/2017,30622.0,Washington State Data Center Competitiveness Coalition,6250.0,0.0,6250.0,0.0,0.0,0.0,0.0,0.0,0.0,0.0,6250.0,30687.0,Direct,,,View report (https://accesshub.pdc.wa.gov/node/34058),,,
20291,32107-31151,32107,FE,17848,THE NEXUS GROUP LLC*,Employer,31151,Washington State School Directors Association,17-Mar,6/15/2017,31150.0,Washington State School Directors Association,1500.0,0.0,1500.0,0.0,0.0,0.0,0.0,0.0,0.0,0.0,1500.0,31151.0,Direct,,,View report (https://accesshub.pdc.wa.gov/node/32107),Fiscal,Pension/Health Care,SCPP DRS PFC APPROPRIATIOINS
20292,32943-31151,32943,FE,17848,THE NEXUS GROUP LLC*,Employer,31151,Washington State School Directors Association,17-Apr,6/15/2017,31150.0,Washington State School Directors Association,1500.0,0.0,1500.0,0.0,0.0,0.0,0.0,0.0,0.0,0.0,1500.0,31151.0,Direct,,,View report (https://accesshub.pdc.wa.gov/node/32943),Fiscal,Pension/Health Care,SCPP DRS PFC APPROPRIATIOINS
20293,33685-31151,33685,FE,17848,THE NEXUS GROUP LLC*,Employer,31151,Washington State School Directors Association,17-May,6/15/2017,31150.0,Washington State School Directors Association,1500.0,0.0,1500.0,0.0,0.0,0.0,0.0,0.0,0.0,0.0,1500.0,31151.0,Direct,,,View report (https://accesshub.pdc.wa.gov/node/33685),Fiscal,Pension/Health Care,SCPP DRS PFC APPROPRIATIOINS
20294,34170-31269,34170,FE,17870,OUTCOMES BY LEVY LLC*,Employer,31269,Cocoon House,17-May,6/15/2017,31268.0,Cocoon House,1000.0,0.0,1000.0,0.0,0.0,0.0,0.0,0.0,0.0,0.0,1000.0,31269.0,Direct,,,View report (https://accesshub.pdc.wa.gov/node/34170),Human services,Capital Request for Youth Homelessness Issues,Capital budget writers
20295,33126-32966,33126,FE,25651,Insight Strategic Partners LLC,Employer,32966,Space Exploration Technologies Corp. (SpaceX),17-Apr,6/15/2017,32962.0,Space Exploration Technologies Corp. (SpaceX),7000.0,0.0,7000.0,0.0,0.0,0.0,0.0,0.0,0.0,0.0,7000.0,32966.0,Direct,,,View report (https://accesshub.pdc.wa.gov/node/33126),Technology,Economic Development and Transportation,Executive Branch and Legislators
20296,34141-32966,34141,FE,25651,Insight Strategic Partners LLC,Employer,32966,Space Exploration Technologies Corp. (SpaceX),17-May,6/15/2017,32962.0,Space Exploration Technologies Corp. (SpaceX),7000.0,0.0,7000.0,0.0,0.0,0.0,0.0,0.0,0.0,0.0,7000.0,32966.0,Direct,,,View report (https://accesshub.pdc.wa.gov/node/34141),Transportation,Transportation and Economic Development,"Department of Revenue, Dept. of Transportation"
20297,32503-33003,32503,FE,17906,PUBLIC AFFAIRS OF WA LLC*,Employer,33003,"POSaBit, Inc",17-Mar,6/15/2017,32990.0,"POSaBit, Inc",3000.0,0.0,3000.0,78.15,0.0,0.0,0.0,0.0,0.0,78.15,3078.15,33003.0,Direct,,,View report (https://accesshub.pdc.wa.gov/node/32503),Financial institutions and insurance,virtual currency,HS SN Commerce & Labor
20298,34183-33003,34183,FE,17906,PUBLIC AFFAIRS OF WA LLC*,Employer,33003,"POSaBit, Inc",17-May,6/15/2017,32990.0,"POSaBit, Inc",3000.0,0.0,3000.0,99.32,0.0,0.0,0.0,0.0,0.0,99.32,3099.32,33003.0,Direct,,,View report (https://accesshub.pdc.wa.gov/node/34183),Financial institutions and insurance,Virtual currency,HS SN Commerce & Labor
20299,33126-33041,33126,FE,25651,Insight Strategic Partners LLC,Employer,33041,"National Grid USA Service Company, Inc.",17-Apr,6/15/2017,33016.0,"National Grid USA Service Company, Inc.",1750.0,0.0,1750.0,0.0,0.0,0.0,0.0,0.0,0.0,0.0,1750.0,33041.0,Direct,,,View report (https://accesshub.pdc.wa.gov/node/33126),Energy and utilities,Captial Budget,House and Senate Capital Budget
20300,34141-33041,34141,FE,25651,Insight Strategic Partners LLC,Employer,33041,"National Grid USA Service Company, Inc.",17-May,6/15/2017,33016.0,"National Grid USA Service Company, Inc.",3500.0,0.0,3500.0,0.0,0.0,0.0,0.0,0.0,0.0,0.0,3500.0,33041.0,Direct,,,View report (https://accesshub.pdc.wa.gov/node/34141),Energy and utilities,"Energy Policy, Capital Budget",Utilities
20301,34274-28169,34274,FE,17742,SHAWN M LEWIS,Employer,28169,WA EDUCATION ASSN,17-May,6/16/2017,17098.0,WA EDUCATION ASSN,2426.88,0.0,2426.88,0.0,0.0,1440.96,0.0,183865.0,5463.99,190769.95,193196.83,28169.0,Direct,,,View report (https://accesshub.pdc.wa.gov/node/34274),Education,K-12 Education Policy,"Rep.Chopp, Sullivan, Nelson, Fitzgibbon, Democratic Caucus Staff, WSSDA, OSPI, OFM, Governors Staff"
20302,34277-19256,34277,FE,17799,KIMBERLEE A MEAD,Employer,19256,WA EDUCATION ASSN,17-May,6/16/2017,17098.0,WA EDUCATION ASSN,352.24,0.0,352.24,0.0,0.0,176.12,0.0,352.24,1056.72,1585.08,1937.32,19256.0,Direct,,,View report (https://accesshub.pdc.wa.gov/node/34277),Education,Full Funding for Public Education,"Gov. Inslee, Rep. Kilmer"
20315,34291-29275,34291,FE,17693,Water Street Public Affairs LLC,Employer,29275,ABBOTT LABORATORIES,17-May,6/16/2017,16060.0,ABBOTT LABORATORIES,3333.0,0.0,3333.0,0.0,0.0,0.0,0.0,0.0,0.0,0.0,3333.0,29275.0,Direct,,,View report (https://accesshub.pdc.wa.gov/node/34291),Health Care,Nutrition,"Senate Health Care Committee, House Health & Wellness Committee"
20316,33716-18759,33716,FE,17565,GANO & ASSOC*,Employer,18759,Chubb,17-May,6/16/2017,16063.0,Chubb,3500.0,0.0,3500.0,0.0,0.0,2000.0,0.0,0.0,462.25,2462.25,5962.25,18759.0,Direct,,,View report (https://accesshub.pdc.wa.gov/node/33716),Financial institutions and insurance,Insurance,H S Finacial Inst and Insurance
20318,34269-19305,34269,FE,17819,MJB CONSULTING*,Employer,19305,American Coatings Association,17-May,6/16/2017,16092.0,American Coatings Association,2916.66,0.0,2916.66,0.0,0.0,0.0,0.0,0.0,0.0,0.0,2916.66,19305.0,Direct,,,View report (https://accesshub.pdc.wa.gov/node/34269),,,
20319,34273-19341,34273,FE,17840,GRANT NELSON,Employer,19341,AMERICAN CHEMISTRY COUNCIL,17-May,6/16/2017,16094.0,AMERICAN CHEMISTRY COUNCIL,7000.0,0.0,7000.0,0.0,0.0,0.0,0.0,0.0,0.0,0.0,7000.0,19341.0,Direct,,,View report (https://accesshub.pdc.wa.gov/node/34273),Environmental Affairs - natural resources - parks,Chemical Policy,Environment Committees
20320,34283-26630,34283,FE,17599,Grist Public Affairs LLC,Employer,26630,AARP WA ST OFFICE,17-May,6/16/2017,16121.0,AARP WA ST OFFICE,2000.0,0.0,2000.0,0.0,0.0,0.0,0.0,0.0,0.0,0.0,2000.0,26630.0,Direct,,,View report (https://accesshub.pdc.wa.gov/node/34283),Labor,Family & Medical Leave,"Labor, Appropriations, Ways & Means"
20321,34273-19342,34273,FE,17840,GRANT NELSON,Employer,19342,"UNIVERSITY OF PHOENIX, INC.",17-May,6/16/2017,16130.0,"UNIVERSITY OF PHOENIX, INC.",4000.0,0.0,4000.0,0.0,0.0,0.0,0.0,0.0,0.0,0.0,4000.0,19342.0,Direct,,,View report (https://accesshub.pdc.wa.gov/node/34273),Higher education,Higher Ed,Higher Ed Committees
20322,34273-19343,34273,FE,17840,GRANT NELSON,Employer,19343,"Ash Grove Cement Co., a CRH Company",17-May,6/16/2017,16143.0,"Ash Grove Cement Co., a CRH Company",5000.0,0.0,5000.0,0.0,0.0,0.0,0.0,0.0,0.0,0.0,5000.0,19343.0,Direct,,,View report (https://accesshub.pdc.wa.gov/node/34273),Environmental Affairs - natural resources - parks,Manufacturing,"Environment, Transportation"
20323,34269-19306,34269,FE,17819,MJB CONSULTING*,Employer,19306,"ASTELLAS PHARMA US, INC.",17-May,6/16/2017,16174.0,"ASTELLAS PHARMA US, INC.",5000.0,0.0,5000.0,0.0,0.0,0.0,0.0,0.0,0.0,0.0,5000.0,19306.0,Direct,,,View report (https://accesshub.pdc.wa.gov/node/34269),,,
20324,33716-18760,33716,FE,17565,GANO & ASSOC*,Employer,18760,AT&T SERVICES INC,17-May,6/16/2017,16175.0,AT&T SERVICES INC,6000.0,0.0,6000.0,420.61,0.0,0.0,0.0,0.0,792.43,1213.04,7213.04,18760.0,Direct,,,View report (https://accesshub.pdc.wa.gov/node/33716),Technology,Cell Phone,"H Tech, Sen Tech"
20325,33716-18761,33716,FE,17565,GANO & ASSOC*,Employer,18761,AVIATION TECHNICAL SERVICES INC,17-May,6/16/2017,16179.0,AVIATION TECHNICAL SERVICES INC,4000.0,0.0,4000.0,0.0,0.0,0.0,0.0,0.0,528.29,528.29,4528.29,18761.0,Direct,,,View report (https://accesshub.pdc.wa.gov/node/33716),Business and consumer affairs,Airplane Repair,H S Ways Means
20327,34291-26056,34291,FE,17693,Water Street Public Affairs LLC,Employer,26056,BENTON PUD,17-May,6/16/2017,16188.0,BENTON PUD,5100.0,0.0,5100.0,0.0,0.0,0.0,0.0,0.0,0.0,0.0,5100.0,26056.0,Direct,,,View report (https://accesshub.pdc.wa.gov/node/34291),Energy and utilities,"Telecommunications, Energy Independence Act","House Technology & Economic Development Committee, Senate Energy Environment & Telecommunications"
20328,34061-18427,34061,FE,17439,SUSAN W CHAMPLAIN,Employer,18427,BOEING,17-May,6/16/2017,16201.0,BOEING,4910.0,0.0,4910.0,753.49,13.62,0.0,0.0,0.0,0.0,767.11,5677.11,18427.0,Direct,,,View report (https://accesshub.pdc.wa.gov/node/34061),Fiscal,Aerospace tax incentives clawback legislation,House Finance Committee
20329,33716-18762,33716,FE,17565,GANO & ASSOC*,Employer,18762,BUILDING INDUSTRY ASSN OF WA,17-May,6/16/2017,16215.0,BUILDING INDUSTRY ASSN OF WA,6000.0,0.0,6000.0,0.0,0.0,0.0,0.0,0.0,792.43,792.43,6792.43,18762.0,Direct,,,View report (https://accesshub.pdc.wa.gov/node/33716),Local government,Home Building,"H S Local Gov, Commerce Labor"
20330,34281-19844,34281,FE,18065,JEFF WARNKE,Employer,19844,CHEHALIS CONFEDERATED TRIBES,17-May,6/16/2017,16253.0,CHEHALIS CONFEDERATED TRIBES,3000.0,0.0,3000.0,0.0,0.0,0.0,0.0,0.0,0.0,0.0,3000.0,19844.0,Direct,,,View report (https://accesshub.pdc.wa.gov/node/34281),Environmental Affairs - natural resources - parks,1885,HOUSE AG & NATURAL RESOURCES
20331,34268-26311,34268,FE,17528,LUKE ESSER,Employer,26311,CITY OF SPOKANE,17-May,6/16/2017,16314.0,CITY OF SPOKANE,2500.0,0.0,2500.0,0.0,0.0,0.0,0.0,0.0,0.0,0.0,2500.0,26311.0,Direct,,,View report (https://accesshub.pdc.wa.gov/node/34268),Environmental Affairs - natural resources - parks,Parks,Sen. Ways & Means; House Capital Budget
20332,34269-19308,34269,FE,17819,MJB CONSULTING*,Employer,19308,CLARK COUNTY,17-May,6/16/2017,16322.0,CLARK COUNTY,4750.0,0.0,4750.0,0.0,0.0,0.0,0.0,0.0,0.0,0.0,4750.0,19308.0,Direct,,,View report (https://accesshub.pdc.wa.gov/node/34269),,,
20333,33716-18763,33716,FE,17565,GANO & ASSOC*,Employer,18763,CONTINENTAL CASUALTY COMPANY (CNA Insurance Companies),17-May,6/16/2017,16363.0,CONTINENTAL CASUALTY COMPANY (CNA Insurance Companies),3500.0,0.0,3500.0,0.0,0.0,1000.0,0.0,0.0,462.25,1462.25,4962.25,18763.0,Direct,,,View report (https://accesshub.pdc.wa.gov/node/33716),Financial institutions and insurance,Insurance,H S Financial Inst and Insurance
20334,33716-18764,33716,FE,17565,GANO & ASSOC*,Employer,18764,Molson Coors Beverage Company USA LLC,17-May,6/16/2017,16366.0,Molson Coors Beverage Company USA LLC,4000.0,0.0,4000.0,0.0,0.0,0.0,0.0,0.0,528.29,528.29,4528.29,18764.0,Direct,,,View report (https://accesshub.pdc.wa.gov/node/33716),Business and consumer affairs,Beer,H S Commerce
20336,34269-19309,34269,FE,17819,MJB CONSULTING*,Employer,19309,C-TRAN,17-May,6/16/2017,16375.0,C-TRAN,3750.0,0.0,3750.0,0.0,0.0,0.0,0.0,0.0,0.0,0.0,3750.0,19309.0,Direct,,,View report (https://accesshub.pdc.wa.gov/node/34269),,,
20337,33716-18765,33716,FE,17565,GANO & ASSOC*,Employer,18765,Expedia Group,17-May,6/16/2017,16427.0,Expedia Group,4500.0,0.0,4500.0,0.0,0.0,0.0,0.0,0.0,400.0,400.0,4900.0,18765.0,Direct,,,View report (https://accesshub.pdc.wa.gov/node/33716),Technology,Travel Agent,"H S Tech, Local Gov Business and Consumer"
20338,34291-25369,34291,FE,17693,Water Street Public Affairs LLC,Employer,25369,FRANKLIN CO PUBLIC UTILITY DIST,17-May,6/16/2017,16454.0,FRANKLIN CO PUBLIC UTILITY DIST,3000.0,0.0,3000.0,0.0,0.0,0.0,0.0,0.0,0.0,0.0,3000.0,25369.0,Direct,,,View report (https://accesshub.pdc.wa.gov/node/34291),Energy and utilities,"Telecommunications, Energy Independence Act","House Technology & Economic Development Committee, Senate Energy Environment & Telecommunications"
20339,33716-18766,33716,FE,17565,GANO & ASSOC*,Employer,18766,GATEWAY AVIATION,17-May,6/16/2017,16465.0,GATEWAY AVIATION,7500.0,0.0,7500.0,0.0,0.0,0.0,0.0,0.0,490.53,490.53,7990.53,18766.0,Direct,,,View report (https://accesshub.pdc.wa.gov/node/33716),Transportation,Airplane,"H S Business, Commerce Fiscal"
20340,33716-18767,33716,FE,17565,GANO & ASSOC*,Employer,18767,CAL PORTLAND COMPANY,17-May,6/16/2017,16472.0,CAL PORTLAND COMPANY,4000.0,0.0,4000.0,208.55,0.0,2000.0,0.0,0.0,528.29,2736.84,6736.84,18767.0,Direct,,,View report (https://accesshub.pdc.wa.gov/node/33716),Agriculture,Construction Materials,"H S Ag, HS Transportation"
20341,34283-25575,34283,FE,17599,Grist Public Affairs LLC,Employer,25575,INTERCITY TRANSIT,17-May,6/16/2017,16542.0,INTERCITY TRANSIT,1750.0,0.0,1750.0,0.0,0.0,0.0,0.0,0.0,0.0,0.0,1750.0,25575.0,Direct,,,View report (https://accesshub.pdc.wa.gov/node/34283),Transportation,"Regional Mobility Grants, DASH Shuttle funding",Transportation Committees
20342,34094-27364,34094,FE,17920,G SCOTT RICHARDS,Employer,27364,INVENERGY,17-Apr,6/16/2017,16546.0,INVENERGY,3500.0,0.0,3500.0,0.0,0.0,0.0,0.0,0.0,0.0,0.0,3500.0,27364.0,Direct,,,View report (https://accesshub.pdc.wa.gov/node/34094),Energy and utilities,Various Carbon Tax Legislative Proposals,"S. EET, H. Environment,"
20343,34308-27364,34308,FE,17920,G SCOTT RICHARDS,Employer,27364,INVENERGY,17-May,6/16/2017,16546.0,INVENERGY,3500.0,0.0,3500.0,531.31,0.0,0.0,0.0,0.0,0.0,531.31,4031.31,27364.0,Direct,,,View report (https://accesshub.pdc.wa.gov/node/34308),Energy and utilities,Various Carbon Tax Legislative Proposals,"S. EET, H. Environment,"
20344,34273-28412,34273,FE,17840,GRANT NELSON,Employer,28412,INVENERGY,17-May,6/16/2017,16546.0,INVENERGY,4000.0,0.0,4000.0,0.0,0.0,0.0,0.0,0.0,0.0,0.0,4000.0,28412.0,Direct,,,View report (https://accesshub.pdc.wa.gov/node/34273),Environmental Affairs - natural resources - parks,Energy,Energy Committees
20345,34268-18675,34268,FE,17528,LUKE ESSER,Employer,18675,KALISPEL TRIBE,17-May,6/16/2017,16570.0,KALISPEL TRIBE,5000.0,0.0,5000.0,226.4,0.0,0.0,0.0,0.0,0.0,226.4,5226.4,18675.0,Direct,,,View report (https://accesshub.pdc.wa.gov/node/34268),Environmental Affairs - natural resources - parks,Natural Resources,Sen. Natural Resources & Parks; House Environment
20346,33716-18769,33716,FE,17565,GANO & ASSOC*,Employer,18769,Kapstone Paper and Packaging d/b/a WestRock,17-May,6/16/2017,16571.0,Kapstone Paper and Packaging d/b/a WestRock,5000.0,0.0,5000.0,0.0,0.0,0.0,0.0,0.0,660.36,660.36,5660.36,18769.0,Direct,,,View report (https://accesshub.pdc.wa.gov/node/33716),Energy and utilities,Biomass,H S Tech Sen Energy
20347,33716-18770,33716,FE,17565,GANO & ASSOC*,Employer,18770,KEYBANK,17-May,6/16/2017,16574.0,KEYBANK,1800.0,0.0,1800.0,0.0,0.0,0.0,0.0,0.0,237.73,237.73,2037.73,18770.0,Direct,,,View report (https://accesshub.pdc.wa.gov/node/33716),Financial institutions and insurance,Banking,H S Financial Inst
20348,33716-18771,33716,FE,17565,GANO & ASSOC*,Employer,18771,MCNA HEALTH CARE HOLDINGS,17-May,6/16/2017,16627.0,MCNA HEALTH CARE HOLDINGS,6500.0,0.0,6500.0,0.0,0.0,0.0,0.0,0.0,0.0,0.0,6500.0,18771.0,Direct,,,View report (https://accesshub.pdc.wa.gov/node/33716),Health Care,Medicaid Dental,H S Health Care
20349,34270-19204,34270,FE,17776,TRENT MATSON,Employer,19204,"Moneytree, Inc.",17-May,6/16/2017,16643.0,"Moneytree, Inc.",2500.0,0.0,2500.0,0.0,0.0,0.0,0.0,0.0,0.0,0.0,2500.0,19204.0,Direct,,,View report (https://accesshub.pdc.wa.gov/node/34270),Financial institutions and insurance,financial,Financial committees and state legislators
20350,34094-19547,34094,FE,17920,G SCOTT RICHARDS,Employer,19547,THE NATURE CONSERVANCY,17-Apr,6/16/2017,16677.0,THE NATURE CONSERVANCY,3500.0,0.0,3500.0,0.0,0.0,0.0,0.0,0.0,0.0,0.0,3500.0,19547.0,Direct,,,View report (https://accesshub.pdc.wa.gov/node/34094),Environmental Affairs - natural resources - parks,Capital Budget,"S. Ways and Means, H. Capital Budget"
20351,34308-19547,34308,FE,17920,G SCOTT RICHARDS,Employer,19547,THE NATURE CONSERVANCY,17-May,6/16/2017,16677.0,THE NATURE CONSERVANCY,3500.0,0.0,3500.0,87.74,0.0,0.0,0.0,0.0,0.0,87.74,3587.74,19547.0,Direct,,,View report (https://accesshub.pdc.wa.gov/node/34308),Environmental Affairs - natural resources - parks,Capital Budget,"S. Ways and Means, H. Capital Budget"
